time,seconds_elapsed,z,y,x
1772795141184893200,0.07389306640625,0.02937690113186836,-0.002963898442169011,0.017391827773116528
1772795141194937300,0.083937255859375,0.0322159239500761,-0.010274596771103097,0.009447271109977737
1772795141204981000,0.09398095703125,0.03041618105173111,-0.012016678639990277,0.014068811697093769
1772795141215026200,0.104026123046875,0.0256236860781908,0.0023293405654098024,0.013466306626144797
1772795141225070300,0.1140703125,0.047314708882570264,-0.011305541545816231,0.010423915856098755
1772795141235114000,0.124114013671875,0.01842939065992832,-0.014657911580486687,0.008667747237998992
1772795141245159200,0.1341591796875,0.02605330966711044,0.004995163097413023,0.010526563379820436
1772795141255203300,0.144203369140625,0.023052374285459518,0.005080619170205318,0.020212757812207563
1772795141265247200,0.154247314453125,0.032470775493979455,-0.0033869955359463345,0.004301606184057891
1772795141275292200,0.164292236328125,0.03874620250165462,-0.0036595568372984415,-0.004130304737761616
1772795141285336300,0.17433642578125,0.0203343474984169,0.004531242800780455,-0.008210212728846818
1772795141295380200,0.184380126953125,0.014342413607239722,-0.0038718336105550404,0.008539481215830891
1772795141305424100,0.194424072265625,0.015385200658440588,-0.005523735282471171,-0.0025929665021132676
1772795141315469300,0.20446923828125,0.021365444111824033,-0.01135887117673992,0.00992116309888661
1772795141325513200,0.21451318359375,0.02495148590505123,-0.006421276635595131,-0.013650796347577125
1772795141335557000,0.22455712890625,0.0285386967420578,0.010531915408372878,0.014787782754562794
1772795141345601300,0.234601318359375,0.027167992910742757,0.0005122657938845805,0.015973101815301923
1772795141355645200,0.244645263671875,0.0306605112016201,-0.0021360650347342016,-0.006256530510960146
1772795141365689300,0.254689453125,0.03353928150832653,0.00004681712092424277,0.014152635789336636
1772795141375734000,0.264734130859375,0.02886076830327511,-0.005472793400633964,0.006127917428920045
1772795141385778200,0.274778076171875,0.020634791749715803,0.004674848526797723,0.008681008578371256
1772795141395822300,0.284822265625,0.016865794605016707,0.013392858939088181,0.0049111255176831035
1772795141405867000,0.294866943359375,0.02332709957361221,0.005168115932212095,-0.01002763741435483
1772795141415911200,0.3049111328125,0.02150163771212101,0.0067187760153814445,0.021865529987914488
1772795141425955300,0.314955322265625,0.02087678381204605,-0.014187418266705935,-0.009497658723499626
1772795141436000000,0.325,0.03136719816625118,0.004363388549495721,0.011696767069818452
1772795141446044200,0.335044189453125,0.0267173265337944,0.009138930104946484,0.005033738117199391
1772795141456088300,0.34508837890625,0.014441782328486441,0.0017173375845755798,-0.004582514617824927
1772795141466132200,0.35513232421875,0.04466448663473129,0.008830082780661178,-0.004470880070049315
1772795141476177200,0.36517724609375,0.025059622454643247,0.004462495834194124,0.0036038697108626365
1772795141486221300,0.37522119140625,0.0160948102325201,0.008605130330566316,0.008733076692325994
1772795141496265200,0.38526513671875,0.02131342166364193,0.011894410817057359,-0.004882876670733094
1772795141506310100,0.39531005859375,0.013837386694550513,0.001307383385572757,0.0015510379674378782
1772795141516354300,0.405354248046875,0.0035018706411123275,-0.009887604464223841,0.0038038583955261854
1772795141526398200,0.415398193359375,0.021903788772225378,-0.006769092276133597,-0.0036731812205631283
1772795141536443100,0.425443115234375,0.03178279322981834,0.009000687823924818,0.002979180207569152
1772795141546487000,0.435487060546875,0.026398762103915212,0.0001731837323619402,0.0007726374734658748
1772795141556531200,0.44553125,0.02923836944401264,-0.0014521052116142528,-0.007242829001415521
1772795141566575400,0.455575439453125,0.0142693483710289,-0.0022468609020543226,0.014539908940717577
1772795141576620000,0.4656201171875,0.019957915401458737,0.007730658184131607,0.014995927346218376
1772795141586664200,0.475664306640625,0.012328735697269439,0.01453286727857776,-0.0029726682683918625
1772795141596708400,0.485708251953125,0.006638999623060226,0.007050339778262423,-0.0035159265659283844
1772795141606753000,0.4957529296875,0.014121464332938193,-0.004408832843130222,0.03695520003219135
1772795141616797200,0.505797119140625,0.015760463711619377,-0.0025632457902291204,0.011327577564399689
1772795141626841300,0.51584130859375,0.01860065557360649,0.011103648598433937,0.0055659361646045
1772795141636886000,0.525885986328125,0.01441138719022274,-0.0017997988389164673,-0.004095881878351792
1772795141646930200,0.53593017578125,0.032658991542458535,0.00596488947898033,0.005201614630548283
1772795141656974300,0.545974365234375,0.027263854500651358,0.010678034464351366,0.0002727890593931079
1772795141667019000,0.55601904296875,0.024120880299806594,0.008779193414462497,-0.00277792201442644
1772795141677063200,0.566063232421875,0.03040507513582706,0.001874970266184391,0.004693948236200958
1772795141687107000,0.576107177734375,0.019017419680953024,-0.008620368428071378,-0.014471154553443192
1772795141697152300,0.58615234375,0.02919043864905834,-0.007636050690503907,0.011381673238659277
1772795141707196200,0.596196044921875,0.00808627582192421,-0.016479818361578507,0.003701329602813348
1772795141717240000,0.606239990234375,0.015265958192944526,0.0034299030959111403,0.0030748500012326985
1772795141727284200,0.6162841796875,0.0249877262622118,0.009471081243827938,0.010351782201649621
1772795141737329200,0.6263291015625,0.03950140478312969,0.011667953108932124,-0.0066217836267780505
1772795141747373000,0.636373046875,0.022293080350756642,0.007499052230964298,-0.012024035395961254
1772795141757417200,0.646417236328125,0.027974048596620556,-0.016713688766246196,0.002011211958248168
1772795141767462100,0.656462158203125,0.012565467062592506,-0.010564898654300487,-0.0035719128031749276
1772795141777506000,0.666506103515625,0.011363105535507201,-0.010740194714057724,0.0068756213905289765
1772795141787550200,0.67655029296875,0.0296148015409708,-0.011623055662924889,0.0002771455741021782
1772795141797595100,0.68659521484375,0.021828969970345495,0.005370595113950548,0.007593587801000103
1772795141807639000,0.69663916015625,0.01284369948208332,-0.007412562399244052,0.0017553283678833395
1772795141817683200,0.70668310546875,0.027507600128650663,-0.004154795577035111,0.009768520687287672
1772795141827728400,0.716728271484375,0.01598725820481777,-0.017091176884196466,0.0039135384482331574
1772795141837772000,0.72677197265625,0.02301788749396801,-0.021522842613642568,-0.00729950022525154
1772795141847816200,0.736816162109375,0.026010055047273634,0.0005531055505824042,-0.0025517577088903635
1772795141857860000,0.746860107421875,0.01433598386645317,0.0006883597203130193,-0.007791786387376487
1772795141867905000,0.756905029296875,0.01807517039477825,0.009355990367886261,0.004662575850402936
1772795141877949200,0.76694921875,0.02899520833790302,0.006404876914998749,0.0027632359019480646
1772795141887993000,0.7769931640625,0.026298808860778806,0.007988069294590968,-0.008070073605794459
1772795141898038300,0.787038330078125,0.022104279780387877,0.009297738537495024,-0.014817986096581443
1772795141908082200,0.797082275390625,0.01686345651745796,0.013356213298195507,-0.005305705192685127
1772795141918126000,0.8071259765625,0.020306290447711945,0.018989129734807646,0.018410475896904244
1772795141928171300,0.817171142578125,0.020904840862751007,0.01999253919026814,0.0028693996901623903
1772795141938215200,0.827215087890625,0.032278467792272565,0.012110933936346555,-0.0036562392189167436
1772795141948259000,0.837259033203125,0.027040567138791084,0.01623298801063793,-0.000982617829181254
1772795141958304300,0.84730419921875,0.018659692284464836,-0.011322318009036825,0.009687710536038502
1772795141968348200,0.85734814453125,0.025395722541213035,-0.011622441458282992,0.012551995659666136
1772795141978392000,0.86739208984375,0.013725743013620376,-0.013178559742926154,0.002938857330335304
1772795141988436200,0.877436279296875,0.024499065962433814,-0.007551565015380037,0.0093270331306383
1772795141998481200,0.887481201171875,0.022099603605270385,0.006869576383876847,0.004194675210863351
1772795142008525000,0.897525146484375,0.027184359523653983,-0.013100191568868467,-0.013676259582396596
1772795142018569200,0.9075693359375,0.013866028267145156,-0.006316835017831181,0.009485922619933262
1772795142028614400,0.917614501953125,0.02284136188328266,-0.005298927821204415,0.0015237481017131356
1772795142038658000,0.927657958984375,0.03451251045465469,-0.011614927155396434,-0.01902477187034674
1772795142048702200,0.9377021484375,0.022537995022535322,-0.005260279736181837,0.016056460116663947
1772795142058747400,0.947747314453125,0.020891396859288213,-0.007769857112536555,0.004022131655551493
1772795142068791000,0.957791015625,0.02358253563940525,0.009656722884374903,-0.022900508191995322
1772795142078835200,0.967835205078125,0.021636077746748923,0.009240579260714003,-0.011595580850820988
1772795142088880400,0.97788037109375,0.016549568262696265,-0.002599069161803345,0.0005899287171661854
1772795142098924300,0.98792431640625,0.015050854137539862,0.005237719132035272,-0.003304101312998682
1772795142108968200,0.99796826171875,0.027020108872652052,0.017290332168509483,0.002566863946476951
1772795142119013400,1.008013427734375,0.01400572899878025,-0.007436241814820096,-0.023046766528580336
1772795142129057300,1.018057373046875,0.025226211193203923,-0.023281315069971605,-0.015584906215313821
1772795142139101200,1.02810107421875,0.017145196068286895,-0.011961683350009843,-0.008128443596372381
1772795142149145000,1.03814501953125,0.009068272596597671,0.01067287879862124,-0.005191248500160873
1772795142159190300,1.048190185546875,0.02852349917292595,0.005857578909050789,0.008729962286632507
1772795142169234200,1.058234130859375,0.029719430959224698,0.000043603106764203404,-0.007952703436976297
1772795142179278000,1.068278076171875,0.03076689418554306,-0.010130969924665986,-0.0033442780597601083
1772795142189323300,1.0783232421875,0.030765725141763685,-0.019835668128123506,-0.000406315778568387
1772795142199367200,1.0883671875,0.032415830436348915,-0.020355609482154247,0.0009072693043388426
1772795142209411000,1.0984111328125,0.04349485833346844,-0.01140108575860504,0.013409471005527302
1772795142219456300,1.108456298828125,0.027487141862511635,-0.0024455091535855898,-0.00652868024953641
1772795142229500400,1.11850048828125,0.036170214533805846,0.015288656365231145,0.0034698589344974605
1772795142239544000,1.1285439453125,0.031983284237980844,0.018812853002583143,-0.003977918054489419
1772795142249589200,1.13858935546875,0.020317980885505675,0.026337711532483807,0.0006618888416793197
1772795142259633400,1.14863330078125,0.026309330254793165,0.0077917806791549075,-0.008841140176681802
1772795142269677000,1.158677001953125,0.013892331752181053,0.002365977643970109,0.007962137985602021
1772795142279722200,1.16872216796875,0.019879004946351052,-0.015068588440341408,0.006097887616837397
1772795142289766400,1.178766357421875,0.0023714053064584732,0.008308692109171534,0.009090283499006181
1772795142299810000,1.18881005859375,0.017786416581273078,0.0012091859913940424,-0.0011892189177218823
1772795142309854200,1.198854248046875,0.017786416581273078,0.008206066276691853,0.01076004334213212
1772795142319899400,1.2088994140625,0.015391045877337455,0.009529066500271436,0.014409113034745678
1772795142329943300,1.218943359375,0.01090308680832386,-0.007127879689369001,0.004332704575220123
1772795142339987200,1.2289873046875,0.014796002593636512,-0.01787970147996093,0.004015647115837783
1772795142350032100,1.2390322265625,0.03140519208908081,-0.011068005321250528,-0.001982524719880894
1772795142360076000,1.249075927734375,0.021226912423968312,-0.0077110738467163166,0.007821606136905029
1772795142370120000,1.259119873046875,0.04247311407029628,0.0030658287278492935,-0.0008578315388876944
1772795142380165000,1.2691650390625,0.03140051591396332,0.011840026306785875,-0.0015642536420375109
1772795142390209000,1.279208984375,0.03364274188280105,0.0021447842004905394,-0.009377101083751766
1772795142400253200,1.289253173828125,0.029749241575598714,0.006558399534365162,0.0001779229833278805
1772795142410298000,1.299298095703125,0.033190321940183634,0.00665425084947492,-0.012304505438311025
1772795142420342000,1.309342041015625,0.016580547922849655,0.0023976240244039217,-0.016629903489910065
1772795142430386200,1.31938623046875,0.012688801181316375,0.018421048664912815,-0.012346901541622355
1772795142440431000,1.32943115234375,0.034085809475183484,0.007587280786977498,0.0025333361362107096
1772795142450475000,1.33947509765625,0.026005963394045827,0.016341687390877633,-0.0013435783623717723
1772795142460519200,1.349519287109375,0.025855741268396376,-0.001766745239157899,-0.019907016331283375
1772795142470562800,1.359562744140625,0.017775310665369033,-0.007845934577274602,-0.003631141310278326
1772795142480608000,1.36960791015625,0.0173234752446413,-0.004041995410413074,-0.0063499718149192625
1772795142490652200,1.379652099609375,0.02405833645761013,0.007664437676416128,-0.008207143988925964
1772795142500696000,1.389696044921875,0.029897125613689422,-0.00561062583134626,-0.0018912023077718913
1772795142510741000,1.399740966796875,0.02196691713631153,-0.0029393859116535167,-0.01111794426855631
1772795142520785200,1.40978515625,0.025707272708415982,-0.001768175148663431,-0.009515696703689172
1772795142530829000,1.4198291015625,0.022564298507571218,-0.004274789529902045,-0.008662650937773287
1772795142540874000,1.4298740234375,0.02301438036262989,0.015996999855764443,-0.0016833773765247313
1772795142550918100,1.439918212890625,0.029749241575598714,0.003121801836186205,0.0012131569157354534
1772795142560962000,1.449962158203125,0.03169394590258598,-0.0011358938533754554,0.004020953478617593
1772795142571007000,1.460007080078125,0.01673193909227848,-0.0005809748007974122,0.014620536428876221
1772795142581051100,1.470051025390625,0.012392448583245277,-0.0006810932969485293,0.005056050413707271
1772795142591095000,1.480094970703125,0.026160277172923088,-0.0013853311491111525,-0.0041430180888622995
1772795142601140000,1.490139892578125,0.01418868435025215,-0.008271612072616698,-0.012267059504752978
1772795142611184000,1.50018408203125,0.012543839752674101,-0.010369836164859588,0.005178800010541454
1772795142621228000,1.51022802734375,0.02511047585904598,-0.011917112414276926,-0.006093512835819274
1772795142631272200,1.520272216796875,0.016282441759109496,-0.008440925345337018,0.0015828761441167444
1772795142641317000,1.530317138671875,0.026159108129143713,0.002428370218294731,-0.0009466058008838445
1772795142651361000,1.540361083984375,0.02735562443733215,0.011939422427496174,0.0005367372252047061
1772795142661405200,1.5504052734375,0.03274608530402184,-0.0005565687286143657,-0.009863441562280058
1772795142671450000,1.5604501953125,0.019130232405662535,0.00881041624485515,-0.007849361793510616
1772795142681494000,1.570493896484375,0.014343582651019095,-0.00011096925455058226,0.003355785834463313
1772795142691538200,1.5805380859375,0.03798398595750332,0.0006281229985732352,0.00769867387698032
1772795142701583000,1.5905830078125,0.018232406783103942,0.01598592019767966,-0.004990282567963003
1772795142711627000,1.600626953125,0.0137421096265316,-0.0034115993980070925,-0.0035566695682704447
1772795142721671200,1.610671142578125,0.026761165675520896,-0.0015546518425195244,0.00710730212139897
1772795142731716000,1.620716064453125,0.021674656191468238,-0.005497000255883904,-0.00016810484221205113
1772795142741760000,1.630760009765625,0.024967852517962453,0.0021636063476194976,-0.009980126744508743
1772795142751804200,1.64080419921875,0.03230009510219097,0.003995094093220541,0.001396778987487778
1772795142761848800,1.650848876953125,0.028408932882547377,0.006057109223521547,0.0024317480584140866
1772795142771893000,1.66089306640625,0.03005260843634605,-0.009844411493180086,-0.0028194048022851348
1772795142781937200,1.670937255859375,0.031547230908274645,0.00811951365453424,-0.019424310848256573
1772795142791981000,1.68098095703125,0.018826865544915198,-0.00378444930051337,0.016705608207779003
1772795142802026000,1.69102587890625,0.022117723783850667,-0.0034686285273361132,0.006021981969568878
1772795142812070100,1.701070068359375,0.030796120280027386,-0.001288946686105919,0.006279482128284871
1772795142822114000,1.711114013671875,0.022567221117019653,0.0010101427309295104,-0.005613392035523429
1772795142832159000,1.721158935546875,0.01792787087857723,-0.0067243820597941515,0.0018369605030398816
1772795142842203100,1.731203125,0.029451135411858557,-0.0008433828884270042,0.011937717952532694
1772795142852247000,1.7412470703125,0.027656653210520743,-0.013047785528196253,-0.003843733748188242
1772795142862292000,1.7512919921875,0.02301964105963707,-0.015076817412569653,0.002862558957422152
1772795142872336100,1.761336181640625,0.030648820763826367,-0.01598547267310787,-0.009879095789138228
1772795142882380000,1.771380126953125,0.016132219633460045,-0.009454902431406662,-0.015688275258243085
1772795142892425000,1.781425048828125,0.02840016505420208,0.012262950726860435,0.0016591014517936854
1772795142902468900,1.79146875,0.027202479702234265,-0.009387624761054758,-0.007210296704992652
1772795142912513000,1.801512939453125,0.01822422347664833,-0.009361238506805966,0.006125232281489298
1772795142922558000,1.811557861328125,0.024507833790779112,-0.0037544349006289847,0.001559650532156229
1772795142932601900,1.821601806640625,0.0280985517591238,0.009908897272357716,-0.016429887405782936
1772795142942646000,1.83164599609375,0.02675181332528591,0.006332603979943087,-0.00043210780695080754
1772795142952690200,1.841690185546875,0.025253683722019193,0.014295165515586267,-0.011469159725867211
1772795142962734800,1.85173486328125,0.026751228803396223,0.017920434207504148,-0.004227472368767485
1772795142972779000,1.861779052734375,0.030341946771740912,0.009894795681769028,-0.012917212242865935
1772795142982823200,1.8718232421875,0.023308394873142242,-0.003539633666379086,-0.0030903032986912874
1772795142992867800,1.881867919921875,0.014927520018815994,-0.0030514988083974455,-0.012902124271588399
1772795143002912000,1.891912109375,0.013580197063088417,0.004136596910408115,-0.00019849084732122718
1772795143012956200,1.9019560546875,0.019119711011648177,-0.000973279749500216,-0.00883072838052176
1772795143023000800,1.912000732421875,0.03333528336882591,0.006823596088236081,-0.007771519917482509
1772795143033045000,1.922044921875,0.0325865108281374,-0.006868116220796946,-0.0022748769962694496
1772795143043089200,1.932089111328125,0.025851065093278884,-0.01140460088145337,-0.006614678032556548
1772795143053134000,1.942134033203125,0.008643909704685211,-0.012115531338006257,-0.002782817385252565
1772795143063178000,1.952177978515625,0.01148819321990013,-0.0009487954746815376,-0.003468680757563561
1772795143073222000,1.962221923828125,0.012088497200608252,0.002988113288929162,-0.00693323332928121
1772795143083266000,1.97226611328125,0.028548049092292783,0.022759784547053276,0.004395348882116377
1772795143093311000,1.98231103515625,0.02166705740690231,0.015387636927410494,0.005614259685203433
1772795143103355000,1.99235498046875,0.02855097170174122,0.005387814535165671,0.003871699467347935
1772795143113399000,2.00239892578125,0.029001053556799886,0.005281379606426344,0.003202202707948163
1772795143123444000,2.01244384765625,0.0117944826900959,-0.007834931980181136,-0.00923382928869687
1772795143133487900,2.02248779296875,0.012093757897615432,-0.0034298585717828243,-0.0161354619033169
1772795143143532000,2.032531982421875,0.024214988324046133,0.006968031789670931,-0.012777182717667892
1772795143153577200,2.0425771484375,0.0328957229077816,-0.013023003855033312,-0.004000065954215824
1772795143163620900,2.052620849609375,0.028706454524397847,0.001297269843990216,-0.005898255125200376
1772795143173665000,2.0626650390625,0.03020166151821613,0.006935871098472853,-0.01167047271793708
1772795143183710200,2.072710205078125,0.03319499811530113,-0.005454739437423996,-0.0027897129169199616
1772795143193753900,2.08275390625,0.03499181840419769,-0.017139678501308663,0.005934093623561784
1772795143203798000,2.092798095703125,0.02691080327928066,0.0017800070076467818,0.0029039230142720042
1772795143213843200,2.10284326171875,0.018979425758123395,-0.0005824095622912864,0.003328514235047623
1772795143223886800,2.112886962890625,0.021373627418279646,0.001873039032118686,-0.0056407093007117505
1772795143233931000,2.122930908203125,0.025264789637923238,0.007352474804793018,-0.02205478721600957
1772795143243975000,2.132974853515625,0.003717559218406677,-0.0023932560932516935,-0.006782508880132809
1772795143254020000,2.14302001953125,0.016585808619856833,0.014176487022382207,-0.001859519394719973
1772795143264064000,2.15306396484375,0.03394493969976902,0.007398347785868099,-0.0006013542934786527
1772795143274108000,2.16310791015625,0.025862755531072614,-0.0033969446807474014,-0.0027942886273376643
1772795143284153000,2.173153076171875,0.004013911816477775,-0.0004631916421480127,-0.0078455441349186
1772795143294197000,2.183197021484375,0.01763034923672676,-0.007955277844908414,-0.0029582378842402247
1772795143304241000,2.193240966796875,0.0029629414588212967,0.0033747982080763904,0.011490604372695088
1772795143314286000,2.2032861328125,0.024062428110837936,-0.015392456949711777,0.009764337702514603
1772795143324330000,2.213330078125,0.020770985350012778,-0.01984017533988226,0.0037847335699480026
1772795143334374000,2.223373779296875,0.02226619234383106,0.003901590569646214,0.0025249245008919386
1772795143344419300,2.23341943359375,0.014483867904543877,-0.012400530283356782,0.009772740204678847
1772795143354463000,2.243462890625,0.028998130947351455,-0.00607340562530735,0.0012013568800874053
1772795143364507100,2.253507080078125,0.011639584389328956,0.0011619242000087979,-0.005428838382009416
1772795143374551000,2.263551025390625,0.018671967244148255,0.0017762293066058191,-0.0039837815396953375
1772795143384596200,2.27359619140625,0.036626726129651066,0.010203479180095018,-0.001080013789050281
1772795143394640100,2.28364013671875,0.02286006658375263,0.007251608246203977,0.0032645456207450476
1772795143404684000,2.29368408203125,0.019717676904797553,-0.0026247107785471596,-0.005152852718532085
1772795143414729200,2.303729248046875,0.03198679136931896,-0.005218074858293403,-0.006417109633842483
1772795143424773000,2.313773193359375,0.03198562232553959,0.007300060201788437,-0.01113617404499091
1772795143434817000,2.323817138671875,0.03318155411183834,-0.005107134430261794,-0.001486019040364772
1772795143444862200,2.3338623046875,0.02824409770965576,0.0187231106262072,0.010088774750754237
1772795143454906000,2.343906005859375,0.019114450314641,0.011443429346277843,-0.01800817870632745
1772795143464950000,2.353949951171875,0.020607903742790222,0.0009351845057375612,-0.020171868679393083
1772795143474995200,2.3639951171875,0.029285131195187566,-0.011660097454395144,-0.006210070153884589
1772795143485039400,2.374039306640625,0.024948563295602796,-0.0001452063113480108,0.00385708642010577
1772795143495083000,2.3840830078125,0.008790040177106856,0.005379377783671952,-0.008706006022309884
1772795143505128200,2.394128173828125,0.02061199539601803,-0.003944763847325521,-0.014048262099409474
1772795143515172400,2.40417236328125,0.01956277860403061,0.004416643688127806,-0.0023395031976979224
1772795143525216000,2.414216064453125,0.02554711371064186,-0.008906986795883857,-0.0021457615907303986
1772795143535260200,2.42426025390625,0.03497486726939678,0.01140626197393285,0.008810598907945676
1772795143545305300,2.434305419921875,0.018666122025251388,-0.006672988657630048,-0.007367469161236658
1772795143555349000,2.444348876953125,0.028242928665876386,-0.0024619776582519987,0.006418781001120805
1772795143565393200,2.45439306640625,0.03796995743215084,-0.0005603769686407759,-0.005388771233102306
1772795143575438300,2.464438232421875,0.009838672447204589,0.005036166394659085,-0.003104916345933452
1772795143585482200,2.474482177734375,0.004900631523132324,0.0024863897240677032,-0.008030527046695352
1772795143595526100,2.484526123046875,0.028842648124694822,0.0019459729792331926,0.0009478387767449021
1772795143605571300,2.4945712890625,0.006397592082619667,0.006624316935514798,0.003970995123358443
1772795143615615200,2.504615234375,0.018217793735861777,-0.004188241474321694,-0.0025144305063411593
1772795143625659100,2.5146591796875,0.017919103050231932,0.011593576123402453,-0.008471968937572091
1772795143635704300,2.524704345703125,0.025249592068791387,0.007664828689594287,-0.010373537375731393
1772795143645748200,2.534748291015625,0.023605331993103027,-0.002223339461510477,0.003805557162268087
1772795143655792000,2.544792236328125,0.015077157622575759,-0.006708885950673721,-0.0016753128010779618
1772795143665836000,2.5548359375,0.006399345648288726,0.006296435546374414,-0.009222951701655983
1772795143675881200,2.564881103515625,0.023605916514992713,0.010562140441633528,-0.008735633975593373
1772795143685925000,2.574925048828125,0.025699089401960373,-0.0014376938072993652,-0.010941765717742963
1772795143695969000,2.584968994140625,0.030936405533552168,-0.005431029197451425,-0.0055532593461219215
1772795143706014200,2.59501416015625,0.0276455472946167,-0.003916124843430588,0.0016745273497886955
1772795143716058400,2.605058349609375,0.012830840000510215,0.008813970754432375,-0.004911527376482263
1772795143726102000,2.61510205078125,0.016868717214465142,-0.001146359592229419,0.00360997065808624
1772795143736147200,2.625147216796875,0.025847557961940763,0.004360460517236788,-0.008202047688700259
1772795143746191400,2.63519140625,0.03916588921844959,0.008292175370032783,-0.010253938717208802
1772795143756235000,2.645235107421875,0.024351766446232794,-0.00005520021513511892,0.0020377620384562757
1772795143766280200,2.6552802734375,0.010433715730905532,-0.0024212138209011753,-0.010670739357173442
1772795143776324400,2.665324462890625,0.01836450873017311,-0.0015714271640958032,-0.000010749722877517341
1772795143786368300,2.6753681640625,0.02435059740245342,-0.011339541996829211,-0.005544190123677253
1772795143796413200,2.6854130859375,0.018963059145212173,-0.014474747308104996,-0.009458833683608099
1772795143806457300,2.695457275390625,0.026444354811310765,0.0027905343300051754,-0.0003535352785605937
1772795143816501200,2.705501220703125,0.025843466308712957,-0.005756593048630748,-0.00575510206115432
1772795143826545200,2.715545166015625,0.03302840937674045,-0.004685601389197109,-0.001393107459368184
1772795143836590000,2.725590087890625,0.03318096958994865,0.0025150721104466355,-0.016484293607296422
1772795143846634200,2.73563427734375,0.030339608684182166,0.0018525510832274447,0.0021819106163457037
1772795143856678100,2.74567822265625,0.023904607200622558,0.0083250364600186,0.0005272022118791937
1772795143866723000,2.75572314453125,0.010436638340353965,-0.00023194530694017884,-0.016280039739469065
1772795143876767200,2.765767333984375,0.036923078727722165,-0.004447801159383379,-0.0005082600493915379
1772795143886811100,2.77581103515625,0.02509995446503162,-0.004925742560680373,-0.0018325674557127056
1772795143896856000,2.78585595703125,0.012231705063581465,-0.0014740928530198288,-0.010186042846459895
1772795143906900200,2.795900146484375,0.013728081101179122,-0.0012868041051362525,-0.004654438209719955
1772795143916944400,2.8059443359375,0.02450140404999256,-0.006398544784801197,-0.0121519360919483
1772795143926989000,2.815989013671875,0.025095862811803815,0.00039341576862207147,-0.011546892004041
1772795143937033200,2.826033203125,0.038860184270143504,0.017134607317257904,-0.012764807293284684
1772795143947077400,2.836077392578125,0.011326865178346633,0.002713012114385492,-0.009776128605008125
1772795143957121000,2.84612109375,0.019108605095744132,-0.004863827764501912,-0.0028256610131356863
1772795143967166200,2.856166259765625,0.02778524802625179,-0.00098974682711123,-0.017637975420756263
1772795143977210000,2.866210205078125,0.009530044889450072,0.002515930056149955,-0.0035569435629062354
1772795143987254000,2.87625390625,0.02404430793225765,0.0025483481881412445,-0.0053916664430871605
1772795143997299200,2.88629931640625,0.024043723410367965,0.004938082023267634,-0.008844318514456972
1772795144007343000,2.896343017578125,0.03691255733370781,0.005662147097673732,-0.006022447760449722
1772795144017387300,2.90638720703125,0.02613748081922531,0.003397179288654297,-0.010743749794457106
1772795144027432200,2.91643212890625,0.02568739896416664,-0.003809810072755499,-0.0007860997432377189
1772795144037476000,2.92647607421875,0.03227086900770664,0.001198075508912734,-0.0014349007744807749
1772795144047520300,2.936520263671875,0.025090602114796638,0.007046230429547722,0.011308507537748664
1772795144057565200,2.946565185546875,0.009677928927540779,-0.0035714464414719257,0.004585391561500728
1772795144067609000,2.956609130859375,0.031825463327765466,0.005858493936969899,-0.00253769265091978
1772795144077653200,2.9666533203125,0.03751110774874687,0.015007778755860636,-0.006748040354950353
1772795144087698200,2.9766982421875,0.014167057040333747,0.010885637916601262,-0.0070984155620448285
1772795144097742000,2.9867421875,0.013718728750944136,0.0025488405222524307,0.006865912847267464
1772795144107786200,2.9967861328125,0.026736615756154058,0.007104695747426012,0.002174366630706936
1772795144117830400,3.006830322265625,0.021348492977023122,0.004349040078323742,-0.0016501418272033333
1772795144127875000,3.016875,0.020000585499405858,0.0037840143340290523,-0.009969724081503227
1772795144137919200,3.026919189453125,0.028532267001271247,0.005350634604733204,0.017115166256204246
1772795144147963100,3.036963134765625,0.017459668844938277,0.006003074056410696,-0.010810138694709166
1772795144158008000,3.047008056640625,0.02913257098197937,0.005278137907391647,0.00018525690641254186
1772795144168052200,3.05705224609375,0.017760113096237182,0.0013845240065798862,-0.011933060043724254
1772795144178096000,3.06709619140625,0.022846038058400152,0.006493637477263109,-0.015505155509989708
1772795144188141000,3.07714111328125,0.0241904384046793,-0.0033032878914236786,0.004105060698650777
1772795144198185200,3.087185302734375,0.036011224579811096,0.009448973301652586,-0.0019095599483698606
1772795144208229000,3.09722900390625,0.025236148065328597,0.0036492543535816364,-0.018763773713447153
1772795144218274000,3.107274169921875,0.01939852795302868,0.006529762528347783,-0.0007746924332343041
1772795144228318200,3.117318115234375,0.03885200096368789,-0.0021735492133768274,-0.00924414975331165
1772795144238362000,3.127362060546875,0.028974165549874305,0.003835869816729973,-0.0036912466002162543
1772795144248406300,3.13740625,0.02882452794611454,0.004451159591549367,-0.017894507465092465
1772795144258451200,3.147451171875,0.032415830436348915,0.019427603350463323,-0.009978866369184106
1772795144268495000,3.1574951171875,0.02388707154393196,0.003785286411207926,0.008452679715212434
1772795144278539300,3.167539306640625,0.02373626489639282,-0.00900968797688838,-0.008501569491392
1772795144288584200,3.177584228515625,0.021194179198145865,0.0012627385283703915,-0.006468355763889849
1772795144298628000,3.187628173828125,0.011319850915670395,0.0023474818644099284,0.006516149561526253
1772795144308672300,3.19767236328125,0.013715221619606017,0.006489807831405778,0.0025501594068482515
1772795144318717200,3.20771728515625,0.012666589349508284,0.005013030972599517,-0.01322741983635351
1772795144328761000,3.217760986328125,0.015508534777164459,0.0040206854776144605,-0.010152588101429863
1772795144338805200,3.22780517578125,0.021944120782613753,-0.007582319771603215,-0.0028967352216597644
1772795144348850400,3.237850341796875,0.03301671893894672,0.009674440062511712,0.006053674015775322
1772795144358894300,3.247894287109375,0.009074117815494536,0.008738804892680491,0.005238412110134959
1772795144368938500,3.2579384765625,0.011169044268131256,0.011101788859843508,0.00630512802619487
1772795144378983400,3.2679833984375,0.015807225462794304,-0.0028128723135101607,-0.010640654746163635
1772795144389027300,3.27802734375,0.021792729613184927,0.01461911165677011,-0.002434716333635151
1772795144399071500,3.288071533203125,0.02328969017267227,0.0006630467544266139,-0.01060575696271844
1772795144409115400,3.298115478515625,0.03645779930353164,-0.011235248222004156,-0.008982046484714373
1772795144419160300,3.308160400390625,0.020445991179347037,0.009995567483879858,-0.00869362146477215
1772795144429204500,3.31820458984375,0.020445406657457352,-0.007949744865731918,0.005324574289936572
1772795144439248400,3.328248291015625,0.018947277054190633,0.003970034429666702,-0.0043878048964776095
1772795144449293300,3.338293212890625,0.03420972811579704,-0.0008132332036911975,-0.00562413262524642
1772795144459337500,3.34833740234375,0.019992986714839935,0.00786037295293645,-0.010641147936508059
1772795144469381400,3.35838134765625,0.021038696375489233,-0.008648960909960441,-0.012520760271186008
1772795144479426300,3.36842626953125,0.021040449941158293,-0.007737135873979423,0.0032958814739249644
1772795144489470500,3.378470458984375,0.012661913174390792,0.00024474627924209923,-0.008591056139441207
1772795144499514400,3.388514404296875,0.018796470406651496,0.003254689805366797,-0.018501597379613665
1772795144509559300,3.398559326171875,0.022986323311924933,-0.006873169138538651,0.0030184071062598376
1772795144519603500,3.408603515625,0.03166530432999134,0.009145080713697825,-0.019569473206298423
1772795144529647400,3.4186474609375,0.02104278802871704,0.00890080022533657,-0.006567916281381621
1772795144539692300,3.4286923828125,0.033762568870186804,0.003056386758535518,-0.00473443551021628
1772795144549736400,3.438736328125,0.036605098819732666,-0.0001940958021164988,-0.004174929330777377
1772795144559780400,3.4487802734375,0.019696634116768835,-0.006323675750571419,-0.00413309948304668
1772795144569824500,3.458824462890625,0.010870353582501411,-0.011038447008270304,-0.012822254835255443
1772795144579869400,3.468869384765625,0.026432664373517035,0.010671031618118285,-0.0003951276642736047
1772795144589913300,3.478913330078125,0.009222586375474929,-0.004885894036659738,0.011148540336219594
1772795144599957500,3.48895751953125,0.016108254235982895,-0.006350745278943214,0.010851584949949755
1772795144610002400,3.49900244140625,0.029126141241192817,-0.0018854404289100784,-0.012818729437608272
1772795144620046300,3.50904638671875,0.026284195813536644,-0.0007612712626578285,-0.009013236207421869
1772795144630090500,3.519090576171875,0.018654431587457655,0.014642938915285049,-0.0016896975194569677
1772795144640135400,3.529135498046875,0.012668927437067032,0.012280630230734823,0.0028105273760855197
1772795144650179300,3.539179443359375,0.023593641555309294,-0.008540396814572158,0.004240898105921224
1772795144660223500,3.549223388671875,0.01626315253674984,0.0053186811219784426,-0.011232081300672143
1772795144670268400,3.559268310546875,0.03526712821424007,0.0005394029646820854,-0.00824438899308443
1772795144680312300,3.569312255859375,0.02853343604505062,0.007040551319898804,0.009733759901160374
1772795144690356500,3.5793564453125,0.008480243575572966,0.0033508584975963456,-0.011327431433927266
1772795144700401400,3.5894013671875,0.011023498317599295,-0.004647332900909532,0.0016428718362003563
1772795144710445300,3.5994453125,0.017607552883028982,-0.017455697064363628,-0.004037429689383134
1772795144720489500,3.609489501953125,0.01536123526096344,-0.002800151541721425,-0.008954738352680578
1772795144730533400,3.619533447265625,0.02329144373834133,0.0011972792120024678,-0.0191828302425798
1772795144740578300,3.629578369140625,0.02418810031712055,-0.007517714119772426,-0.0041473563372623175
1772795144750622500,3.63962255859375,0.01760170766413212,-0.0030065131703668154,-0.007600866925157606
1772795144760666400,3.649666259765625,0.02373626489639282,-0.00008221151964680757,-0.002697157528949901
1772795144770711300,3.659711181640625,0.012514613658189773,0.011404993607098003,-0.00006425174209289253
1772795144780755500,3.66975537109375,0.01999707836806774,-0.007545697534419014,-0.00600532309571281
1772795144790799400,3.67979931640625,0.039897710624337196,-0.007397111955896252,-0.006252968580694869
1772795144800844500,3.689844482421875,0.023439327776432036,0.0005282336875185137,-0.004171705327229574
1772795144810888400,3.699888427734375,0.022842530927062035,0.004073071539511147,0.0020647139774635434
1772795144820932400,3.709932373046875,0.023590134423971176,0.0008942682588705792,-0.004389942054636776
1772795144830977500,3.7199775390625,0.017452070060372353,-0.00634543948698556,-0.0013067534833215177
1772795144841021200,3.730021240234375,0.007425766086578369,-0.009162448548674,-0.004919235758902505
1772795144851065300,3.7400654296875,0.020444822135567663,0.008553230609148157,-0.02119982348764315
1772795144861110500,3.750110595703125,0.024039047235250473,0.00974774276074022,-0.0033488903027959166
1772795144871154400,3.760154541015625,0.03226969996392727,-0.004176236513518961,-0.007211109555745497
1772795144881198300,3.7701982421875,0.007281389179825782,-0.00618515719162533,-0.009975322705227881
1772795144891242500,3.780242431640625,0.034815877315402026,-0.010538304049964062,0.008220944185415283
1772795144901287400,3.790287353515625,0.03436696450412273,-0.009607444949127965,-0.017245057979878037
1772795144911331300,3.800331298828125,0.02448912909030914,0.01013123478614725,-0.008193389458209275
1772795144921375500,3.81037548828125,0.02433890696465969,0.0009835125929137576,-0.0001836403380613774
1772795144931420400,3.82042041015625,0.01760463027358055,-0.015537502860033418,-0.016677341094519942
1772795144941464300,3.83046435546875,0.023739187505841253,0.006905362937421887,0.0011005725198891014
1772795144951508500,3.840508544921875,0.025085925939679145,-0.003225483975069073,-0.0011375069967936723
1772795144961553400,3.850553466796875,0.03615852409601211,-0.018565524894720874,0.00047209275746718047
1772795144971597300,3.860597412109375,0.014757424148917198,-0.0030600037731390328,0.00715668508792296
1772795144981641500,3.870641357421875,0.02687807005345821,0.006009330267261248,-0.009149849932827055
1772795144991686400,3.880686279296875,0.03316168036758899,0.005141647479572566,-0.006230491887405514
1772795145001730600,3.89073046875,0.028372108003497123,-0.0001091386278902064,-0.002586838155426085
1772795145011774200,3.900774169921875,0.02523030284643173,0.001902154672515462,-0.019297643128130582
1772795145021818400,3.910818359375,0.030618425625562665,0.014447342136304359,-0.008777673885878174
1772795145031863600,3.920863525390625,0.03420914359390735,0.00456538053452241,-0.007283352808048948
1772795145041907200,3.9309072265625,0.027324644777178764,0.004471712614166608,-0.012156210408266633
1772795145051951400,3.940951416015625,0.01625087757706642,0.003118813867600693,-0.011923598095634952
1772795145061996500,3.95099658203125,0.033010873720049856,0.003935834476309537,-0.00424361065281555
1772795145072040200,3.961040283203125,0.027626842594146727,-0.017518213507096515,-0.006898792203562334
1772795145082084400,3.97108447265625,0.03391220647394657,-0.003990328869846417,-0.006088425668748096
1772795145092129500,3.981129638671875,0.02897475007176399,-0.005532142351212678,-0.012940191259654238
1772795145102171400,3.99117138671875,0.028973581027984616,-0.005518624711691518,-0.013018371062399819
1772795145112216600,4.001216552734375,0.00922083280980587,0.013849989306152565,-0.011128584393579511
1772795145122260200,4.01126025390625,0.026127543947100637,0.0027749283376193486,-0.010821135012758895
1772795145132304400,4.021304443359375,0.020589783564209936,-0.0065421722020604645,-0.01807472287020646
1772795145142349600,4.031349609375,0.01220890870988369,0.005450537615519715,-0.013962593109952286
1772795145152393200,4.041393310546875,0.021038111853599547,0.002756207083306799,-0.015144176710490136
1772795145162437400,4.051437255859375,0.011012392401695251,-0.008011242390912957,-0.002711953239282593
1772795145172482600,4.061482666015625,0.015199907219409942,-0.00881998721997661,-0.018858247063867746
1772795145182526500,4.0715263671875,0.011611527338624,0.0004496020790349575,-0.00553012506570667
1772795145192570400,4.0815703125,0.024929858595132828,-0.0035722615755134027,-0.011625263603031635
1772795145202614300,4.0916142578125,0.01026478890478611,-0.0096441020064638,-0.002972558670537546
1772795145212659500,4.101659423828125,0.014155366602540015,0.008259875398228178,0.0007652578846085816
1772795145222703400,4.111703369140625,0.02028992383480072,0.007897677893421495,-0.009005975349573418
1772795145232747300,4.121747314453125,0.010413257464766502,0.008184661016592872,0.010720588114578277
1772795145242792400,4.13179248046875,0.01879062518775463,-0.0056744448902434665,0.012350152944633737
1772795145252836400,4.14183642578125,0.01744505579769611,-0.005562785226292908,-0.005228219509683549
1772795145262880300,4.15188037109375,0.00831540840268135,0.005391286275530001,-0.003694653266854584
1772795145272925400,4.161925537109375,0.009810030874609946,-0.00396874579864525,-0.003358352250885218
1772795145282969600,4.171969482421875,0.03075812635719776,-0.009794456562853883,-0.00462928550215438
1772795145293013200,4.18201318359375,0.02716565482318401,0.002032765632108203,-0.006210535944765433
1772795145303058400,4.192058349609375,0.01923369278013706,-0.004890253976301755,-0.015117562698200344
1772795145313102600,4.2021025390625,0.03165302937030792,-0.0013312855644959198,-0.017545018173987046
1772795145323146200,4.212146240234375,0.019234861823916434,-0.0045591931077418844,-0.015360742070619016
1772795145333191400,4.22219140625,0.016841244685649872,-0.001227922515199316,-0.005300407963059842
1772795145343235600,4.232235595703125,0.016243278792500496,0.00103404034327541,-0.012720118768187239
1772795145353278700,4.24227880859375,0.011155600264668464,-0.000676609488898248,-0.013165643179137258
1772795145363323600,4.25232373046875,0.02926233484148979,-0.007478085362282581,-0.0034100733049679545
1772795145373367600,4.262367431640625,0.011456044515967368,-0.004222009029894252,-0.012034629855211823
1772795145383411700,4.27241162109375,0.02851414682269096,0.003743759670043073,-0.01119172189082019
1772795145393455600,4.28245556640625,0.016693360647559163,-0.008404702112841186,-0.005628370408946648
1772795145403500500,4.29250048828125,0.035846973928809166,0.0022128717247789607,-0.025202127064717934
1772795145413544700,4.302544677734375,0.027319384080171583,0.009931506396387704,-0.006070917411521077
1772795145423588900,4.3125888671875,0.011160860961675644,-0.0003081943037366727,-0.008636794977309181
1772795145433633500,4.322633544921875,0.024628829821944236,-0.011173462431633379,-0.015160187130374833
1772795145443679500,4.332679443359375,0.01999181767106056,-0.006182508576812688,-0.011600549286883324
1772795145453723600,4.3427236328125,0.030915947267413136,0.002077411916365963,0.0013040409364271908
1772795145463767800,4.352767822265625,0.017149872243404387,-0.008086773578845895,-0.012592930458253248
1772795145473812500,4.3628125,0.029119711500406265,-0.004775025246808945,0.005754654536582529
1772795145483856600,4.372856689453125,0.020590368086099622,0.017818475095304893,-0.010416207473678513
1772795145493900800,4.38290087890625,0.02343406707942486,0.0008560588506763452,-0.009617841903911902
1772795145503945500,4.392945556640625,0.019691957941651343,0.0031994835965990205,-0.004926058225333691
1772795145513989600,4.40298974609375,0.019992986714839935,0.003730824839945126,-0.004967075222311541
1772795145524033500,4.413033447265625,0.02567863113582134,0.003312548624702322,-0.00829617397924885
1772795145534077700,4.42307763671875,0.02941606409847736,-0.0024779378457868003,-0.005666136002913117
1772795145544122600,4.43312255859375,0.02941781766414642,0.00857707327986136,-0.002561886377260089
1772795145554166500,4.44316650390625,0.031214053431153296,0.023357508411607705,0.0012204360398929566
1772795145564210700,4.453210693359375,0.028220716834068297,0.005284229721460724,-0.0009312529681250452
1772795145574255600,4.463255615234375,0.016847674426436424,0.0035496239103755215,-0.021158751691738142
1772795145584299500,4.473299560546875,0.022833763098716736,0.01162860633758828,0.000280944966385141
1772795145594343700,4.48334375,0.022685294538736342,0.0015010111135197802,0.007679549051402136
1772795145604388600,4.493388671875,0.03450549619197845,0.0006873594971868442,0.005809435197431594
1772795145614432500,4.5034326171875,0.02178746891617775,-0.002371544301653921,-0.013411133239651098
1772795145624476700,4.5134765625,0.02358604277074337,0.007098470360971987,-0.00587863710927777
1772795145634521600,4.523521484375,0.01520692148208618,0.006104271691851317,-0.015122266272781416
1772795145644565500,4.5335654296875,0.011766425639390945,0.004519735596899409,-0.017299007523665203
1772795145654609700,4.543609619140625,0.005929974570870399,0.0019006154505666927,-0.015687709002662448
1772795145664654800,4.55365478515625,0.027476620468497276,0.009334630202737752,-0.010062708727736026
1772795145674698500,4.563698486328125,0.013262217155098914,-0.011581868560943984,0.0019600571597460656
1772795145684742700,4.57374267578125,0.03510813826024532,-0.0011724173383263405,-0.006476045880001038
1772795145694786600,4.58378662109375,0.035108722782135005,0.0006307493513217195,0.0005810330246575177
1772795145704831500,4.59383154296875,0.04019581678807735,0.010645540983835234,-0.007827469622110948
1772795145714875600,4.603875732421875,0.014756255105137825,0.006384248543856665,-0.012693641753215343
1772795145724919600,4.61391943359375,0.005928805527091026,0.0042653438502442435,-0.013678223210619761
1772795145734964700,4.62396484375,0.018650339934229848,0.0003322179250739282,-0.000031710312515497204
1772795145745008600,4.634008544921875,0.017603461229801175,-0.008371475696674315,0.0028375797797925767
1772795145755052500,4.644052490234375,0.021942367216944692,-0.010546587821119464,0.014621239681774749
1772795145765097700,4.65409765625,0.029125556719303128,-0.010871664190175942,-0.013318632650608196
1772795145775141600,4.6641416015625,0.02583469848036766,0.000020205106512003113,-0.007711378094926476
1772795145785185500,4.674185546875,0.013113748595118522,-0.005011034236691194,0.007448005317850038
1772795145795230700,4.684230712890625,0.016555998003482817,0.0038655625583283834,0.0050974327368661755
1772795145805274600,4.694274658203125,0.02418985388278961,0.0008036510975376586,-0.001963719554711133
1772795145815318500,4.704318603515625,0.019850363373756407,-0.009955590524873695,-0.004657041158759966
1772795145825363700,4.71436376953125,0.03601180910170078,-0.007509405232442077,-0.0014433032766450196
1772795145835407600,4.72440771484375,0.017606968361139296,0.002104262534440204,0.0017104845791589467
1772795145845451500,4.734451416015625,0.01670972726047039,-0.00064785261022771,-0.013794040743168442
1772795145855496700,4.74449658203125,0.01880290014743805,0.006754052253917325,0.0017941716740839182
1772795145865540900,4.754540771484375,0.02134557036757469,-0.0033383369427407157,0.003071552932448685
1772795145875584500,4.76458447265625,0.027031799310445782,-0.00363629754683061,0.015200656138081102
1772795145885628700,4.774628662109375,0.022994506618380546,0.011913334713235963,-0.013785601708386093
1772795145895673900,4.784673828125,0.018805238234996795,-0.0006868429031339474,-0.012704071815684437
1772795145905717500,4.794717529296875,0.02748305020928383,-0.009424132262985222,-0.009803957326849922
1772795145915761700,4.80476171875,0.02030044522881508,0.006494990896599483,-0.016677131031965838
1772795145925806800,4.814806884765625,0.02030044522881508,0.004347361004946287,-0.01817779965219088
1772795145935850500,4.8248505859375,0.02419160744845867,-0.014541025468858423,-0.017851983497617765
1772795145945894700,4.834894775390625,0.020299860706925393,-0.0005575111559970537,-0.01133450962868519
1772795145955939800,4.84493994140625,0.02104980229139328,0.002294043491865159,0.004337773475982249
1772795145965983700,4.854983642578125,0.037359716579318046,-0.00518691424751596,-0.006752798728458583
1772795145976027600,4.865027587890625,0.033171617239713666,0.0032027295767999018,-0.0045450686842668795
1772795145986072800,4.87507275390625,0.028832126730680464,-0.0032310954422922803,-0.01953266659355722
1772795145996116700,4.88511669921875,0.01925415104627609,0.002240486816428165,-0.01510187193872407
1772795146006160600,4.89516064453125,0.02479074238538742,0.008922849943651816,-0.005555186441726982
1772795146016205600,4.90520556640625,0.01566226403415203,-0.0007666328524814161,0.01477299617738463
1772795146026249700,4.915249755859375,0.014465163204073905,0.004537777572844061,-0.0012485478895250708
1772795146036293600,4.925293701171875,0.03466565518975258,0.004336442604121112,-0.022658022939320652
1772795146046338600,4.935338623046875,0.02389233224093914,-0.0037709810371088677,-0.006926365197077393
1772795146056382700,4.9453828125,0.02733575069308281,-0.0009394511159567627,0.001416990658454597
1772795146066427000,4.955427001953125,0.02359481059908867,-0.007619708622945472,-0.0056089441892690954
1772795146076470500,4.965470458984375,0.015514964517951011,0.003434956869886082,-0.007199775310978293
1772795146086515700,4.975515625,0.014469254857301711,0.009018008851484046,-0.006067255016556009
1772795146096559900,4.985559814453125,0.021502222234010694,0.010133050000609364,-0.023725259445188565
1772795146106603500,4.995603515625,0.0206043966114521,-0.004021782597801939,0.003245174199994653
1772795146116648700,5.005648681640625,0.034820553490519525,-0.005867753814015305,-0.009589382994407787
1772795146126692900,5.01569287109375,0.01881283701956272,0.013564915012277197,-0.016108290768601
1772795146136736500,5.025736572265625,0.01073182189464569,-0.0030421658661158287,-0.0008857241928111762
1772795146146781700,5.03578173828125,0.021204116070270538,-0.01605044707605266,0.007063325982354581
1772795146156825900,5.045825927734375,0.02988368161022663,-0.013147981941571924,0.01757370541235432
1772795146166869800,5.055869873046875,0.013872458007931708,-0.00952914127797412,-0.012225868977839126
1772795146176914700,5.065914794921875,0.01522095000743866,-0.006419454571267124,-0.005230712860869243
1772795146186958600,5.07595849609375,0.01956044051647186,-0.0016482718138140626,-0.005082600493915379
1772795146197002800,5.086002685546875,0.02180558909475803,-0.0041675737164507155,-0.017608895456744357
1772795146207047700,5.096047607421875,0.02868891886770725,0.005037985034054145,-0.012063600221369415
1772795146217091600,5.106091552734375,0.020310966622829437,-0.008051996809698175,-0.014486416054656729
1772795146227135700,5.1161357421875,0.014476853641867637,-0.008322792558115907,-0.025298883703770113
1772795146237180700,5.1261806640625,0.014776128849387168,-0.00038454890263237755,-0.011809369731973857
1772795146247224600,5.136224609375,0.020014614024758338,-0.004468398706128937,-0.01280906656011939
1772795146257268700,5.146268798828125,0.026450784552097317,-0.00010088396866485708,0.0004949804427102208
1772795146267312600,5.156312744140625,0.007897475251555442,0.002143048758424993,-0.011812685067066921
1772795146277357600,5.166357666015625,0.02031856540739536,0.003095867673086468,-0.00574656256167218
1772795146287401700,5.176401611328125,0.019270517659187317,-0.0003581669295497704,-0.009059650898724793
1772795146297446000,5.18644580078125,0.0233101484388113,-0.009374600882700179,-0.013163305091578512
1772795146307490600,5.196490478515625,0.023310732960700988,0.002481599955340789,-0.0029312585457693784
1772795146317534700,5.20653466796875,0.028398411488533018,-0.0051467489171976915,0.004419350812211633
1772795146327578600,5.21657861328125,0.017625673061609268,-0.005952851410492439,-0.011996553733991458
1772795146337623600,5.22662353515625,0.01957271547615528,-0.0008469799242549925,-0.008411854514479636
1772795146347668500,5.23666845703125,0.015683306822180748,0.005992195327725494,0.003932316213939338
1772795146357712400,5.24671240234375,0.024361118796467778,-0.002919144557934487,-0.018576443580957128
1772795146367757300,5.25675732421875,0.024512509965896604,0.002312978519075841,-0.019236304862331598
1772795146377801500,5.266801513671875,0.023766660034656523,0.005637109696184052,-0.0008070877323392778
1772795146387845600,5.276845703125,0.013441665375232696,0.0175251878122217,0.0035353345192968844
1772795146397890300,5.286890380859375,0.02795534389615059,-0.008004180179175455,-0.018824792318837717
1772795146407934500,5.2969345703125,0.03019990795254707,-0.008551215036108624,-0.003283369052223861
1772795146417978600,5.306978515625,0.02301788749396801,0.003514871115758433,-0.011323431112244724
1772795146428023300,5.317023193359375,0.02002455089688301,0.004423683066978992,-0.0033038273183628917
1772795146438067500,5.3270673828125,0.03693418464362621,0.011864870770386187,0.001093786586076021
1772795146448111400,5.337111328125,0.00865092396736145,0.0019457018387081914,-0.006794318048935383
1772795146458155500,5.347155517578125,0.022866496324539184,-0.006619737800164148,-0.003515816968074068
1772795146468200400,5.357200439453125,0.0352875864803791,0.008173980934018618,-0.0030037118606269357
1772795146478244400,5.367244384765625,0.021970424267649648,0.006799595870607299,-0.0035345582011621444
1772795146488288500,5.37728857421875,0.022719196808338164,0.002545556011555891,-0.005168707874789834
1772795146498333400,5.38733349609375,0.02795651293992996,-0.0022084110350260745,-0.0012776552530005573
1772795146508377300,5.39737744140625,0.028705285480618476,0.0078102479176071936,-0.0029962135407608
1772795146518421500,5.40742138671875,0.01134790796637535,-0.003439359621189942,0.0028597002800554035
1772795146528466400,5.417466552734375,0.02032733323574066,0.00195451590364828,-0.00934343627616763
1772795146538510300,5.42751025390625,0.018381459864974022,0.0002689879546436714,-0.004722982534440234
1772795146548554500,5.437554443359375,0.008504793494939803,0.015536856689350679,0.00016033252771012485
1772795146558599400,5.447599365234375,0.0240682733297348,-0.006810250837006606,0.015978280313918364
1772795146568643300,5.457643310546875,0.02107552125453949,-0.00020571146220754597,-0.010678840465238317
1772795146578687500,5.4676875,0.017182605469226835,0.0023157036240576416,-0.004711483892891556
1772795146588732400,5.477732421875,0.02945230445563793,0.0023028187408985104,-0.005788191480003297
1772795146598776300,5.4877763671875,0.017482465198636055,0.011027822866267524,-0.00689597005881369
1772795146608820500,5.497820556640625,0.01568622943162918,0.004405519220503629,-0.00711080925273709
1772795146618865400,5.507865478515625,0.020623101311922073,-0.011424955257959663,-0.0062719107431825245
1772795146628909300,5.517909423828125,0.02376724455654621,0.007288784751703497,-0.004059586722264066
1772795146638953500,5.527953369140625,0.01329202777147293,-0.008066777678654762,0.00022648396594449876
1772795146648997400,5.537997314453125,0.020023966374993322,-0.007443949055596022,-0.018299864262435583
1772795146659042300,5.548042236328125,0.02840191861987114,0.0022193003239211976,-0.0006103687169961631
1772795146669086500,5.55808642578125,0.016881576696038247,0.007835700877627824,-0.0015514854920096694
1772795146679130400,5.56813037109375,0.02570961079597473,0.0051732407735456945,-0.0077131316605955355
1772795146689175300,5.57817529296875,0.011495792004466055,0.010873948620451846,-0.00791015207003802
1772795146699219500,5.588219482421875,0.005659925457835197,-0.005538893464874127,0.001236291196150705
1772795146709263400,5.598263427734375,0.026910218757390976,-0.0051690012773789925,-0.0031411567030940205
1772795146719308300,5.608308349609375,0.026013562178611754,-0.009491668515774654,0.006070935677830129
1772795146729352400,5.6183525390625,0.02391980476975441,-0.008610730095935286,-0.0025440949922427535
1772795146739396400,5.628396240234375,0.023621114084124564,0.0027282022628292903,-0.015341936905449256
1772795146749441300,5.638441162109375,0.021973346877098083,-0.0015544433497263524,-0.004990273434808477
1772795146759485400,5.6484853515625,0.03499240292608738,0.004959592885465826,-0.007822218058258295
1772795146769529300,5.658529296875,0.017784663015604017,0.01137088013329776,-0.020333726443909107
1772795146779574300,5.66857421875,0.02362228312790394,0.0079518072461884,-0.008253165954584255
1772795146789618400,5.678618408203125,0.015840543210506437,-0.011865321719890925,-0.010977028827369213
1772795146799662300,5.688662353515625,0.01613806485235691,-0.011163581500080181,-0.011101860783435403
1772795146809707500,5.69870751953125,0.02810848863124847,0.007386516925823525,-0.001563148530339822
1772795146819751400,5.70875146484375,0.011498714613914489,-0.011145551511400844,0.006678637513704597
1772795146829795300,5.71879541015625,0.036787469649314876,-0.018078034780366577,-0.002324990615155548
1772795146839839500,5.728839599609375,0.04097498446702957,0.005699067874846514,-0.0012791074245702475
1772795146849884400,5.738884521484375,0.018379706299304962,0.0005440956936421571,-0.004420328059745952
1772795146859928300,5.74892822265625,0.02137304289638996,-0.004729241313990496,-0.02500400154357776
1772795146869972500,5.758972412109375,0.022419921600818633,-0.00617025816248206,-0.005473736969660967
1772795146880017400,5.769017333984375,0.002217091527581215,-0.0030768615785171276,0.006527629936765879
1772795146890061300,5.779061279296875,0.015831190860271453,-0.0014321357119479216,-0.002801576884649694
1772795146900105500,5.78910546875,0.02885024690926075,0.007833140169427497,-0.019351903199171645
1772795146910150400,5.799150390625,0.0194236623942852,0.0038075327777565685,-0.009883616700628772
1772795146920194300,5.8091943359375,0.016727847439050675,0.010029331614519469,-0.011860177470603956
1772795146930238500,5.819238525390625,0.02914601498544216,-0.003314577326651488,-0.0040347445419523864
1772795146940283400,5.829283447265625,0.008643909704685211,-0.006859634945174911,-0.012213931944873184
1772795146950327300,5.839327392578125,0.00924304464161396,-0.008028481220081448,-0.003963396338792518
1772795146960371500,5.849371337890625,0.026001287218928335,0.002671567000789218,-0.004337883073836565
1772795146970416400,5.85941650390625,0.023905191722512244,-0.002969887508249667,-0.004259730670554563
1772795146980460300,5.869460205078125,0.011486439654231071,0.0007171461390302283,0.007033204838726669
1772795146990504400,5.87950439453125,0.02570142748951912,0.008833954096536036,0.001612138771219179
1772795147000549400,5.88954931640625,0.03198562232553959,-0.005234112677641678,-0.0027786617999430744
1772795147010593500,5.899593505859375,0.00789279907643795,0.004445834391638345,-0.003893555106129497
1772795147020637400,5.909637451171875,0.021957564786076543,0.007943548591207945,-0.0002483213384170085
1772795147030681300,5.919681396484375,0.02165712053477764,0.004099492613911571,0.002374273116979748
1772795147040726500,5.9297265625,0.016868717214465142,-0.0007618904619936074,-0.017523399997223167
1772795147050770400,5.9397705078125,0.024798341169953345,0.0006985411897323502,-0.008010516305128113
1772795147060814300,5.949814453125,0.020458850660920142,0.007878051315166522,-0.007129212559107691
1772795147070859500,5.959859619140625,0.02599544200003147,-0.001183223715303029,-0.008457492887647822
1772795147080903400,5.9699033203125,0.029886604219675064,-0.0029887123667838747,-0.002749508770694956
1772795147090947300,5.979947265625,0.01701952386200428,0.0012639433912401726,0.0017038082432001829
1772795147100992500,5.989992431640625,0.02509820089936256,0.0006531933650425343,0.011617509554838762
1772795147111036400,6.000036376953125,0.020908347994089124,-0.025082108281087128,-0.0032030246918555347
1772795147121080300,6.010080322265625,0.014624153158068656,0.011567453018168453,-0.0031665377395227547
1772795147131125500,6.02012548828125,0.02479892569184303,0.007644058754557045,0.0038475422736257313
1772795147141169400,6.03016943359375,0.0179161804407835,-0.010101433302927761,-0.00031743191871792077
1772795147151213300,6.04021337890625,0.0318324775904417,0.0015261280019949481,-0.0039041769648436456
1772795147161258500,6.050258544921875,0.02000935332775116,-0.006304618282007868,-0.012554945668578147
1772795147171302400,6.060302490234375,0.026143326038122177,-0.004101519317983184,-0.021781477566808462
1772795147181346300,6.07034619140625,0.018958967491984367,-0.010745431436534272,0.0014657708367798476
1772795147191391500,6.0803916015625,0.018957213926315306,-0.004382492254654062,0.003737286832183599
1772795147201435400,6.090435302734375,0.015814824247360228,0.0023872949974567746,-0.013903647730639204
1772795147211479600,6.1004794921875,0.027485388296842574,-0.0013043877108881133,-0.02310903637614101
1772795147221523500,6.1105234375,0.030476971328258513,-0.008249352862569503,-0.0039073005036916585
1772795147231568400,6.120568359375,0.025387539234757422,-0.006022770845791092,-0.004601411114539951
1772795147241612500,6.130612548828125,0.024641104781627652,-0.002081913848019758,-0.014224413250759243
1772795147251656200,6.14065625,0.027485388296842574,-0.008417110074087394,-0.005174808822013438
1772795147261701400,6.150701416015625,0.0334708924472332,-0.013011214094184105,-0.006660928327077999
1772795147271745500,6.16074560546875,0.021797990310192108,-0.009017728577804519,-0.007803951749205589
1772795147281789200,6.1707890625,0.029129648372530934,-0.011791790692799259,-0.015152926272526382
1772795147291834400,6.18083447265625,0.027485388296842574,0.0040898574212973465,-0.01369698271001689
1772795147301878500,6.19087841796875,0.013420622587203978,-0.007150624098250409,-0.007635225852485746
1772795147311922400,6.20092236328125,0.030029227560758587,-0.005393567280872958,-0.00832242266535759
1772795147321967400,6.21096728515625,0.04035363769829273,0.005422941218296182,-0.009712963708303868
1772795147332011500,6.221011474609375,0.021498715102672577,0.004070865597281954,-0.011683313933201133
1772795147342055400,6.231055419921875,0.012522212442755698,-0.004707667661354935,-0.025340731817809863
1772795147352100400,6.241100341796875,0.028532851523160933,0.008902153073850786,0.0012738284612540155
1772795147362144300,6.251144287109375,0.03436637998223305,0.005674226265356992,-0.002169261197326705
1772795147372188400,6.2611884765625,0.02852817534804344,0.003956350110075437,-0.01205900624464266
1772795147382233300,6.2712333984375,0.01775543692111969,-0.0033258179565847966,-0.01334944791398011
1772795147392277200,6.28127734375,0.023290859216451642,0.002075944047186931,-0.006239013120578602
1772795147402321400,6.2913212890625,0.00668283876478672,-0.012298254935682052,-0.005975612944038584
1772795147412365300,6.301365234375,0.01910509796440601,0.002451187407001271,-0.004022423916496336
1772795147422410200,6.31141015625,0.021498715102672577,-0.0008785515269861206,-0.015701938457414508
1772795147432454400,6.321454345703125,0.01760638383924961,-0.004917914305606973,-0.010309924954455344
1772795147442498300,6.331498291015625,0.023439912298321722,-0.0033896521422691873,-0.01763086982653476
1772795147452543200,6.341543212890625,0.02119476372003555,-0.002641720993441413,0.006281555354362353
1772795147462587400,6.35158740234375,0.020295769053697586,-0.016475098803977014,-0.00220112677346915
1772795147472631300,6.36163134765625,0.026280104160308838,-0.005750669056276092,-0.022163636151654644
1772795147482676200,6.37167626953125,0.025383447581529616,-0.0036452503215550678,-0.005932888047164305
1772795147492720400,6.381720458984375,0.034063597643375396,-0.00045749084125709487,0.005354156577447429
1772795147502764300,6.391764404296875,0.02463701312839985,-0.0037384867003594988,-0.005814586296584457
1772795147512809200,6.401809326171875,0.016705051085352897,-0.011554195102729136,-0.018612309478782115
1772795147522853400,6.411853271484375,0.028376784178614615,-0.0006032843859000422,-0.015185531634185461
1772795147532897300,6.421897216796875,0.026129297512769697,0.012532329694682267,-0.0002507050917483866
1772795147542942200,6.431942138671875,0.009070026162266731,-0.004356616886236588,0.020951063757808877
1772795147552986400,6.441986328125,0.014307926815748214,0.0002517131636792328,-0.012068358594877645
1772795147563030300,6.4520302734375,0.013111995029449462,-0.009690616020822199,-0.0043521125285886225
1772795147573075200,6.4620751953125,0.030919454398751257,-0.005200004912063013,-0.010030149031849577
1772795147583119400,6.472119384765625,0.030471126109361646,0.003719528840262501,0.007539446460967883
1772795147593163300,6.482163330078125,0.017153963896632193,0.004554482968705997,-0.015012878481019287
1772795147603207400,6.49220751953125,0.011468319475650787,-0.004992803318612277,-0.007334872932732105
1772795147613252400,6.50225244140625,0.015209844091534613,-0.000022149754898418902,0.0030260972223710267
1772795147623296300,6.512296142578125,0.02523556354343891,0.017663168085872892,-0.01091831177691929
1772795147633340400,6.52234033203125,0.021046879681944845,0.004731099054703372,-0.0154787789597176
1772795147643385000,6.532385009765625,0.025237901630997657,-0.010399335112335392,-0.023028162292810156
1772795147653429200,6.54242919921875,0.035414427730441095,0.0010543927219041505,-0.009007957244105637
1772795147663473400,6.552473388671875,0.018954291316866875,-0.008271217634505591,-0.009040133347501977
1772795147673518000,6.56251806640625,0.03301905702650547,0.007530635250138584,-0.014316329317912458
1772795147683562200,6.572562255859375,0.03137304338514805,-0.007278510523683507,0.004682038602698594
1772795147693606400,6.5826064453125,0.024938041901588437,-0.010462320770882069,-0.008701475977664812
1772795147703651000,6.592651123046875,0.027330489996075628,0.008622826388283282,0.008559455424780026
1772795147713695200,6.6026953125,0.01849777972102165,0.018203941023733933,-0.011474667018046602
1772795147723739400,6.612739501953125,0.02104103446304798,-0.005082428105623694,-0.017933853094791993
1772795147733784300,6.622784423828125,0.019096330136060713,-0.012394727305299601,-0.0032299583645537494
1772795147743828200,6.632828125,0.02164016939997673,0.0001705305509720347,-0.0023392018035985527
1772795147753872400,6.642872314453125,0.02119184111058712,0.008290738039839197,-0.012042338237632065
1772795147763917300,6.652917236328125,0.018947861576080322,0.008818455133304814,-0.010184143150318414
1772795147773961200,6.662961181640625,0.010118658432364463,0.0005505093087027489,-0.00591006429400295
1772795147784005400,6.67300537109375,0.028074001839756963,-0.010457378592638997,0.00627602979587391
1772795147794049300,6.68304931640625,0.02687514744400978,-0.006004740857111755,0.003637552784755826
1772795147804094200,6.69309423828125,0.011461889734864235,-0.0038578473260422468,-0.0037490686015225943
1772795147814138000,6.70313818359375,0.02163490870296955,-0.008717705593258141,-0.007193035042937845
1772795147824182300,6.713182373046875,0.031059739652276038,0.009284335062405443,-0.01824320217175409
1772795147834227200,6.723227294921875,0.02282791787981987,0.002477379010894219,-0.023318404810503124
1772795147844271000,6.73327099609375,0.020285247659683227,-0.010694264079944695,-0.003646859469218179
1772795147854315300,6.743315185546875,0.018639234018325804,0.005494356778470683,-0.009634318114677444
1772795147864360400,6.7533603515625,0.03210778740048408,0.0002660185377782909,0.0012133852445986122
1772795147874404000,6.763404052734375,0.02671908009946346,0.001495414344967139,-0.011755246658250689
1772795147884448300,6.7734482421875,0.01624386331439018,0.010998146963922772,-0.008062072962429374
1772795147894493400,6.783493408203125,0.015344868648052215,0.011370050157880177,-0.008568798641860484
1772795147904537000,6.793537109375,0.013547463837265968,-0.0015895634684020478,-0.008251147527433932
1772795147914581200,6.803581298828125,0.01818447598814964,0.0036221816856879738,-0.0020700020739343014
1772795147924626400,6.81362646484375,0.02357201424539089,-0.0008792396530974656,0.00020555077577009796
1772795147934670300,6.82367041015625,0.04422200356423855,0.001990138203117385,-0.003548604992823675
1772795147944714200,6.83371435546875,0.024469255346059798,-0.00991960475439555,-0.022747692250460385
1772795147954759400,6.843759521484375,0.028209610918164253,0.008642744085838785,-0.014541689905850216
1772795147964803300,6.85380322265625,0.027014263653755186,0.003116977247307659,-0.017424798460956663
1772795147974847200,6.86384716796875,0.016394085440039632,-0.003113373361613776,0.004686851775133982
1772795147984891100,6.87389111328125,0.017891630521416662,-0.005942629698110977,0.009559188785543665
1772795147994936300,6.883936279296875,0.010260697251558303,0.0016836526555103772,-0.0010340374891646205
1772795148004980200,6.893980224609375,0.014449965634942054,-0.008481321287807077,-0.008076749941753223
1772795148015024000,6.904024169921875,0.02746902168393135,-0.015718937541276682,-0.010911434511560946
1772795148025069300,6.9140693359375,0.029863807865977286,0.001655827501307067,-0.01848824470769614
1772795148035113200,6.92411328125,0.02597323016822338,-0.0008552616975328419,-0.012348874303000048
1772795148045157000,6.9341572265625,0.03480301783382892,0.002512025918001018,-0.010179001184320077
1772795148055202300,6.944202392578125,0.019690204375982283,0.013188923590024932,-0.009702661509998142
1772795148065246500,6.95424658203125,0.027469606205821034,0.009586052817938616,-0.010705089151347056
1772795148075290000,6.9642900390625,0.02612169872820377,0.006053668878375901,0.0013224077101796864
1772795148085335300,6.974335205078125,0.009959668478369712,0.0019930879266183183,-0.011756096041621639
1772795148095379500,6.98437939453125,0.014299743509292601,-0.006211155857628909,-0.005595582384197041
1772795148105423000,6.994423095703125,0.0202864167034626,-0.0013096419861460163,-0.0069854475737083695
1772795148115468300,7.00446826171875,0.02058452286720276,0.0009794312144847936,0.008638548542978242
1772795148125512400,7.014512451171875,0.011904957327246665,-0.010523828000039794,-0.005327104173740372
1772795148135556000,7.02455615234375,0.024623569124937055,-0.0010469033924870017,-0.012101128353318199
1772795148145601300,7.034601318359375,0.03315232801735401,-0.0038523140614546716,-0.014079196093790233
1772795148155645400,7.0446455078125,0.03060731970965862,-0.0007457878543304105,-0.015038076854357495
1772795148165689300,7.054689453125,0.013999299257993697,0.008237314223259453,-0.018370235218061134
1772795148175734300,7.064734375,0.02088029094338417,0.0028352902121172516,-0.006562609918601811
1772795148185778400,7.0747783203125,0.014442951372265814,0.00826903823550674,-0.022767346799001095
1772795148195822300,7.084822265625,0.015641221246123313,-0.0075383813068212475,-0.022987793749803677
1772795148205866200,7.0948662109375,0.010554127240180969,-0.00512312601301528,-0.012935944342799485
1772795148215911400,7.104911376953125,0.024468670824170112,-0.0011449449522166104,-0.004506599837401881
1772795148225955300,7.114955322265625,0.021475334227085113,-0.016295751048543024,-0.007532021206337958
1772795148235999200,7.124999267578125,0.02551613405048847,-0.0009731470333485049,-0.013956802689982577
1772795148246044400,7.13504443359375,0.022972294786572454,0.0070997866768680975,-0.010815006666071712
1772795148256088300,7.14508837890625,0.01384498547911644,-0.0051091848234529605,-0.013469567162310703
1772795148266132500,7.155132568359375,0.025517303094267845,-0.004296412273243186,-0.008315956391952931
1772795148276177400,7.165177490234375,0.026713819402456283,-0.00010422285017193644,-0.01734421663857065
1772795148286221300,7.17522119140625,0.026264322069287298,0.006151828598292195,-0.008538823628704995
1772795148296265500,7.185265380859375,0.016089549535512924,-0.0027301396332331932,-0.0005926595303695648
1772795148306310100,7.19531005859375,0.018784779968857763,-0.003846766526313149,-0.007652798041794449
1772795148316354300,7.205354248046875,0.01788695434629917,-0.018029941871919437,-0.0018041998777538538
1772795148326398500,7.2153984375,0.021629063484072685,-0.01025607016714639,-0.005768536931462585
1772795148336443100,7.225443115234375,0.022678280276060104,0.008952690813600202,-0.009980428138608112
1772795148346487300,7.2354873046875,0.02417640987932682,0.0012201714638227714,-0.008695585092995315
1772795148356531500,7.245531494140625,0.02417640987932682,0.02024760308001423,-0.004931802979530766
1772795148366576400,7.255576416015625,0.026422142979502676,0.016237691585219,-0.007870002722740172
1772795148376620500,7.26562060546875,0.015498597905039786,-0.000006692604390264023,-0.014147603421192615
1772795148386664400,7.27566455078125,0.019237784433364866,0.0033488774592973637,-0.018314714771695433
1772795148396708600,7.28570849609375,0.009808277308940887,-0.0072139442585816135,-0.004703903374634683
1772795148406753300,7.295753173828125,0.018188567641377447,-0.004872162338829366,-0.0010757029401138425
1772795148416797400,7.30579736328125,0.019234861823916434,-0.00902071397769032,-0.016086773056536913
1772795148426841600,7.315841552734375,0.013548048359155655,-0.01735995192217524,-0.015227480212925
1772795148436886300,7.32588623046875,0.03345160322487354,0.001593370852195221,-0.011366831862553953
1772795148446930400,7.335930419921875,0.015495675295591354,-0.004542844190317555,-0.006093640699982643
1772795148456974600,7.345974609375,0.020734160470962524,-0.006284782782843103,-0.005444182081613689
1772795148467019300,7.356019287109375,0.015048516049981116,0.0011412541588491877,-0.01645880297301337
1772795148477063400,7.3660634765625,0.022979309049248695,-0.006277809619362233,-0.013312568236002699
1772795148487107600,7.376107666015625,0.028217794224619865,0.0048491387979127465,-0.008921265341341494
1772795148497152300,7.38615234375,0.021187749457359312,0.010638880630896892,-0.003636000148486346
1772795148507196400,7.396196533203125,0.021337971583008764,0.007583541331021115,-0.007008919780841097
1772795148517240600,7.406240478515625,0.02926934910416603,0.011567941641935612,-0.00862317744391039
1772795148527285200,7.41628515625,0.015652911683917043,0.005140673656971194,0.013708408286329358
1772795148537329400,7.426329345703125,0.022987492355704305,-0.0007424786555755417,-0.0001931753513868898
1772795148547373300,7.436373291015625,0.03076864775121212,-0.0018281718396858195,-0.011726778615592046
1772795148557418200,7.446418212890625,0.024184008663892746,-0.007263989949630922,-0.033780250657349825
1772795148567462400,7.45646240234375,0.011164368093013763,0.012081861963844857,-0.006902746859472245
1772795148577506300,7.46650634765625,0.020294015488028526,-0.0002696957741194637,-0.00664993200902827
1772795148587551200,7.47655126953125,0.011613865426182746,-0.007671838956515421,-0.006416342448862269
1772795148597595400,7.486595458984375,0.03151566672623157,-0.015766129692358664,-0.017789074329240248
1772795148607639300,7.496639404296875,0.02328442947566509,0.007200431756459875,-0.003494070927146822
1772795148617683500,7.506683349609375,0.015502689558267592,-0.001904844671934552,0.0010992025467101484
1772795148627728400,7.516728271484375,0.03660276073217392,0.005803166428493568,-0.02065606286660768
1772795148637772300,7.526772216796875,0.02538227853775024,0.011171126627363264,-0.00838450071667321
1772795148647816400,7.53681640625,0.017599954098463058,0.004126605239356286,-0.01071727277948521
1772795148657861400,7.546861328125,0.02163841583430767,-0.0037928107034822457,-0.011725088982004672
1772795148667905300,7.5569052734375,0.014456395375728607,0.0007713639692316064,0.0008541143449954688
1772795148677949400,7.566949462890625,0.022387188374996186,-0.009324924513587029,-0.005430911608086899
1772795148687994400,7.576994384765625,0.013558569753170012,0.0050341668046399715,-0.01617635103613138
1772795148698038300,7.587038330078125,0.029871406650543213,0.003789776498301944,-0.0003154317578766495
1772795148708082400,7.59708251953125,0.025981997996568678,-0.005187622066991753,-0.008011055161245166
1772795148718127600,7.607127685546875,0.031069676524400708,-0.009900483353750314,-0.006358520447555929
1772795148728171300,7.617171142578125,0.025084172374010085,0.0034542954683623975,-0.014752245650300755
1772795148738215400,7.62721533203125,0.03331307153701782,0.002921396165936312,-0.011225003105914219
1772795148748260600,7.637260498046875,0.01580430285334587,0.002470726078643929,-0.00787869748584926
1772795148758304300,7.64730419921875,0.018498364242911337,0.00714631895753555,-0.012026117755193263
1772795148768348400,7.657348388671875,0.014309680381417274,-0.007447377413476351,0.00017800518171861768
1772795148778393600,7.6673935546875,0.026730770537257195,-0.00963983454001136,-0.005866901005711406
1772795148788437200,7.677437255859375,0.022539748588204383,0.0014539896382630103,0.007079318135930225
1772795148798481400,7.6874814453125,0.02897650363743305,-0.005127602400377509,-0.008047752176132053
1772795148808525300,7.697525390625,0.01969780316054821,0.010174221119569846,-0.00559135373365134
1772795148818570500,7.707570556640625,0.030021044254302978,-0.00012005817035969812,-0.001043727766117081
1772795148828614400,7.717614501953125,0.02478548168838024,-0.005603469433952704,-0.01353258592854254
1772795148838658300,7.727658203125,0.026133389165997504,-0.005258044396611513,-0.014031712823407724
1772795148848703500,7.737703369140625,0.030326164680719372,0.0038821754810007404,0.0027471980825997887
1772795148858747400,7.747747314453125,0.035414427730441095,-0.00114766763120424,-0.006480849919281899
1772795148868791300,7.757791259765625,0.01880465371310711,0.002722610488970531,-0.008250307277217506
1772795148878836500,7.76783642578125,0.026588147196173667,-0.004937231498252368,-0.01872767035360448
1772795148888880400,7.77788037109375,0.03033025633394718,-0.007720830909861251,-0.014892165577644481
1772795148898924300,7.78792431640625,0.02718962022066116,0.00910407570398529,-0.008376043415581806
1772795148908969500,7.797969482421875,0.030481647503376005,0.0029833103912926162,-0.007298806105507537
1772795148919013400,7.808013427734375,0.026441432201862333,-0.004517219698238478,0.0016625720505136995
1772795148929057300,7.818057373046875,0.017014847686886787,-0.007377501931483857,0.0014153558237943798
1772795148939102500,7.8281025390625,0.011776947033405304,-0.014200607683486305,0.00137731623519212
1772795148949146600,7.838146728515625,0.023148235875368118,0.005697792087323614,-0.011140740622254088
1772795148959190300,7.848190185546875,0.014320201775431632,-0.0035492520197396515,-0.004516902035707608
1772795148969235500,7.8582353515625,0.030181787773966788,0.0021214274421392475,-0.002426368630398065
1772795148979279600,7.868279541015625,0.020755787780880927,-0.021735606298199855,0.0012766688723117113
1772795148989323300,7.8783232421875,0.022549685460329056,-0.014975491912965662,-0.009763433520216495
1772795148999367400,7.888367431640625,0.014318448209762573,-0.010538248109392589,-0.012414459485653787
1772795149009412600,7.89841259765625,0.020751111605763435,-0.0005718171009182697,-0.0026411530253943054
1772795149019456500,7.90845654296875,0.03541618129611015,0.015875390761601736,-0.0023119941362645478
1772795149029500400,7.91850048828125,0.04230126463472843,0.015037781168479704,-0.003085581457801163
1772795149039545300,7.92854541015625,0.022998013749718663,-0.004567589616273471,-0.010571891225734724
1772795149049589500,7.938589599609375,0.02075344969332218,-0.016993437289388385,-0.005950149709219112
1772795149059633400,7.94863330078125,0.02195113504528999,-0.006825476947246352,-0.018459100811602548
1772795149069678300,7.95867822265625,0.02584112822115421,-0.00570217428902979,-0.006520542608853429
1772795149079722500,7.968722412109375,0.025542437535524366,-0.0073159273453115015,-0.005296562905004248
1772795149089766400,7.978766357421875,0.014019757524132728,0.010306007972807856,-0.007416514201043173
1772795149099809500,7.9888095703125,0.014019757524132728,0.010230415136081864,-0.0074126143440604204
1772795149109853400,7.998853515625,0.02404430793225765,0.0010015990929867257,0.0013184713205788283
1772795149119898400,8.0088984375,0.03346913888156414,-0.014822913433448411,0.007166996419383212
1772795149129942500,8.018942626953125,0.030478140372037887,-0.00011821327314537484,-0.010975247862236574
1772795149139986400,8.028986328125,0.014765607455372809,-0.004484504453314002,-0.005642243670672178
1772795149150031400,8.03903125,0.03377016765475273,0.006962519930914277,-0.0006677888595033437
1772795149160075500,8.049075439453125,0.02972936783134937,-0.008830650748708285,-0.01339417297169566
1772795149170119400,8.059119384765625,0.028232407271862027,-0.008192303754464956,0.007359989107679575
1772795149180164400,8.069164306640625,0.021947043392062184,-0.0020917934952231006,0.0023827852169983088
1772795149190208500,8.07920849609375,0.02449263622164726,0.0008421559061986045,-0.004392380606895312
1772795149200252400,8.08925244140625,0.02224748764336109,0.002087133303126029,0.007259076883317902
1772795149210297300,8.09929736328125,0.021498715102672577,-0.009608466720790602,-0.009270718099828809
1772795149220341500,8.109341552734374,0.012819149562716483,0.004785578036041988,-0.019155266382219267
1772795149230385400,8.119385498046874,0.02658580910861492,-0.0027412038791197117,-0.00044953386578708884
1772795149240429300,8.12942919921875,0.03331716319024563,0.009279815863381372,-0.010184088351391255
1772795149250474500,8.139474609375,0.007727379381656646,0.005450364085583715,-0.01931388187687844
1772795149260518400,8.149518310546876,0.017453239104151724,-0.00010365331236389466,0.0029725495373830197
1772795149270562300,8.159562255859376,0.030022797819972035,-0.012708574460865929,-0.021131333961850032
1772795149280607500,8.169607421875,0.032117724272608755,-0.014122044288250616,-0.016032933110604063
1772795149290651400,8.1796513671875,0.024638766694068906,-0.012059914993518031,-0.007184194149356335
1772795149300695300,8.1896953125,0.009826397487521172,0.000027696005690086166,0.007176933291507885
1772795149310740500,8.199740478515626,0.020600304958224295,0.0062060978024877835,0.0035852654750924556
1772795149320784400,8.209784423828125,0.03197276284396648,-0.0024258303451031677,-0.007789841025462374
1772795149330828500,8.21982861328125,0.016260229927301407,-0.005385050614277133,-0.00381158504425548
1772795149340873500,8.22987353515625,0.018505963027477264,0.000808628095932363,-0.01390089865112677
1772795149350917400,8.23991748046875,0.016710896304249764,0.006093008799853851,0.00934501631190069
1772795149360961300,8.249961181640625,0.02718669761121273,-0.0067045916555798606,0.0019458368381485341
1772795149371006200,8.260006103515625,0.025993103912472722,0.00447000756838097,0.0006728760265745222
1772795149381050000,8.270050048828125,0.023899931025505066,-0.010251634878979529,-0.009409523782320321
1772795149391094300,8.28009423828125,0.018213117560744285,0.004415281706459063,-0.0017801888145040719
1772795149401139200,8.29013916015625,0.016118191108107565,0.002741594606886792,-0.010783022358920424
1772795149411183000,8.30018310546875,0.016416297271847725,0.000044391412164259234,-0.006065656714513898
1772795149421227300,8.310227294921875,0.028088030365109443,0.009923321948287775,-0.013552989395754412
1772795149431271200,8.320271240234375,0.030033319213986394,0.009962176670931511,-0.0038416970547288654
1772795149441316000,8.330316162109375,0.02748947995007038,-0.004712519935108139,0.002000827561551705
1772795149451361300,8.340361328125,0.012674772655963897,0.0018612395672927958,0.005876655214745551
1772795149461405200,8.3504052734375,0.03526888177990913,0.004091007913356588,-0.0051562319857068354
1772795149471450000,8.3604501953125,0.016564765831828115,-0.009320121615950484,-0.011840723851462825
1772795149481494300,8.370494384765625,0.01970774003267288,0.0016317998842147062,-0.009391321405349299
1772795149491538000,8.380537841796874,0.0022007249146699906,-0.005948278554185526,-0.0018615012892521916
1772795149501583000,8.3905830078125,0.024497312396764753,-0.002447155404688965,-0.021002483417792244
1772795149511627300,8.400627197265624,0.031080782440304756,-0.010818078830925514,-0.021912255206471307
1772795149521671200,8.410671142578124,0.01117839661836624,-0.00039947304795059604,-0.014335454143490642
1772795149531716000,8.420716064453124,0.01806172639131546,0.006656946842526668,-0.008792159068956971
1772795149541760300,8.43076025390625,0.025095862811803815,-0.0019077193323217216,-0.01217242175755091
1772795149551804200,8.44080419921875,0.015670447340607643,0.00040172379971918415,-0.01503470672033727
1772795149561849000,8.45084912109375,0.02674479906260967,0.002692003004864091,-0.01287134554083459
1772795149571893200,8.460893310546876,0.01402618726491928,0.00022303876881051108,0.009491530376812442
1772795149581937200,8.470937255859376,0.014925181931257248,-0.0008527226805745158,-0.007187052826723083
1772795149591982000,8.480982177734376,0.021959902873635292,-0.0002790532617538702,-0.017544461051560937
1772795149602026200,8.491026123046876,0.014030278918147086,-0.004828991059027612,-0.011789998311223461
1772795149612070100,8.501070068359375,0.025104630640149114,-0.007862942794291302,-0.01590018270956352
1772795149622115000,8.511114990234375,0.023458616998791693,-0.001654329378553666,-0.008878969702729955
1772795149632159200,8.5211591796875,0.0309393281430006,-0.0016224304093149838,-0.007731297504948452
1772795149642203100,8.531203125,0.01223638123869896,-0.0029172160352740318,-0.009125500942859799
1772795149652248000,8.541248046875,0.014482114338874816,-0.00005942344287032028,0.002788900066167116
1772795149662292200,8.551292236328125,0.015232055923342704,0.006784667729533975,0.007364756614342331
1772795149672336100,8.561336181640625,0.01627835010588169,0.005231868204916827,-0.004985999118490144
1772795149682380300,8.57138037109375,0.023458616998791693,0.000639175257194438,-0.012748258017282932
1772795149692425200,8.58142529296875,0.018071078741550443,-0.005898912141504115,-0.011741711323242634
1772795149702469000,8.59146923828125,0.008346388062834739,0.0014755698553533874,-0.007752157629886642
1772795149712513300,8.60151318359375,0.019569208344817162,0.00426142801024107,0.00571476091761142
1772795149722558200,8.61155810546875,0.007298340314626693,-0.004739858035305224,0.0011902235647197812
1772795149732602000,8.62160205078125,0.02270925993621349,-0.014458723188488511,-0.005362120688194408
1772795149742646300,8.631646240234375,0.02764671633839607,0.003226160399326181,-0.006731609809957444
1772795149752691200,8.641691162109375,0.0301899710804224,0.000544628270715475,-0.016654142882023007
1772795149762735000,8.651735107421874,0.025250176590681076,0.00045470009172713613,-0.008537316658208146
1772795149772779300,8.661779296875,0.02764496277272701,0.0010947492776453146,0.006006519538955763
1772795149782824200,8.67182421875,0.02809387558400631,0.021365976118075194,-0.012997392206452785
1772795149792868000,8.6818681640625,0.023006197056174276,0.00982010588569683,-0.0026599216579459607
1772795149802912300,8.691912353515624,0.01073532902598381,-0.013228425624995724,-0.0007553392787929624
1772795149812957000,8.70195703125,0.0077437459945678706,0.0024616471522225765,-0.01820435886555351
1772795149823001000,8.7120009765625,0.02225800903737545,0.016946065900148823,-0.011951317219622433
1772795149833045200,8.722045166015626,0.011931845334172249,-0.0134453882773465,0.003711969727836549
1772795149843090200,8.732090087890626,0.010134440523386001,-0.007936053696274757,-0.01242288938728161
1772795149853134000,8.742134033203126,0.034226094728708266,-0.008304593606077833,-0.0006168441235553473
1772795149863178200,8.75217822265625,0.031083705049753187,-0.002954747306744684,-0.010631466792710124
1772795149873222100,8.76222216796875,0.01552022521495819,0.010187643431790638,-0.02238897847328335
1772795149883267000,8.77226708984375,0.022999182793498038,0.0022925779059747584,-0.0025485793711151924
1772795149893311200,8.782311279296875,0.031381811213493344,-0.003944204727021861,-0.014600507420999928
1772795149903355100,8.792355224609375,0.019711247164011,-0.009039795420784503,-0.008835797281283884
1772795149913400000,8.802400146484375,0.017915011397004126,0.01018677692375495,-0.011436179904872551
1772795149923444200,8.8124443359375,0.018064064478874205,-0.0020934802746996866,-0.00159280388308689
1772795149933488000,8.822488037109375,0.024050153151154517,0.002699215628240199,-0.00497301177275367
1772795149943533000,8.832532958984375,0.014473931032419203,-0.0005481899155696737,0.0003149659669958055
1772795149953577200,8.8425771484375,0.014324877950549125,-0.0013146439580101286,-0.003860401755198836
1772795149963621000,8.85262109375,0.006693360158801079,0.0047934705086081515,0.003020772593282163
1772795149973666300,8.862666259765625,0.016569442006945607,0.011016131286829477,-0.018209290768997743
1772795149983710000,8.8727099609375,0.021956980264186857,0.004117493776071933,-0.010095122293150053
1772795149993754000,8.882754150390625,0.02061141087412834,0.00615155859941151,0.01451272867284715
1772795150003799300,8.89279931640625,0.014025018221139907,0.0057915467726474155,0.0014956088526174426
1772795150013843000,8.902843017578125,0.016715572479367256,0.009901498275547056,-0.008137348422035574
1772795150023887000,8.91288720703125,0.023148235875368118,-0.0025776524852612055,-0.012283042525174096
1772795150033932300,8.922932373046875,0.03092939127087593,0.006136696673708502,-0.0039016836136579513
1772795150043976200,8.93297607421875,0.02225099477469921,-0.00681441612629278,-0.011213413132820278
1772795150054020000,8.94302001953125,0.027784663504362105,-0.005743919655081117,-0.01124576276615262
1772795150064064300,8.953064208984374,0.030178280642628667,0.0022472962966552587,-0.01653114669001661
1772795150074109200,8.963109130859374,0.03825812672376633,-0.006969336118301726,-0.012519390298007055
1772795150084153000,8.973153076171876,0.021500468668341634,0.0027352279419486877,-0.0248110453878995
1772795150094197200,8.983197265625,0.024793080472946167,0.0015144619668484665,-0.013854593557678162
1772795150104242200,8.9932421875,0.02898351790010929,-0.0008980870591069106,-0.012931505629699677
1772795150114286000,9.0032861328125,0.010728899285197257,0.0073051787640783,0.0013778368250001222
1772795150124330000,9.013330078125,0.009981295788288116,0.0026009394606036945,-0.012822474030964075
1772795150134375200,9.023375244140626,0.02225274834036827,-0.004333586495454074,-0.010197084830282255
1772795150144419000,9.033419189453125,0.03332826910614967,0.016164674298069438,-0.0055571592031046745
1772795150154463000,9.043462890625,0.026893267622590065,0.010257751809223555,0.0028031112546101212
1772795150164508200,9.053508056640625,0.009684358668327332,-0.001909296228532912,-0.0017353724252432584
1772795150174552300,9.06355224609375,0.025396891584992407,-0.012514667315472615,-0.0024548549393657595
1772795150184596000,9.073595947265625,0.016717910566926,-0.008852478988026269,0.0003803776197135448
1772795150194641200,9.08364111328125,0.01970949359834194,-0.00257005912350578,-0.0032878077653236684
1772795150204685300,9.093685302734375,0.015069558838009834,-0.0023628141475710435,-0.00034761699442751703
1772795150214729000,9.10372900390625,0.02165536696910858,-0.00194321048540005,-0.004446083555510267
1772795150224774100,9.113774169921875,0.02853986578583717,0.00741851550352876,0.0007416669464670122
1772795150234818300,9.123818359375,0.03003916443288326,0.0035739534923894096,0.0015400781820062547
1772795150244862000,9.133862060546875,0.021810849791765213,-0.010449561754008754,-0.00974338624603115
1772795150254907100,9.1439072265625,0.01822071634531021,0.007331340685219038,-0.01337766936146654
1772795150264951300,9.153951416015625,0.030790275061130523,0.003146215614468383,0.0009825995628722011
1772795150274995200,9.1639951171875,0.010739420679211615,0.013430629099631913,-0.011262074580136686
1772795150285039000,9.1740390625,0.03572948502898216,0.007633422625288949,-0.01883069233666174
1772795150295084300,9.184084228515625,0.01567746160328388,-0.0003310751391138183,-0.013495916313119232
1772795150305128200,9.194128173828124,0.01732405976653099,0.0033729941246463564,-0.01420819276832044
1772795150315172000,9.204172119140624,0.019717676904797553,0.007227504709764616,-0.0036211861718446012
1772795150325217300,9.21421728515625,0.008945522999763488,-0.007137119587638881,-0.008885271579353139
1772795150335261200,9.22426123046875,0.01986906807422638,-0.005318707379797706,-0.0008301672138273715
1772795150345305000,9.23430517578125,0.02959434327483177,-0.01924623945116764,-0.016311658720439298
1772795150355350300,9.244350341796874,0.013433482068777083,-0.0070931719897023866,0.0015195833832491188
1772795150365394400,9.25439453125,0.02420855858325958,-0.008256767842400585,0.009063221962144598
1772795150375438300,9.264438232421876,-0.01412204885482788,-0.01957481153511908,-0.021066762559348716
1772795150385483300,9.274483154296876,0.1747393117904663,-0.020059252317505886,0.013633260690886526
1772795150395527400,9.28452734375,-0.09609715223014355,0.050714507388696074,-0.009199653024459258
1772795150405571300,9.2945712890625,0.02765197703540325,0.013245775193662847,0.04065666663232259
1772795150415616300,9.3046162109375,0.011796820777654647,0.010717671213351423,0.008285022397572174
1772795150425660400,9.314660400390625,0.042625674283504486,-0.02184681843757862,0.001167518542567268
1772795150435704300,9.324704345703125,0.03350245662927628,-0.006081905738060595,-0.008833669256279245
1772795150445749200,9.334749267578125,-0.001963409027457237,0.00643212910646107,-0.001036613038741052
1772795150455793400,9.34479345703125,0.049366380715370174,-0.022463237869448493,0.0022363442173227665
1772795150465837300,9.35483740234375,0.005071311914920807,0.0016866576060550868,-0.017374328649044035
1772795150475882200,9.36488232421875,0.03095803284347057,-0.00459496738861053,-0.005012229538289829
1772795150485926400,9.374926513671875,0.0023749124377965927,0.0038295907729931056,-0.013965670983027666
1772795150495970300,9.38497021484375,0.03379939374923706,0.01086427090158686,0.0014698259573895484
1772795150506014500,9.395014404296875,0.008062894946336746,0.012567999229684938,0.001862314140005037
1772795150516059400,9.405059326171875,0.018237082958221434,-0.00731528973696113,-0.011268065929505973
1772795150526103300,9.415103271484375,0.03529460074305534,-0.0051027082752494604,-0.004884913364192471
1772795150536147500,9.4251474609375,0.013449264159798621,-0.004750385137541161,-0.002672616742737591
1772795150546192100,9.435192138671875,0.007314122405648231,-0.012124869988509453,-0.0010444492853246628
1772795150556236300,9.445236328125,0.022577157989144322,-0.0012415125064289894,-0.004609603554150089
1772795150566280400,9.455280517578124,0.03664309274256229,0.0033674366001170707,-0.005670328120840713
1772795150576325000,9.4653251953125,0.0028238252490758895,0.00041257113318570186,-0.01489725274471566
1772795150586369300,9.475369384765624,0.023923311901092526,0.0016865006299616651,-0.006780389988282695
1772795150596413400,9.485413330078124,0.010606734210252761,-0.013025153571279952,-0.012365222649602218
1772795150606458000,9.4954580078125,0.028112580284476277,0.004451643363328184,0.0021617263448424637
1772795150616502300,9.505502197265624,0.00851063871383667,0.006268356804427458,-0.007514723011665046
1772795150626546400,9.51554638671875,0.009256488645076751,0.007148848841339349,-0.0027352153838612137
1772795150636591000,9.525591064453126,0.03364975614547729,0.011744633932691068,0.005788127547921612
1772795150646635300,9.53563525390625,0.009260580298304557,0.00855086569294799,-0.0014239866548217833
1772795150656679400,9.545679443359376,0.028412440013885498,0.008937017749610822,0.02423062428459525
1772795150666724000,9.55572412109375,0.026765257328748703,0.005805434875749051,-0.0047416141696739935
1772795150676768300,9.565768310546876,0.01644260075688362,-0.0017528392978638293,-0.01672234014687128
1772795150686812400,9.5758125,0.024822306567430494,-0.0016104771079175407,0.0013907693718094379
1772795150696856300,9.585856201171875,0.006267828223109245,-0.00032592889194929737,0.0029418712713290005
1772795150706901200,9.5959013671875,0.018839140504598617,0.02041837708663661,-0.008332624398963526
1772795150716945200,9.605945068359375,0.026023499050736427,0.002410559425324027,-0.010738196836505084
1772795150726989300,9.6159892578125,0.0278197348177433,-0.003402508484320424,-0.0018749909584876148
1772795150737034200,9.6260341796875,0.019587328523397445,-0.015564852091262581,-0.008771837800135835
1772795150747078100,9.636078125,0.013004443001747131,0.0009972691215079975,-0.009449006409337744
1772795150757122300,9.646122314453125,0.009565116202831268,-0.011434961770387598,-0.007201163550466298
1772795150767167200,9.656167236328125,0.007619242832064628,-0.0086619796509156,-0.0034857140907552093
1772795150777211100,9.666211181640625,0.027819150295853613,0.006635511899675475,-0.007749527281383052
1772795150787255300,9.67625537109375,0.011060323196649551,0.009033906819403636,0.0015370185752399265
1772795150797300200,9.68630029296875,0.021536124503612517,-0.0015818986111713455,-0.0029884503594134002
1772795150807344000,9.69634423828125,0.028869536131620407,0.005071666395480861,-0.0026336455723736433
1772795150817388300,9.70638818359375,0.014504326170682907,0.005610968324640998,-0.0069815477167256175
1772795150827433500,9.71643359375,0.01749649372398853,0.007778054689546115,0.00033771665492095054
1772795150837477000,9.72647705078125,0.01674889022707939,0.007550009524999768,-0.0053175052283331746
1772795150847521300,9.736521240234374,0.025128596037626266,-0.0008460583318810677,-0.01698246152093634
1772795150857566500,9.74656640625,-0.10436170722842215,-0.03271863789138151,-0.07132762616272084
1772795150867610000,9.756610107421874,-0.5102238968104124,-0.17755931938095018,-0.14245198483830318
1772795150877654300,9.766654296875,0.48990766949057574,-0.6982213341027498,0.20599104861719533
1772795150887698200,9.7766982421875,0.5069353766590357,-0.2042410631447099,-0.2904238108103163
1772795150897743000,9.7867431640625,-0.16901508892476558,0.7305338502950965,-0.6937400970354676
1772795150907787300,9.796787353515626,0.03084697368443012,0.4484289732851088,0.4795020838756114
1772795150917831200,9.8068310546875,0.07029869410693645,-0.10819775086049921,0.7919616210084408
1772795150927876400,9.81687646484375,0.1374690270602703,-0.02911387084808666,-0.3103255938440561
1772795150937920300,9.826920166015626,-0.14977087475061415,0.02082655374543974,0.035692459220532324
