time,seconds_elapsed,z,y,x
1772795141184893200,0.07389306640625,-0.0003528038505464792,0.001646136399358511,-0.0023082245606929064
1772795141194937300,0.083937255859375,-0.0005664564087055624,-0.0003873966634273529,-0.0006400718702934682
1772795141204981000,0.09398095703125,-0.0007273113005794585,-0.0010342784225940704,-0.0011466051219031215
1772795141215026200,0.104026123046875,-0.0015909501817077398,0.0007161539979279041,-0.0007827707449905574
1772795141225070300,0.1140703125,0.0004045563982799649,-0.00032008206471800804,0.002143244259059429
1772795141235114000,0.124114013671875,0.00013420172035694122,-0.0014829784631729126,0.0009218112099915743
1772795141245159200,0.1341591796875,-0.0004961685044690967,-0.0012976224534213543,-0.0011059197131544352
1772795141255203300,0.144203369140625,0.0008271196857094765,0.0012291776947677135,-0.0019757135305553675
1772795141265247200,0.154247314453125,-0.0013505469541996717,0.001589503139257431,0.0017188898054882884
1772795141275292200,0.164292236328125,-0.0007480293279513717,-0.0003609335981309414,0.000979284173808992
1772795141285336300,0.17433642578125,-0.0011440413072705269,-0.00006132805719971657,0.0007017826428636909
1772795141295380200,0.184380126953125,-0.001282069948501885,0.001324209850281477,-0.00019905727822333574
1772795141305424100,0.194424072265625,-0.004856032319366932,0.0004509594291448593,-0.001017712987959385
1772795141315469300,0.20446923828125,0.000869047362357378,0.00020583625882863998,0.0016503443475812674
1772795141325513200,0.21451318359375,-0.0004529458237811923,0.0017328928224742413,0.0015291706658899784
1772795141335557000,0.22455712890625,-0.0018369648605585098,0.0011372067965567112,-0.0025934490840882063
1772795141345601300,0.234601318359375,-0.0010558597277849913,0.000024804379791021347,0.0008545456221327186
1772795141355645200,0.244645263671875,0.0006209264975041151,0.0006087035872042179,-0.0005315435118973255
1772795141365689300,0.254689453125,0.0010105469264090061,-0.0020019933581352234,0.0024056569673120975
1772795141375734000,0.264734130859375,0.0010612679179757833,0.0010602977126836777,0.00033917243126779795
1772795141385778200,0.274778076171875,0.002063681837171316,0.0005729394033551216,-0.00007707963231950998
1772795141395822300,0.284822265625,-0.00017072120681405067,-0.0002773301675915718,0.0010583637049421668
1772795141405867000,0.294866943359375,0.002006679307669401,-0.00125977024435997,-0.00043859920697286725
1772795141415911200,0.3049111328125,-0.000549422693438828,0.00003745546564459801,-0.0018058661371469498
1772795141425955300,0.314955322265625,0.0013080835342407227,-0.0025567784905433655,-0.0010875549633055925
1772795141436000000,0.325,-0.0007090181461535394,-0.000821518711745739,-0.0006406254251487553
1772795141446044200,0.335044189453125,-0.00012578582391142845,0.0013758554123342037,-0.0013322483282536268
1772795141456088300,0.34508837890625,0.0011491257464513183,-0.00018340535461902618,-0.0008667117217555642
1772795141466132200,0.35513232421875,0.00011502020061016083,-0.002985849743708968,-0.0006179724587127566
1772795141476177200,0.36517724609375,0.0014108094619587064,0.0006337878294289112,0.0006654903991147876
1772795141486221300,0.37522119140625,0.00027550384402275085,0.00070143211632967,-0.001382746733725071
1772795141496265200,0.38526513671875,0.00020860275253653526,0.0038398122414946556,-0.002308829687535763
1772795141506310100,0.39531005859375,-0.0002691682893782854,0.0009156614542007446,-0.0035306878853589296
1772795141516354300,0.405354248046875,-0.001767148612998426,0.0011423956602811813,-0.0010013312567025423
1772795141526398200,0.415398193359375,-0.0005841724341735244,0.000015345867723226547,-0.001699612126685679
1772795141536443100,0.425443115234375,-0.0013158801011741161,0.0003486308269202709,-0.0022863969206809998
1772795141546487000,0.435487060546875,0.0006087864749133587,0.0010807337239384651,0.0012731841998174787
1772795141556531200,0.44553125,-0.0003630657447502017,-0.0015413514338433743,-0.0018321075476706028
1772795141566575400,0.455575439453125,0.0000012547243386507034,0.003242751117795706,0.0004148014122620225
1772795141576620000,0.4656201171875,-0.0011626833584159613,-0.003040990559384227,0.00022863596677780151
1772795141586664200,0.475664306640625,0.0008096536621451378,-0.0012079370208084583,0.0022489100228995085
1772795141596708400,0.485708251953125,-0.0013176456559449434,0.0015281951054930687,-0.002266213297843933
1772795141606753000,0.4957529296875,-0.0007834155694581568,0.0025977203622460365,0.0008653977420181036
1772795141616797200,0.505797119140625,-0.0015596653101965785,0.002667116466909647,0.0027968240901827812
1772795141626841300,0.51584130859375,-0.0007050569402053952,0.001150979194790125,-0.0005129524506628513
1772795141636886000,0.525885986328125,-0.0015851457137614489,0.0017557158134877682,0.002088045235723257
1772795141646930200,0.53593017578125,-0.00022879778407514095,0.0006877887062728405,-0.00033942610025405884
1772795141656974300,0.545974365234375,-0.0009394204244017601,0.00019198143854737282,-0.0016389001393690705
1772795141667019000,0.55601904296875,-0.0018454277887940407,0.0016439366154372692,0.0012279927032068372
1772795141677063200,0.566063232421875,0.0016556649934500456,-0.0010709324851632118,-0.00015830958727747202
1772795141687107000,0.576107177734375,0.0002330042188987136,-0.00029035983607172966,0.002334142802283168
1772795141697152300,0.58615234375,0.0005553312366828322,0.00027161696925759315,0.00026161770801991224
1772795141707196200,0.596196044921875,-0.00015306950081139803,0.0030391737818717957,-0.00012693752069026232
1772795141717240000,0.606239990234375,-0.0010586100397631526,0.0025331093929708004,0.0013232985511422157
1772795141727284200,0.6162841796875,0.0012745854910463095,0.001384488306939602,0.0005589713109657168
1772795141737329200,0.6263291015625,-0.0006107065710239112,0.00048325955867767334,0.002702446188777685
1772795141747373000,0.636373046875,-0.0004796790308319032,0.0018997946754097939,-0.0023868544958531857
1772795141757417200,0.646417236328125,-0.0005094048683531582,0.0036155786365270615,-0.0004968302673660219
1772795141767462100,0.656462158203125,-0.0005096711684018373,-0.0011695888824760914,-0.0013043007347732782
1772795141777506000,0.666506103515625,-0.001784023828804493,0.0007257368415594101,0.0025973962619900703
1772795141787550200,0.67655029296875,0.0021084523759782314,0.002645077183842659,-0.0013800346059724689
1772795141797595100,0.68659521484375,-0.00045725336531177163,0.0023858947679400444,0.0024675633758306503
1772795141807639000,0.69663916015625,-0.0006306251743808389,0.0028910962864756584,-0.00029120524413883686
1772795141817683200,0.70668310546875,-0.0004759252769872546,0.0032896059565246105,0.0002051340416073799
1772795141827728400,0.716728271484375,-0.00036567042116075754,0.0001960773952305317,-0.0017594797536730766
1772795141837772000,0.72677197265625,0.0007850019028410316,-0.00020054355263710022,0.0012485056649893522
1772795141847816200,0.736816162109375,0.001306448713876307,0.0013315733522176743,-0.0034266735892742872
1772795141857860000,0.746860107421875,0.0005755923921242356,-0.0013666749000549316,0.0018661229405552149
1772795141867905000,0.756905029296875,-0.0008412093156948686,0.002649904228746891,0.00019818509463220835
1772795141877949200,0.76694921875,-0.0015974885318428278,0.0013190223835408688,0.0018418584950268269
1772795141887993000,0.7769931640625,-0.0024414444342255592,0.002692414913326502,-0.0009789615869522095
1772795141898038300,0.787038330078125,-0.00039607170037925243,0.000868489034473896,-0.0010128602152690291
1772795141908082200,0.797082275390625,0.0013946378603577614,0.0024152533151209354,-0.0006101902108639479
1772795141918126000,0.8071259765625,0.0009574359282851219,0.0018545230850577354,0.0009067641803994775
1772795141928171300,0.817171142578125,0.00020456034690141678,-0.000044045038521289825,0.0027731074951589108
1772795141938215200,0.827215087890625,0.0013232618803158402,0.001529601402580738,0.001633883803151548
1772795141948259000,0.837259033203125,-0.00021577882580459118,0.0021096374839544296,-0.0012974576093256474
1772795141958304300,0.84730419921875,-0.002700403332710266,-0.0006383727304637432,0.0008949000621214509
1772795141968348200,0.85734814453125,-0.0015211555873975158,0.0010332935489714146,0.00008370110299438238
1772795141978392000,0.86739208984375,0.000035206438042223454,0.004452083259820938,0.0004259473644196987
1772795141988436200,0.877436279296875,0.0019990215077996254,-0.0013408246450126171,0.00029065879061818123
1772795141998481200,0.887481201171875,-0.0011462869588285685,0.0018936656415462494,0.0005821749800816178
1772795142008525000,0.897525146484375,-0.00038968288572505116,0.0020513245835900307,-0.0013613998889923096
1772795142018569200,0.9075693359375,0.0011210732627660036,0.0012035076506435871,0.0006388070760294795
1772795142028614400,0.917614501953125,-0.0027698050253093243,0.001765168271958828,-0.0012376562226563692
1772795142038658000,0.927657958984375,-0.0011664126068353653,-0.001407727599143982,0.0008731468115001917
1772795142048702200,0.9377021484375,-0.0018963851034641266,0.0015276079066097736,-0.0029524839483201504
1772795142058747400,0.947747314453125,-0.00008053879719227552,0.00039521418511867523,-0.0015015819808468223
1772795142068791000,0.957791015625,0.000245432136580348,0.00026605091989040375,-0.00019476888701319695
1772795142078835200,0.967835205078125,0.0010236715897917747,0.0001656380482017994,-0.0009411757346242666
1772795142088880400,0.97788037109375,-0.0012003342853859067,0.0004761628806591034,0.0009278306970372796
1772795142098924300,0.98792431640625,0.000029581948183476925,0.0013870950788259506,-0.0018490934744477272
1772795142108968200,0.99796826171875,0.0012386571615934372,0.0020041498355567455,0.0005320388590916991
1772795142119013400,1.008013427734375,-0.0008471935871057212,-0.0005076099187135696,0.0011485045542940497
1772795142129057300,1.018057373046875,-0.0027404348365962505,0.0013416893780231476,-0.0019250496989116073
1772795142139101200,1.02810107421875,-0.0026343066710978746,-0.0020505525171756744,0.000888223759829998
1772795142149145000,1.03814501953125,-0.0010712974471971393,0.002295193262398243,0.0021638779435306787
1772795142159190300,1.048190185546875,0.0000598980113863945,0.00009067542850971222,-0.0005835581105202436
1772795142169234200,1.058234130859375,-0.0016993861645460129,0.0006416835822165012,0.0012849157210439444
1772795142179278000,1.068278076171875,-0.0001444194931536913,-0.0007803388871252537,0.0033268933184444904
1772795142189323300,1.0783232421875,0.0005301592173054814,0.0006508440710604191,0.000016850302927196026
1772795142199367200,1.0883671875,0.000024104607291519642,-0.0012909164652228355,-0.00018149579409509897
1772795142209411000,1.0984111328125,-0.001212401082739234,-0.001949249766767025,-0.0006065363413654268
1772795142219456300,1.108456298828125,-0.00015107321087270975,-0.0016479045152664185,0.00010108237620443106
1772795142229500400,1.11850048828125,-0.0028688290622085333,-0.003268171800300479,-0.001017711590975523
1772795142239544000,1.1285439453125,-0.001158502185717225,-0.0025729211047291756,0.00020935898646712303
1772795142249589200,1.13858935546875,-0.0005329256528057158,-0.004607309587299824,0.0008735514711588621
1772795142259633400,1.14863330078125,0.0012723152758553624,-0.00202770484611392,0.0005053144413977861
1772795142269677000,1.158677001953125,0.0009487412171438336,-0.0008846758864820004,-0.001461163628846407
1772795142279722200,1.16872216796875,-0.00033104821341112256,-0.00012219417840242386,0.0004827622324228287
1772795142289766400,1.178766357421875,0.00014911976177245378,-0.001668957993388176,-0.00027863559080287814
1772795142299810000,1.18881005859375,-0.0017304180655628443,-0.0007674959488213062,0.000677207950502634
1772795142309854200,1.198854248046875,-0.0023519997484982014,0.0006096246652305126,0.00017413683235645294
1772795142319899400,1.2088994140625,0.0006939986487850547,0.0013588196597993374,-0.0006616904283873737
1772795142329943300,1.218943359375,0.003425869159400463,-0.0011509433388710022,-0.0005562292644754052
1772795142339987200,1.2289873046875,-0.0004378780140541494,-0.0013352548703551292,-0.001329971943050623
1772795142350032100,1.2390322265625,0.000004739384166896343,0.0014442866668105125,-0.0033278753980994225
1772795142360076000,1.249075927734375,0.0012023479212075472,0.0012623732909560204,0.0009340506512671709
1772795142370120000,1.259119873046875,-0.0005667899968102574,0.0005971156060695648,-0.0026244651526212692
1772795142380165000,1.2691650390625,0.0006707770517095923,0.0020300145260989666,0.0004794333362951875
1772795142390209000,1.279208984375,-0.0001428186660632491,-0.0001591038890182972,-0.00274485582485795
1772795142400253200,1.289253173828125,-0.0007894663140177727,0.001711124088615179,-0.0000869362847879529
1772795142410298000,1.299298095703125,0.0016372061800211668,-0.0012875953689217567,0.0021690274588763714
1772795142420342000,1.309342041015625,0.00033139181323349476,-0.0004639308899641037,0.0015075767878443003
1772795142430386200,1.31938623046875,0.0004046288086101413,0.0014239838346838951,0.001402381807565689
1772795142440431000,1.32943115234375,-0.003312910906970501,-0.0015116413123905659,-0.00020196405239403248
1772795142450475000,1.33947509765625,-0.0011389725841581821,0.0016495310701429844,0.0011272196425125003
1772795142460519200,1.349519287109375,-0.00034889642847701907,-0.0003002295270562172,-0.000404145335778594
1772795142470562800,1.359562744140625,-0.00154438940808177,0.0019354941323399544,0.003794328309595585
1772795142480608000,1.36960791015625,-0.0017888033762574196,0.0015010340139269829,0.0012150922557339072
1772795142490652200,1.379652099609375,0.0008277524029836059,0.0002842354588210583,-0.001022761920467019
1772795142500696000,1.389696044921875,-0.0021087080240249634,-0.0005143629387021065,0.0018600154435262084
1772795142510741000,1.399740966796875,-0.0010080235078930855,0.0018840795382857323,0.00019474071450531483
1772795142520785200,1.40978515625,-0.0018692468293011189,-0.0015862416476011276,-0.0013790226075798273
1772795142530829000,1.4198291015625,0.000766217359341681,0.0014361795037984848,0.0011395288165658712
1772795142540874000,1.4298740234375,-0.0006190256681293249,-0.0013178312219679356,0.003164577530696988
1772795142550918100,1.439918212890625,0.0009109604870900512,-0.000009952578693628311,0.0022079702466726303
1772795142560962000,1.449962158203125,-0.0008976425742730498,-0.0001919325441122055,-0.0013851396506652236
1772795142571007000,1.460007080078125,-0.0008409172296524048,0.0014706789515912533,-0.00047673535300418735
1772795142581051100,1.470051025390625,0.0012245712568983436,-0.0003010137006640434,0.00018830038607120514
1772795142591095000,1.480094970703125,-0.000047887093387544155,-0.0000594649463891983,-0.00023487594444304705
1772795142601140000,1.490139892578125,-0.001628302619792521,0.00045847054570913315,0.0010167163563892245
1772795142611184000,1.50018408203125,-0.00039259582990780473,-0.0008036014623939991,0.002409815788269043
1772795142621228000,1.51022802734375,0.0011302826460450888,0.00001236889511346817,-0.00014579982962459326
1772795142631272200,1.520272216796875,-0.0003448423813097179,-0.0013295980170369148,0.0015357201918959618
1772795142641317000,1.530317138671875,-0.0005396063788793981,-0.00008089235052466393,0.002085651271045208
1772795142651361000,1.540361083984375,0.0007373793050646782,-0.0023954459466040134,0.0015562145272269845
1772795142661405200,1.5504052734375,0.0012507038190960884,-0.0009625405073165894,-0.0005409156437963247
1772795142671450000,1.5604501953125,0.0013135543558746576,-0.0008291164413094521,0.0003816033713519573
1772795142681494000,1.570493896484375,0.00045358401257544756,-0.0009617866016924381,-0.0013252273201942444
1772795142691538200,1.5805380859375,-0.0014127593021839857,0.001434792298823595,-0.002254137769341469
1772795142701583000,1.5905830078125,-0.0009895411785691977,-0.0003293766640126705,-0.0009969959501177073
1772795142711627000,1.600626953125,-0.0023964890278875828,-0.0014388496056199074,-0.0008193631656467915
1772795142721671200,1.610671142578125,0.00048370345029979944,-0.00008864607661962509,0.000046127825044095516
1772795142731716000,1.620716064453125,-0.0003948733792640269,0.0002013719640672207,0.001092217629775405
1772795142741760000,1.630760009765625,0.0011513330973684788,0.0009498409926891327,0.0006509677041321993
1772795142751804200,1.64080419921875,-0.00023777165915817022,-0.000422485638409853,-0.0010507922852411866
1772795142761848800,1.650848876953125,0.0021251998841762543,-0.0007410603575408459,-0.00010001903865486383
1772795142771893000,1.66089306640625,-0.0003938840818591416,0.0032361047342419624,-0.0006177375908009708
1772795142781937200,1.670937255859375,0.0005647842772305012,0.0015740650705993176,-0.0011274917051196098
1772795142791981000,1.68098095703125,-0.0001571987522765994,0.00026432285085320473,-0.0014036614447832108
1772795142802026000,1.69102587890625,0.0004670319613069296,-0.0005975575186312199,-0.0018520873272791505
1772795142812070100,1.701070068359375,-0.0009846570901572704,0.0006842217408120632,-0.0017034829361364245
1772795142822114000,1.711114013671875,-0.001358657842501998,-0.0001798076555132866,-0.000021156854927539825
1772795142832159000,1.721158935546875,-0.001346939941868186,0.00007079588249325752,-0.0014030711026862264
1772795142842203100,1.731203125,0.0020629074424505234,-0.0002687196247279644,-0.0006423206650651991
1772795142852247000,1.7412470703125,0.000820809043943882,-0.0015941751189529896,0.0034251254983246326
1772795142862292000,1.7512919921875,0.0006774240173399448,-0.00009541865438222885,0.0026014982722699642
1772795142872336100,1.761336181640625,0.0007328176870942116,0.00022708997130393982,-0.0009309184970334172
1772795142882380000,1.771380126953125,0.001835368457250297,-0.0002332627773284912,0.0010814208071678877
1772795142892425000,1.781425048828125,0.00008939998224377632,0.0004165484569966793,-0.001511965412646532
1772795142902468900,1.79146875,0.0028722514398396015,-0.0007817083969712257,0.0007668160833418369
1772795142912513000,1.801512939453125,0.0007387929363176227,-0.000030963215976953506,-0.0011852809693664312
1772795142922558000,1.811557861328125,-0.0006896288250572979,0.0003577996976673603,0.0013278763508424163
1772795142932601900,1.821601806640625,0.0007034707814455032,0.0006270450539886951,-0.003483124077320099
1772795142942646000,1.83164599609375,0.0014395463513210416,0.00036990316584706306,-0.0007319060387089849
1772795142952690200,1.841690185546875,-0.0016057782340794802,0.0011283713392913342,0.00007769488729536533
1772795142962734800,1.85173486328125,-0.000581177999265492,-0.0007566590793430805,-0.0018532369285821915
1772795142972779000,1.861779052734375,0.0021743946708738804,0.0004236539825797081,0.0037338086403906345
1772795142982823200,1.8718232421875,0.0007672766223549843,0.000505838543176651,0.0009349898900836706
1772795142992867800,1.881867919921875,-0.00013766554184257984,0.0009231558069586754,0.0007570908637717366
1772795143002912000,1.891912109375,0.00034580996725708246,-0.0007820217870175838,-0.0005160915316082537
1772795143012956200,1.9019560546875,0.00004833494313061237,0.0002843081019818783,0.003311936277896166
1772795143023000800,1.912000732421875,-0.001466528046876192,-0.001053567510098219,-0.0007920882198959589
1772795143033045000,1.922044921875,-0.001704614725895226,0.003189114388078451,-0.00043921940959990025
1772795143043089200,1.932089111328125,0.00004529219586402178,-0.0007274863310158253,0.00035027647390961647
1772795143053134000,1.942134033203125,-0.00024179654428735375,-0.00007953913882374763,-0.0019815873820334673
1772795143063178000,1.952177978515625,0.00008680741302669048,-0.0015459475107491016,0.0011786961695179343
1772795143073222000,1.962221923828125,-0.0022248164750635624,-0.00005777273327112198,0.000990410684607923
1772795143083266000,1.97226611328125,0.00021898432169109583,-0.002633959287777543,0.002952718175947666
1772795143093311000,1.98231103515625,-0.0005197766004130244,-0.0005750693380832672,-0.0009408234618604183
1772795143103355000,1.99235498046875,0.0002983394078910351,-0.00018013175576925278,0.0028310497291386127
1772795143113399000,2.00239892578125,-0.00013335898984223604,-0.0016723009757697582,0.0010898750042542815
1772795143123444000,2.01244384765625,-0.0007442061905749142,0.00045216409489512444,0.001993408892303705
1772795143133487900,2.02248779296875,0.0015695480396971107,-0.0019468115642666817,0.001296726055443287
1772795143143532000,2.032531982421875,0.0023464804980903864,-0.0005699577741324902,-0.00055510742822662
1772795143153577200,2.0425771484375,-0.0009965857025235891,-0.001694344449788332,-0.0004901263164356351
1772795143163620900,2.052620849609375,0.0011349031701683998,0.0005238675512373447,-0.0009864690946415067
1772795143173665000,2.0626650390625,-0.0013674029614776373,0.0016176281496882439,0.00006974057760089636
1772795143183710200,2.072710205078125,0.0024040366988629103,-0.0014680027961730957,-0.0005104027804918587
1772795143193753900,2.08275390625,0.0002916173543781042,-0.0008978201076388359,0.0016299798153340816
1772795143203798000,2.092798095703125,-0.0016713569639250636,0.0014287326484918594,-0.001641155919060111
1772795143213843200,2.10284326171875,-0.003577115014195442,0.0013304618187248707,-0.0008238317677751184
1772795143223886800,2.112886962890625,0.0009554894641041756,0.0005871998146176338,-0.0005610539228655398
1772795143233931000,2.122930908203125,-0.00021150760585442185,-0.0007020365446805954,0.0008509542094543576
1772795143243975000,2.132974853515625,0.0014052949845790863,-0.00032972637563943863,0.00042178749572485685
1772795143254020000,2.14302001953125,-0.0006653126329183578,0.0010015876032412052,0.0022505801171064377
1772795143264064000,2.15306396484375,0.0014236305141821504,0.0003129267133772373,0.001577962888404727
1772795143274108000,2.16310791015625,-0.0005415159976109862,0.0017062928527593613,-0.0008524380391463637
1772795143284153000,2.173153076171875,0.001162240281701088,0.0007302579469978809,0.0017355239251628518
1772795143294197000,2.183197021484375,-0.000696379691362381,0.0003816499374806881,0.00180769560392946
1772795143304241000,2.193240966796875,-0.001185721019282937,0.0025025801733136177,-0.0014049512101337314
1772795143314286000,2.2032861328125,0.0009096541907638311,-0.0004828236997127533,0.003392200917005539
1772795143324330000,2.213330078125,-0.00022633315529674292,-0.0009877276606857777,0.0009261342929676175
1772795143334374000,2.223373779296875,-0.0005893220077268779,-0.00014457060024142265,0.00031520507764071226
1772795143344419300,2.23341943359375,0.0009327561128884554,0.0011382196098566055,-0.0014541263226419687
1772795143354463000,2.243462890625,0.0009484689217060804,0.002133709378540516,0.00046840962022542953
1772795143364507100,2.253507080078125,-0.00152310892008245,0.00006086379289627075,-0.0027049388736486435
1772795143374551000,2.263551025390625,-0.0007374763954430819,0.001087778713554144,-0.002251669066026807
1772795143384596200,2.27359619140625,0.00016885180957615376,0.0008031600154936314,-0.0003531477996148169
1772795143394640100,2.28364013671875,0.0022857985459268093,-0.0016360292211174965,-0.0015113565605133772
1772795143404684000,2.29368408203125,-0.0031228247098624706,0.001445157453417778,-0.002230036072432995
1772795143414729200,2.303729248046875,-0.00020293478155508637,-0.00019002333283424377,0.0008182179881259799
1772795143424773000,2.313773193359375,0.00041728210635483265,0.0010834848508238792,-0.0007993449689820409
1772795143434817000,2.323817138671875,0.00022952922154217958,0.00008613104000687599,-0.00011171679943799973
1772795143444862200,2.3338623046875,-0.0003531844122335315,0.0017609307542443275,-0.0015582151245325804
1772795143454906000,2.343906005859375,0.002197324763983488,0.0017878282815217972,0.0007755128899589181
1772795143464950000,2.353949951171875,0.00012138788588345051,0.0032648504711687565,-0.0004920013016089797
1772795143474995200,2.3639951171875,-0.002209676895290613,-0.0008183079771697521,-0.0012715085176751018
1772795143485039400,2.374039306640625,0.0007633246714249253,-0.0003373068757355213,-0.0019629490561783314
1772795143495083000,2.3840830078125,0.0006762392586097121,-0.0035727813374251127,0.00009647349361330271
1772795143505128200,2.394128173828125,-0.0008356620091944933,0.0020167995244264603,-0.001416223356500268
1772795143515172400,2.40417236328125,0.001140936161391437,0.0007075895555317402,0.0013175113126635551
1772795143525216000,2.414216064453125,0.0006826487369835377,0.0010631936602294445,0.00005863781552761793
1772795143535260200,2.42426025390625,-0.0007578551303595304,0.000948944129049778,0.00032548652961850166
1772795143545305300,2.434305419921875,0.0016011641127988696,-0.0006770296022295952,0.0016748694470152259
1772795143555349000,2.444348876953125,0.0012988954549655318,0.0012028957717120647,0.0010421023471280932
1772795143565393200,2.45439306640625,0.0014942096313461661,0.00035528233274817467,-0.0008378851925954223
1772795143575438300,2.464438232421875,-0.00020435458282008767,0.0008016279898583889,-0.0013358963187783957
1772795143585482200,2.474482177734375,-0.0008665252826176584,0.00006574485450983047,0.00022540043573826551
1772795143595526100,2.484526123046875,0.0014786544488742948,0.00006840797141194344,0.00042407214641571045
1772795143605571300,2.4945712890625,-0.00029303645715117455,-0.000400603748857975,-0.0017368374392390251
1772795143615615200,2.504615234375,0.0006949963280931115,-0.00017876224592328072,0.0011580188293009996
1772795143625659100,2.5146591796875,0.00046447140630334616,0.0018060156144201756,-0.0000042227329686284065
1772795143635704300,2.524704345703125,0.0014564987504854798,-0.0016995039768517017,0.0002626259811222553
1772795143645748200,2.534748291015625,-0.00011344888480380177,-0.00048185093328356743,0.0010328779462724924
1772795143655792000,2.544792236328125,-0.0015430337516590953,-0.0011780010536313057,0.00016921479254961014
1772795143665836000,2.5548359375,-0.0006326580187305808,0.0013284152373671532,-0.0014928333694115281
1772795143675881200,2.564881103515625,-0.0005184084293432534,0.00007459893822669983,0.0010094728786498308
1772795143685925000,2.574925048828125,0.0020825392566621304,0.00165187893435359,-0.002655882854014635
1772795143695969000,2.584968994140625,0.001906504505313933,0.0005032578483223915,-0.0001338692381978035
1772795143706014200,2.59501416015625,0.00043584289960563183,0.00012806709855794907,0.0017331987619400024
1772795143716058400,2.605058349609375,-0.0029330558609217405,-0.0002506342716515064,0.0010607505682855844
1772795143726102000,2.61510205078125,-0.00007270346395671368,0.0011888770386576653,0.0010110348230227828
1772795143736147200,2.625147216796875,0.0014908384764567018,-0.000566412229090929,0.00152103032451123
1772795143746191400,2.63519140625,0.0014711169060319662,-0.0008663949556648731,0.0020486237481236458
1772795143756235000,2.645235107421875,-0.0006785867735743523,0.0023379200138151646,0.0005591179942712188
1772795143766280200,2.6552802734375,0.0014925446594133973,0.002460991032421589,0.0006912844255566597
1772795143776324400,2.665324462890625,-0.00005821394734084606,0.0001413780264556408,0.00046518200542777777
1772795143786368300,2.6753681640625,0.002106661908328533,0.000027538742870092392,-0.0008230487001128495
1772795143796413200,2.6854130859375,-0.0013037819880992174,0.00020357361063361168,0.00018948514480143785
1772795143806457300,2.695457275390625,-0.00011780572822317481,0.0023431144654750824,-0.001278463052585721
1772795143816501200,2.705501220703125,-0.0005441778339445591,0.0013044816441833973,-0.0006440980359911919
1772795143826545200,2.715545166015625,-0.002403317019343376,-0.0013609384186565876,-0.00023396092001348734
1772795143836590000,2.725590087890625,0.00009898911230266094,-0.0006674514152109623,-0.00009228079579770565
1772795143846634200,2.73563427734375,0.0010887995595112443,-0.0009405030868947506,0.002203097566962242
1772795143856678100,2.74567822265625,0.0013013199204578996,-0.00015380559489130974,0.0021026963368058205
1772795143866723000,2.75572314453125,0.001255523064173758,-0.002629356225952506,0.0011538260150700808
1772795143876767200,2.765767333984375,-0.001249446184374392,0.002004543785005808,0.001722677145153284
1772795143886811100,2.77581103515625,-0.00047808565432205796,0.00014553312212228775,0.0008450436871498823
1772795143896856000,2.78585595703125,0.0024836158845573664,0.0005532633513212204,-0.004972897935658693
1772795143906900200,2.795900146484375,-0.0023250652011483908,-0.0006740964017808437,0.0018888821359723806
1772795143916944400,2.8059443359375,0.00026805466040968895,0.002122222911566496,-0.0025740433484315872
1772795143926989000,2.815989013671875,-0.002581520937383175,0.002479215618222952,0.001176801510155201
1772795143937033200,2.826033203125,-0.0021082772873342037,0.0015558977611362934,0.0023651039227843285
1772795143947077400,2.836077392578125,0.000583946704864502,-0.0007109930738806725,-0.0003488145302981138
1772795143957121000,2.84612109375,-0.0011511027114465833,0.00042457878589630127,0.0010117945494130254
1772795143967166200,2.856166259765625,-0.0008406738052144647,0.0013416055589914322,0.00002457259688526392
1772795143977210000,2.866210205078125,0.0013082307996228337,0.0008478555828332901,0.000965201179496944
1772795143987254000,2.87625390625,0.0015839656116440892,0.00047970935702323914,0.0010949606075882912
1772795143997299200,2.88629931640625,-0.0014768054243177176,-0.0005599888972938061,-0.001904824050143361
1772795144007343000,2.896343017578125,-0.00031864887569099665,0.001256713643670082,-0.0013979858485981822
1772795144017387300,2.90638720703125,-0.00004301173612475395,0.0016053211875259876,-0.0000666716368868947
1772795144027432200,2.91643212890625,-0.0018544576596468687,0.0029943864792585373,0.0013755400432273746
1772795144037476000,2.92647607421875,0.0007184222340583801,-0.0024067708291113377,0.0013680834090337157
1772795144047520300,2.936520263671875,-0.00027294078608974814,0.0014633084647357464,0.0023364308290183544
1772795144057565200,2.946565185546875,0.0014674350386485457,-0.0021380847319960594,-0.00010888371616601944
1772795144067609000,2.956609130859375,-0.00006312935147434473,0.0011076712980866432,-0.0013846380170434713
1772795144077653200,2.9666533203125,0.0019046802772209048,0.0001718364655971527,-0.0009116606670431793
1772795144087698200,2.9766982421875,-0.001298445393331349,0.0001266435720026493,0.00002734886948019266
1772795144097742000,2.9867421875,0.0014661820605397224,0.0006161327473819256,-0.0001137986546382308
1772795144107786200,2.9967861328125,-0.0022385092452168465,0.003523342777043581,-0.0003547245869413018
1772795144117830400,3.006830322265625,0.00040867284405976534,0.001101730391383171,-0.0010117264464497566
1772795144127875000,3.016875,-0.0012438668636605144,-0.0016570426523685455,-0.0007137387292459607
1772795144137919200,3.026919189453125,-0.00015862873988226056,-0.002079686615616083,0.0005344848614186049
1772795144147963100,3.036963134765625,-0.0004894500598311424,0.0011737500317394733,-0.00018693075980991125
1772795144158008000,3.047008056640625,-0.00016134866746142507,-0.00034931162372231483,0.0007992376340553164
1772795144168052200,3.05705224609375,0.0011051048059016466,0.0010680081322789192,0.0020909616723656654
1772795144178096000,3.06709619140625,-0.0003258116776123643,0.00020248116925358772,-0.0007594195194542408
1772795144188141000,3.07714111328125,0.0006923368200659752,0.00042909663170576096,-0.0005794531316496432
1772795144198185200,3.087185302734375,-0.000325523316860199,-0.0013166056014597416,-0.0023507215082645416
1772795144208229000,3.09722900390625,0.0012017160188406706,0.0019433819688856602,-0.0006521029281429946
1772795144218274000,3.107274169921875,0.0013322110753506422,-0.0011064703576266766,0.001462180633097887
1772795144228318200,3.117318115234375,-0.00006314949132502079,0.0005562030710279942,0.0006324781570583582
1772795144238362000,3.127362060546875,0.0015986630460247397,0.000011852942407131195,-0.0013214831706136465
1772795144248406300,3.13740625,0.0011909597087651491,-0.0006250324659049511,0.000043598818592727184
1772795144258451200,3.147451171875,0.0007994751213118434,0.0007627406157553196,-0.0006560136680491269
1772795144268495000,3.1574951171875,-0.001072074519470334,-0.0004374268464744091,-0.0007560051744803786
1772795144278539300,3.167539306640625,0.00017348595429211855,0.00006351340562105179,-0.002104097278788686
1772795144288584200,3.177584228515625,-0.00006621109787374735,0.0005036559887230396,-0.0012723379768431187
1772795144298628000,3.187628173828125,0.0009223541710525751,-0.0017158221453428268,0.000892545678652823
1772795144308672300,3.19767236328125,0.000049515627324581146,0.00028159236535429955,-0.0015592246782034636
1772795144318717200,3.20771728515625,0.001444213092327118,0.000958035234361887,0.0008903509005904198
1772795144328761000,3.217760986328125,0.001988421194255352,-0.000009514857083559036,0.0001958272187039256
1772795144338805200,3.22780517578125,-0.0005026996368542314,-0.000831100158393383,0.0004240601556375623
1772795144348850400,3.237850341796875,-0.0013363020261749625,0.0007139910012483597,-0.0006056888378225267
1772795144358894300,3.247894287109375,0.0009074112167581916,0.0007629934698343277,0.0008646423229947686
1772795144368938500,3.2579384765625,0.001463690772652626,0.0005831420421600342,-0.0005909257452003658
1772795144378983400,3.2679833984375,-0.000036734272725880146,0.0002156258560717106,0.0012461227597668767
1772795144389027300,3.27802734375,-0.00014279462629929185,0.00011172238737344742,0.0014498550444841385
1772795144399071500,3.288071533203125,-0.00008447142317891121,-0.0017588818445801735,0.0010660935658961535
1772795144409115400,3.298115478515625,-0.00024779303930699825,0.00011866167187690735,-0.0013497526524588466
1772795144419160300,3.308160400390625,0.0019828705117106438,-0.00215328112244606,0.0005256454460322857
1772795144429204500,3.31820458984375,0.0004755499539896846,0.0009926692582666874,-0.0020220037549734116
1772795144439248400,3.328248291015625,0.0007069786079227924,-0.00005634967237710953,-0.0010462214704602957
1772795144449293300,3.338293212890625,0.00006791017949581146,-0.00020982883870601654,0.0015768214361742139
1772795144459337500,3.34833740234375,0.0004982769023627043,0.003262400161474943,0.002785630524158478
1772795144469381400,3.35838134765625,-0.0004755592090077698,-0.0015571573749184608,0.000732512678951025
1772795144479426300,3.36842626953125,-0.0008236343273892999,-0.0010887077078223228,0.0008315821178257465
1772795144489470500,3.378470458984375,-0.00047550478484481573,-0.00040838541463017464,0.00012772809714078903
1772795144499514400,3.388514404296875,-0.0005660522147081792,0.0011620810255408287,-0.0009069099323824048
1772795144509559300,3.398559326171875,0.0010150909656658769,-0.00023253867402672768,-0.0002321437932550907
1772795144519603500,3.408603515625,0.00022200169041752815,0.0002550859935581684,0.00039156852290034294
1772795144529647400,3.4186474609375,0.00035276194103062153,-0.0015037520788609982,0.00218191952444613
1772795144539692300,3.4286923828125,-0.0024182572960853577,-0.0009519453160464764,0.00038614997174590826
1772795144549736400,3.438736328125,-0.001555619528517127,0.0008735097944736481,-0.0016488406108692288
1772795144559780400,3.4487802734375,0.0022521682549268007,-0.0006359699182212353,-0.0005428298027254641
1772795144569824500,3.458824462890625,0.0012396305100992322,-0.0010400316677987576,0.0002411281457170844
1772795144579869400,3.468869384765625,0.0013464234070852399,0.0016215313225984573,0.0010568543802946806
1772795144589913300,3.478913330078125,0.0018929196521639824,0.0008150506764650345,-0.0009800768457353115
1772795144599957500,3.48895751953125,0.001281457720324397,-0.002241192851215601,-0.0011558455880731344
1772795144610002400,3.49900244140625,0.00026286847423762083,-0.0005830251611769199,0.0005473606288433075
1772795144620046300,3.50904638671875,0.0013869887916371226,-0.001600086223334074,-0.0006276259664446115
1772795144630090500,3.519090576171875,-0.0001085010590031743,-0.0015516378916800022,0.0023764853831380606
1772795144640135400,3.529135498046875,-0.0014747026143595576,0.00026836618781089783,0.001211885130032897
1772795144650179300,3.539179443359375,-0.002352592069655657,-0.00046844733878970146,-0.0003764490829780698
1772795144660223500,3.549223388671875,0.0010511940345168114,0.000165651086717844,-0.0008582149166613817
1772795144670268400,3.559268310546875,-0.0008113117655739188,-0.0012337090447545052,0.0007980724330991507
1772795144680312300,3.569312255859375,-0.0008778907940723002,0.000861399807035923,0.0023648100905120373
1772795144690356500,3.5793564453125,0.0004112750757485628,0.0018925354816019535,-0.0012485829647630453
1772795144700401400,3.5894013671875,0.0020432602614164352,0.00035455962643027306,-0.000191307975910604
1772795144710445300,3.5994453125,0.00025680288672447205,-0.0011203009635210037,-0.0012649318668991327
1772795144720489500,3.609489501953125,-0.0018180658807978034,-0.00036183279007673264,-0.00013548519928008318
1772795144730533400,3.619533447265625,0.0014217474963515997,-0.001291095744818449,-0.0014784596860408783
1772795144740578300,3.629578369140625,0.0006965687498450279,0.0033225645311176777,-0.0025051082484424114
1772795144750622500,3.63962255859375,-0.003554936498403549,0.0015451163053512573,0.0001031489809975028
1772795144760666400,3.649666259765625,0.00040678190998733044,-0.0006088484078645706,-0.0015133898705244064
1772795144770711300,3.659711181640625,0.0016172014875337481,-0.0006363429129123688,0.0018422927241772413
1772795144780755500,3.66975537109375,-0.00020040594972670078,-0.0002456572838127613,0.0005890090251341462
1772795144790799400,3.67979931640625,-0.0006972227129153907,0.0001513427123427391,-0.001443280722014606
1772795144800844500,3.689844482421875,-0.0019792683888226748,-0.0009035356342792511,0.00199539284221828
1772795144810888400,3.699888427734375,0.00005273125134408474,-0.0012693488970398903,0.00261934963054955
1772795144820932400,3.709932373046875,0.002196309622377157,0.0010326877236366272,-0.0004046699614264071
1772795144830977500,3.7199775390625,0.0022997341584414244,-0.00008986284956336021,0.000896953628398478
1772795144841021200,3.730021240234375,-0.0012254921020939946,0.002354386728256941,0.00004447565879672766
1772795144851065300,3.7400654296875,0.0009460600558668375,-0.002514233812689781,0.001012088148854673
1772795144861110500,3.750110595703125,-0.0016228251624852419,-0.0013608187437057495,0.0008656141581013799
1772795144871154400,3.760154541015625,0.0013550369767472148,0.0002831253223121166,0.00018002523574978113
1772795144881198300,3.7701982421875,0.0006082867039367557,-0.0010577761568129063,-0.0028234878554940224
1772795144891242500,3.780242431640625,-0.0006222258671186864,-0.0015437370166182518,-0.00034985016100108624
1772795144901287400,3.790287353515625,-0.00039665616350248456,0.0008408576250076294,0.001569756306707859
1772795144911331300,3.800331298828125,0.0004534488543868065,0.000878223218023777,0.0016469425754621625
1772795144921375500,3.81037548828125,-0.0006837209220975637,0.0005906019359827042,-0.0000875742407515645
1772795144931420400,3.82042041015625,0.0002386749256402254,0.000052731484174728394,0.0017363060032948852
1772795144941464300,3.83046435546875,-0.0020159571431577206,0.0005773738957941532,0.0001341484021395445
1772795144951508500,3.840508544921875,-0.00018386472947895527,0.000039519742131233215,-0.003988201264292002
1772795144961553400,3.850553466796875,0.0007024352671578526,-0.0001154760830104351,0.000925597152672708
1772795144971597300,3.860597412109375,-0.0013426953228190541,0.0025032516568899155,0.00021235120948404074
1772795144981641500,3.870641357421875,0.0006799754919484258,-0.0009585912339389324,-0.0012049830984324217
1772795144991686400,3.880686279296875,0.0013497114414349198,0.0024357964284718037,-0.0006058692233636975
1772795145001730600,3.89073046875,-0.00007348181679844856,0.002360429149121046,-0.0025782063603401184
1772795145011774200,3.900774169921875,0.00015380163677036762,0.00017894897609949112,-0.000347827619407326
1772795145021818400,3.910818359375,0.000007327762432396412,-0.00018350733444094658,0.0012644501402974129
1772795145031863600,3.920863525390625,-0.00009355612564831972,0.0010118568316102028,0.0006989561952650547
1772795145041907200,3.9309072265625,-0.000448555510956794,-0.001113345380872488,-0.0011604628525674343
1772795145051951400,3.940951416015625,0.0009474133839830756,0.0018748929724097252,-0.0016162839019671082
1772795145061996500,3.95099658203125,-0.0018084256444126368,-0.0021941503509879112,0.0009099907474592328
1772795145072040200,3.961040283203125,0.0007731405785307288,-0.0002634860575199127,0.0023383377119898796
1772795145082084400,3.97108447265625,0.0005246676737442613,0.0010563763789832592,0.0012906503397971392
1772795145092129500,3.981129638671875,-0.002346556866541505,0.00031965505331754684,-0.0003879827563650906
1772795145102171400,3.99117138671875,0.00006999552715569735,0.0012839855626225471,0.0003236138727515936
1772795145112216600,4.001216552734375,0.0006628398550674319,0.0007556593045592308,0.0012661783257499337
1772795145122260200,4.01126025390625,0.0006039839936420321,0.0008206404745578766,0.0007465955568477511
1772795145132304400,4.021304443359375,0.000025568180717527866,0.0007149050943553448,-0.00012557185254991055
1772795145142349600,4.031349609375,-0.001277250237762928,0.002215862739831209,-0.0004001437919214368
1772795145152393200,4.041393310546875,-0.0016918900655582547,-0.000706142745912075,0.000680859200656414
1772795145162437400,4.051437255859375,0.0014293347485363483,-0.00008695805445313454,0.002293669618666172
1772795145172482600,4.061482666015625,-0.00012445345055311918,0.0020359596237540245,-0.0016451559495180845
1772795145182526500,4.0715263671875,0.0011754354927688837,-0.0023135151714086533,0.0019527747062966228
1772795145192570400,4.0815703125,0.0004911069991067052,-0.0003439835272729397,-0.00018096971325576305
1772795145202614300,4.0916142578125,-0.0011880160309374332,0.0010824054479599,-0.0026084408164024353
1772795145212659500,4.101659423828125,-0.0007654830114915967,0.0003056400455534458,-0.0009543475462123752
1772795145222703400,4.111703369140625,0.000929352710954845,0.0009290860034525394,0.0003418129635974765
1772795145232747300,4.121747314453125,-0.0007821247563697398,0.002270893659442663,0.0017166666220873594
1772795145242792400,4.13179248046875,0.0005952621577307582,0.002014430705457926,-0.0012807210441678762
1772795145252836400,4.14183642578125,-0.0011747345561161637,-0.0003293203189969063,0.000017269747331738472
1772795145262880300,4.15188037109375,0.0009781649569049478,0.00121238362044096,-0.0007292142836377025
1772795145272925400,4.161925537109375,-0.0027093118987977505,0.0006265547126531601,-0.0023501538671553135
1772795145282969600,4.171969482421875,0.0003296212526038289,0.0004787491634488106,-0.0014915508218109608
1772795145293013200,4.18201318359375,0.0006361629348248243,0.002164738718420267,-0.001571814063936472
1772795145303058400,4.192058349609375,-0.00045200472231954336,0.002229719888418913,0.001307595637626946
1772795145313102600,4.2021025390625,0.0009528551017865539,-0.0015928237698972225,-0.00031551544088870287
1772795145323146200,4.212146240234375,0.00004045618698000908,-0.001212790608406067,0.0011225914349779487
1772795145333191400,4.22219140625,-0.0013429237296804786,0.001148866955190897,0.0007631381740793586
1772795145343235600,4.232235595703125,0.000631011207588017,-0.0006314562633633614,0.002619893755763769
1772795145353278700,4.24227880859375,0.0002169653307646513,0.0023366431705653667,0.001329963793978095
1772795145363323600,4.25232373046875,-0.0020286119543015957,-0.0012485040351748466,-0.0021289498545229435
1772795145373367600,4.262367431640625,0.0002449186285957694,0.0007088044658303261,-0.000631967035587877
1772795145383411700,4.27241162109375,0.002863871166482568,0.00009281560778617859,0.0009552770061418414
1772795145393455600,4.28245556640625,0.00001561688259243965,-0.0006407499313354492,-0.0000935469288378954
1772795145403500500,4.29250048828125,0.000322945648804307,0.0003632619045674801,0.00011098384857177734
1772795145413544700,4.302544677734375,0.000604787957854569,-0.0014725006185472012,-0.0001601593103259802
1772795145423588900,4.3125888671875,0.001634099637158215,-0.00033506425097584724,-0.0005561714060604572
1772795145433633500,4.322633544921875,0.0003251460148021579,-0.0006909244693815708,0.0009388349717482924
1772795145443679500,4.332679443359375,-0.002022164175286889,-0.0010304776951670647,0.0015942390309646726
1772795145453723600,4.3427236328125,0.00029875931795686483,-0.0003671362064778805,0.0011706440709531307
1772795145463767800,4.352767822265625,0.0010167474392801523,-0.0007072216831147671,-0.0011393817840144038
1772795145473812500,4.3628125,-0.002781311981379986,0.003972100559622049,-0.002590320073068142
1772795145483856600,4.372856689453125,0.00026694219559431076,-0.003384349402040243,-0.0007796369027346373
1772795145493900800,4.38290087890625,-0.0011238231090828776,0.0013640294782817364,-0.00012767896987497807
1772795145503945500,4.392945556640625,0.00043812079820781946,0.0021464661695063114,0.0007511641597375274
1772795145513989600,4.40298974609375,-0.000638798694126308,-0.0004911101423203945,-0.0007580996607430279
1772795145524033500,4.413033447265625,-0.0007882020436227322,0.0005086404271423817,0.0021849595941603184
1772795145534077700,4.42307763671875,0.000014881719835102558,0.0022882940247654915,0.0004951361333951354
1772795145544122600,4.43312255859375,-0.0028362986631691456,-0.0009383922442793846,-0.001172268996015191
1772795145554166500,4.44316650390625,0.002993110567331314,-0.00028804969042539597,-0.00020630215294659138
1772795145564210700,4.453210693359375,-0.00025328295305371284,0.0011433991603553295,-0.0018484073225408792
1772795145574255600,4.463255615234375,0.001025957753881812,-0.00000908784568309784,-0.001061495509929955
1772795145584299500,4.473299560546875,-0.0002465005964040756,-0.0011963248252868652,0.0012716997880488634
1772795145594343700,4.48334375,0.0005102027207612991,-0.0011624069884419441,0.001989813055843115
1772795145604388600,4.493388671875,-0.0008863589027896523,0.0005995403043925762,-0.000324473949149251
1772795145614432500,4.5034326171875,0.001406702445819974,-0.0009597763419151306,0.001943086157552898
1772795145624476700,4.5134765625,0.000018929247744381428,-0.001638882327824831,-0.00022925424855202436
1772795145634521600,4.523521484375,-0.00031973852310329676,-0.00001914147287607193,-0.001094637205824256
1772795145644565500,4.5335654296875,-0.001010296167805791,-0.00012513529509305954,0.0016819745069369674
1772795145654609700,4.543609619140625,0.00019532092846930027,-0.0004793698899447918,0.0011676857247948647
1772795145664654800,4.55365478515625,-0.0003106796066276729,0.0004950808361172676,-0.001821179874241352
1772795145674698500,4.563698486328125,0.00019678776152431965,-0.00018137972801923752,-0.002557342406362295
1772795145684742700,4.57374267578125,0.0008106464520096779,0.0010005314834415913,0.00010715005919337273
1772795145694786600,4.58378662109375,-0.000060972291976213455,0.0016788914799690247,0.0008171962108463049
1772795145704831500,4.59383154296875,-0.0006058550206944346,0.0003321305848658085,-0.0007940161740407348
1772795145714875600,4.603875732421875,-0.00002737820614129305,0.00004787743091583252,-0.0012467376654967666
1772795145724919600,4.61391943359375,0.00046610552817583084,-0.0015958254225552082,0.0012542370241135359
1772795145734964700,4.62396484375,-0.0002869274467229843,-0.0007740617729723454,-0.000676188210491091
1772795145745008600,4.634008544921875,0.00045076815877109766,0.0002821478992700577,0.0008138504344969988
1772795145755052500,4.644052490234375,0.002475753193721175,0.0013701538555324078,0.0005634748376905918
1772795145765097700,4.65409765625,0.0003015486290678382,-0.0015044622123241425,0.001659365720115602
1772795145775141600,4.6641416015625,-0.0014424541732296348,0.001245083287358284,0.0008005845593288541
1772795145785185500,4.674185546875,0.0004473249427974224,-0.0003075394779443741,0.0018964753253385425
1772795145795230700,4.684230712890625,-0.0003976127482019365,-0.002590787597000599,-0.0006372636999003589
1772795145805274600,4.694274658203125,-0.0007155941566452384,0.00024467986077070236,-0.0016926743555814028
1772795145815318500,4.704318603515625,0.0003131378907710314,0.00010938756167888641,0.0012271541636437178
1772795145825363700,4.71436376953125,0.0006497615249827504,-0.00014867261052131653,0.00009025062900036573
1772795145835407600,4.72440771484375,0.002062802668660879,-0.0010722181759774685,-0.000056170509196817875
1772795145845451500,4.734451416015625,-0.00005707377567887306,-0.00005142856389284134,-0.0012490004301071167
1772795145855496700,4.74449658203125,0.00014866981655359268,0.0035061375238001347,-0.00026253052055835724
1772795145865540900,4.754540771484375,-0.003171226941049099,-0.00018527032807469368,-0.0008673344273120165
1772795145875584500,4.76458447265625,0.00026668061036616564,-0.0011932393535971642,-0.001249900902621448
1772795145885628700,4.774628662109375,0.001395061961375177,-0.0014289291575551033,0.0003123093629255891
1772795145895673900,4.784673828125,0.00012240197975188494,0.0018148268572986126,-0.0008730990230105817
1772795145905717500,4.794717529296875,0.0012430601054802537,0.0015197484754025936,-0.00017295393627136946
1772795145915761700,4.80476171875,-0.0003420602297410369,0.0010429234243929386,-0.0003839134005829692
1772795145925806800,4.814806884765625,-0.0007567144348286092,0.000013878103345632553,-0.0018169604009017348
1772795145935850500,4.8248505859375,-0.00036432058550417423,-0.0009740726090967655,0.0009136428125202656
1772795145945894700,4.834894775390625,0.0007712513906881213,0.0011053234338760376,-0.00036787032149732113
1772795145955939800,4.84493994140625,0.0001596605870872736,-0.00196779053658247,0.0006646058754995465
1772795145965983700,4.854983642578125,0.0006874991813674569,0.000005878042429685593,-0.0004331492236815393
1772795145976027600,4.865027587890625,-0.001574935857206583,-0.00037419283762574196,-0.0022286567836999893
1772795145986072800,4.87507275390625,0.000359051744453609,0.00043221237137913704,0.00036366411950439215
1772795145996116700,4.88511669921875,-0.0016342889284715056,0.0012960471212863922,0.0004886416718363762
1772795146006160600,4.89516064453125,0.002278693486005068,-0.001054192427545786,-0.0002695602597668767
1772795146016205600,4.90520556640625,-0.0012735759373754263,-0.00025399914011359215,0.0006198309129104018
1772795146026249700,4.915249755859375,0.0006681347731500864,-0.000304599292576313,0.0006083792541176081
1772795146036293600,4.925293701171875,0.0024161518085747957,-0.0000387006439268589,-0.000152199761942029
1772795146046338600,4.935338623046875,-0.00037590618012472987,-0.000498894602060318,-0.0016941700596362352
1772795146056382700,4.9453828125,-0.0002007003640756011,-0.0013081268407404423,-0.0007116114138625562
1772795146066427000,4.955427001953125,-0.00038658897392451763,0.0009275968186557293,-0.0010780623415485024
1772795146076470500,4.965470458984375,-0.0006523664342239499,-0.0011294372379779816,-0.0006231003790162504
1772795146086515700,4.975515625,-0.00127767666708678,-0.001322516705840826,-0.0007876837626099586
1772795146096559900,4.985559814453125,-0.000589152448810637,0.0005296985618770123,0.0005794274620711803
1772795146106603500,4.995603515625,-0.002118605887517333,0.0012229192070662975,-0.0009516237769275904
1772795146116648700,5.005648681640625,-0.0010401431936770678,-0.0021638115867972374,-0.0009638725314289331
1772795146126692900,5.01569287109375,0.0004339164588600397,-0.0027691482100635767,0.003099312074482441
1772795146136736500,5.025736572265625,-0.0013215021463111043,0.0024888301268219948,-0.002194688655436039
1772795146146781700,5.03578173828125,0.00018984172493219376,0.0011266237124800682,0.00008843920659273863
1772795146156825900,5.045825927734375,0.0014146937755867839,0.0004499522037804127,0.0006229561986401677
1772795146166869800,5.055869873046875,-0.0014695096760988235,-0.0001820158213376999,-0.00015841529238969088
1772795146176914700,5.065914794921875,-0.0015497050480917096,0.00001864740625023842,-0.0005018975934945047
1772795146186958600,5.07595849609375,0.001474047894589603,-0.00017789378762245178,-0.0018249560380354524
1772795146197002800,5.086002685546875,0.0008199854055419564,-0.0016804691404104233,-0.00047408038517460227
1772795146207047700,5.096047607421875,0.0005259724566712976,-0.0008716671727597713,0.0008140905993059278
1772795146217091600,5.106091552734375,-0.0008391836890950799,-0.00219979090616107,0.0005286207888275385
1772795146227135700,5.1161357421875,-0.0011560998391360044,-0.00006153900176286697,0.0007454019505530596
1772795146237180700,5.1261806640625,0.0006065586348995566,-0.0002609752118587494,-0.0003996084560640156
1772795146247224600,5.136224609375,0.0009668843122199178,-0.00003354158252477646,0.0007407572120428085
1772795146257268700,5.146268798828125,0.0024181732442229986,-0.00275996420532465,0.00515963789075613
1772795146267312600,5.156312744140625,0.000351027469150722,-0.00023129256442189217,0.0006383893778547645
1772795146277357600,5.166357666015625,0.0027327477000653744,0.0013155951164662838,-0.0006400446291081607
1772795146287401700,5.176401611328125,-0.0002638408914208412,-0.00109856016933918,0.0008167044725269079
1772795146297446000,5.18644580078125,-0.00021281687077134848,0.0023171957582235336,0.000800335081294179
1772795146307490600,5.196490478515625,-0.0016314827371388674,0.0000010444782674312592,-0.0010348493233323097
1772795146317534700,5.20653466796875,0.0005841378588229418,-0.00025583291426301,0.0015488547505810857
1772795146327578600,5.21657861328125,-0.0006955110584385693,-0.0003636907786130905,0.0019544539973139763
1772795146337623600,5.22662353515625,0.0005571285728365183,-0.0037301958072930574,0.0004099381621927023
1772795146347668500,5.23666845703125,-0.000910273171029985,0.0006525684148073196,-0.00036131334491074085
1772795146357712400,5.24671240234375,-0.0007355500129051507,0.0001240926794707775,-0.0012572294799610972
1772795146367757300,5.25675732421875,-0.0011675147106871009,-0.0003334386274218559,-0.0016902594361454248
1772795146377801500,5.266801513671875,0.0005950601771473885,-0.00022867228835821152,0.00018966535571962595
1772795146387845600,5.276845703125,0.00314770033583045,-0.00047448184341192245,0.0025436333380639553
1772795146397890300,5.286890380859375,-0.0011233951663598418,0.0010422468185424805,1.6356352716684341e-7
1772795146407934500,5.2969345703125,-0.0003308384330011904,-0.000456047710031271,-0.001850467175245285
1772795146417978600,5.306978515625,0.0001024284865707159,0.0016425005160272121,-0.0003662421368062496
1772795146428023300,5.317023193359375,-0.00003978435415774584,0.0008467482402920723,-0.001280238968320191
1772795146438067500,5.3270673828125,0.0022032875567674637,-0.00037793582305312157,0.00015600246842950583
1772795146448111400,5.337111328125,0.0005404097028076649,0.0017621801234781742,-0.00013374944683164358
1772795146458155500,5.347155517578125,-0.0006133062415756285,-0.001274122390896082,0.0004668690962716937
1772795146468200400,5.357200439453125,-0.0013592576142400503,-0.00036332104355096817,0.00150923035107553
1772795146478244400,5.367244384765625,-0.0022019813768565655,0.0007833978161215782,-0.0021673128940165043
1772795146488288500,5.37728857421875,-0.00046826363541185856,0.0002536950632929802,0.000960037112236023
1772795146498333400,5.38733349609375,0.00032318453304469585,0.0006297808140516281,-0.0005348647246137261
1772795146508377300,5.39737744140625,-0.00008747493848204613,-0.0003468003123998642,0.0021040616557002068
1772795146518421500,5.40742138671875,0.0012632593279704452,-0.0007189703173935413,-0.002440424170345068
1772795146528466400,5.417466552734375,-0.0020079014357179403,-0.0010151136666536331,-0.0001956456108018756
1772795146538510300,5.42751025390625,-0.002080715261399746,-0.00005999254062771797,0.000027050497010350227
1772795146548554500,5.437554443359375,-0.00022715528029948473,-0.0013396413996815681,-0.0006951987161301076
1772795146558599400,5.447599365234375,-0.00004574342165142298,0.0018019177950918674,-0.0023449561558663845
1772795146568643300,5.457643310546875,0.0006027363706380129,-0.00007481174543499947,-0.0004019136540591717
1772795146578687500,5.4676875,0.0013585443375632167,0.00016022427007555962,-0.00301649933680892
1772795146588732400,5.477732421875,0.0008906269213184714,-0.0002480382099747658,-0.00016744958702474833
1772795146598776300,5.4877763671875,0.0007055694004520774,-0.0011230404488742352,-0.0007027150713838637
1772795146608820500,5.497820556640625,-0.0020318939350545406,0.0027467994950711727,0.000677068717777729
1772795146618865400,5.507865478515625,-0.00013754505198448896,-0.0037340393755584955,0.0012314531486481428
1772795146628909300,5.517909423828125,-0.000777236360590905,-0.001583802979439497,-0.0012745815329253674
1772795146638953500,5.527953369140625,-0.0011502290144562721,0.002601446583867073,0.00146732316352427
1772795146648997400,5.537997314453125,0.000050323898904025555,0.0008227210491895676,-0.0004786485806107521
1772795146659042300,5.548042236328125,-0.0004787072539329529,0.0011938521638512611,-0.002023267326876521
1772795146669086500,5.55808642578125,-0.00040520401671528816,-0.001153724268078804,-0.002479200717061758
1772795146679130400,5.56813037109375,0.00006788386963307858,0.0024902895092964172,0.002159329131245613
1772795146689175300,5.57817529296875,-0.00014676700811833143,-0.0005603618919849396,-0.00023218942806124687
1772795146699219500,5.588219482421875,0.000589455128647387,0.00038793450221419334,-0.0008849502191878855
1772795146709263400,5.598263427734375,0.0035988271702080965,-0.0036089373752474785,0.0017699550371617079
1772795146719308300,5.608308349609375,-0.0004440162447281182,-0.000005553942173719406,-0.0030054966919124126
1772795146729352400,5.6183525390625,0.002230063546448946,-0.0009669549763202667,0.000700291944667697
1772795146739396400,5.628396240234375,-0.0004215455846861005,0.001678558997809887,-0.0005723368958570063
1772795146749441300,5.638441162109375,-0.0015166373923420906,0.00040423590689897537,-0.001410433673299849
1772795146759485400,5.6484853515625,-0.0022785053588449955,-0.0002778652124106884,0.0005227187648415565
1772795146769529300,5.658529296875,-0.00015676510520279408,-0.0012254179455339909,0.0005203218897804618
1772795146779574300,5.66857421875,-0.000651955371722579,-0.0022161388769745827,0.0001525243278592825
1772795146789618400,5.678618408203125,-0.003425371367484331,0.0015165479853749275,-0.002494391519576311
1772795146799662300,5.688662353515625,-0.0019697106909006834,0.0010786587372422218,-0.000336105702444911
1772795146809707500,5.69870751953125,-0.001533751143142581,-0.0009679803624749184,0.0027062895242124796
1772795146819751400,5.70875146484375,-0.0025588306598365307,-0.001038883812725544,0.0020592762157320976
1772795146829795300,5.71879541015625,-0.001560145290568471,0.002603254746645689,-0.00089896289864555
1772795146839839500,5.728839599609375,-0.0009962694020941854,0.0011649029329419136,-0.0006940180901437998
1772795146849884400,5.738884521484375,-0.0007893417496234179,0.0022839633747935295,-0.00032570294570177794
1772795146859928300,5.74892822265625,-0.0020511560142040253,-0.0021086023189127445,-0.0005082940333522856
1772795146869972500,5.758972412109375,-0.0015781786059960723,0.0011841300874948502,-0.0022089886479079723
1772795146880017400,5.769017333984375,-0.0008115223608911037,0.0021271510049700737,-0.0009201935608871281
1772795146890061300,5.779061279296875,0.00010513770394027233,-0.0007171053439378738,-0.003479491453617811
1772795146900105500,5.78910546875,0.0012227208353579044,-0.003610322019085288,0.00003132736310362816
1772795146910150400,5.799150390625,-0.000641225662548095,0.001253408845514059,-0.0008120957645587623
1772795146920194300,5.8091943359375,-0.0011363105149939656,0.0010307515040040016,0.000441058655269444
1772795146930238500,5.819238525390625,-0.002414627932012081,0.0009655039757490158,-0.0001333851832896471
1772795146940283400,5.829283447265625,0.00024527846835553646,0.0006206436082720757,0.0017013100441545248
1772795146950327300,5.839327392578125,-0.00174916279502213,-0.00012797117233276367,-0.0013000724138692021
1772795146960371500,5.849371337890625,-0.0010339794680476189,0.00006778212264180183,0.0015996984438970685
1772795146970416400,5.85941650390625,0.0005460740067064762,0.0001367577351629734,-0.0012791786575689912
1772795146980460300,5.869460205078125,0.0001729065552353859,-0.0012313374318182468,0.0010015923762694001
1772795146990504400,5.87950439453125,-0.0012111382093280554,0.0015897490084171295,0.0001387281809002161
1772795147000549400,5.88954931640625,-0.0016888664104044437,0.0010549533180892467,-0.0005488432361744344
1772795147010593500,5.899593505859375,-0.00020814879098907113,0.0035492703318595886,-0.0009680248331278563
1772795147020637400,5.909637451171875,0.0011727114906534553,0.0012908740900456905,-0.0026786739472299814
1772795147030681300,5.919681396484375,-0.0023615695536136627,-0.00044311024248600006,-0.0014307167148217559
1772795147040726500,5.9297265625,0.0008492653723806143,0.00017156405374407768,0.0000479439040645957
1772795147050770400,5.9397705078125,0.0010548613499850035,0.0009742407128214836,-0.0018863099394366145
1772795147060814300,5.949814453125,-0.0018361570546403527,0.00025275442749261856,-0.0005688699893653393
1772795147070859500,5.959859619140625,-0.0012081837048754096,0.0008117519319057465,0.0018788414308801293
1772795147080903400,5.9699033203125,-0.0022554807364940643,-0.0005799676291644573,0.0019341172883287072
1772795147090947300,5.979947265625,-0.0005318828043527901,-0.0006524058990180492,-0.0002523380098864436
1772795147100992500,5.989992431640625,0.001198174781166017,0.0020511560142040253,-0.0001576866488903761
1772795147111036400,6.000036376953125,0.0017654279945418239,0.0011073313653469086,0.00035071081947535276
1772795147121080300,6.010080322265625,-0.002739527728408575,-0.0016042855568230152,0.0006322836270555854
1772795147131125500,6.02012548828125,-0.00007157307118177414,0.0003957487642765045,0.00029539375100284815
1772795147141169400,6.03016943359375,0.0025027773808687925,-0.0024002459831535816,0.0010879561305046082
1772795147151213300,6.04021337890625,-0.0001947384444065392,0.0008874260820448399,-0.0021328707225620747
1772795147161258500,6.050258544921875,-0.0013400609605014324,0.0019912519492208958,0.00002792209852486849
1772795147171302400,6.060302490234375,-0.002567245624959469,-0.0004340885207056999,-0.00244908407330513
1772795147181346300,6.07034619140625,-0.00043975497828796506,-0.000573392491787672,0.0012027344200760126
1772795147191391500,6.0803916015625,-0.002247774973511696,0.0007888143882155418,0.0009025961626321077
1772795147201435400,6.090435302734375,-0.0013224304420873523,0.0009938078001141548,0.0011268642265349627
1772795147211479600,6.1004794921875,0.0004131515743210912,-0.0003340444527566433,-0.00033228163374587893
1772795147221523500,6.1105234375,-0.0015577441081404686,0.0020742053166031837,-0.00002528703771531582
1772795147231568400,6.120568359375,0.0012036876287311316,-0.00028908392414450645,0.002211235696449876
1772795147241612500,6.130612548828125,-0.002209132071584463,-0.0017734561115503311,-0.0002538822591304779
1772795147251656200,6.14065625,-0.0012983311899006367,0.00016665691509842873,-0.0012661498039960861
1772795147261701400,6.150701416015625,-0.0015471805818378925,-0.00036200322210788727,-0.0009374359506182373
1772795147271745500,6.16074560546875,0.0017032073810696602,-0.0003553451970219612,0.0010317054111510515
1772795147281789200,6.1707890625,-0.0005712896236218512,0.0011778045445680618,0.000650014029815793
1772795147291834400,6.18083447265625,0.0004423095379024744,-0.0015609902329742908,-0.0010024773655459285
1772795147301878500,6.19087841796875,-0.0009442137088626623,-0.0010234820656478405,-0.0011520475381985307
1772795147311922400,6.20092236328125,-0.0002946687745861709,0.0015991991385817528,0.00018752249889075756
1772795147321967400,6.21096728515625,-0.002399531891569495,-0.000969999935477972,0.0008760883938521147
1772795147332011500,6.221011474609375,-0.001657575136050582,-0.0005851732566952705,0.00001828430686146021
1772795147342055400,6.231055419921875,0.001237582298927009,-0.00037919916212558746,-0.0011392667656764388
1772795147352100400,6.241100341796875,0.0013664792058989406,0.0013092448934912682,0.0012162992497906089
1772795147362144300,6.251144287109375,-0.001003253972157836,0.0017740740440785885,-0.0009632807923480868
1772795147372188400,6.2611884765625,-0.0014756987802684307,0.00030454201623797417,0.0032817977480590343
1772795147382233300,6.2712333984375,0.0011386461555957794,0.0009387694299221039,0.00021817244123667479
1772795147392277200,6.28127734375,0.0004267832264304161,0.0011864430271089077,-0.0017277994193136692
1772795147402321400,6.2913212890625,0.0004362516338005662,-0.0017499839887022972,-0.000641347374767065
1772795147412365300,6.301365234375,0.00036754203028976917,-0.0006045582704246044,-0.00029140798142179847
1772795147422410200,6.31141015625,-0.0008763764053583145,0.0005766847170889378,-0.001171911135315895
1772795147432454400,6.321454345703125,-0.0005314970621839166,0.0016275676898658276,-0.0013455492444336414
1772795147442498300,6.331498291015625,-0.00009114656131714582,0.00023529818281531334,-0.0000766643788665533
1772795147452543200,6.341543212890625,0.0010992863681167364,0.0021581007167696953,-0.0007533736643381417
1772795147462587400,6.35158740234375,0.0018727441783994436,0.0010997243225574493,0.0013469378463923931
1772795147472631300,6.36163134765625,-0.002580860164016485,-0.00022706249728798866,0.00017461448442190886
1772795147482676200,6.37167626953125,0.0017053422052413225,-0.00020921742543578148,-0.001565190963447094
1772795147492720400,6.381720458984375,0.0012531373649835587,0.00019611557945609093,0.001189582864753902
1772795147502764300,6.391764404296875,-0.0009869562927633524,0.0001789354719221592,0.0008090772898867726
1772795147512809200,6.401809326171875,0.0012013630475848913,-0.0009798058308660984,-0.0016783152241259813
1772795147522853400,6.411853271484375,-0.0005691096885129809,0.0010773185640573502,-0.0000024022301658988
1772795147532897300,6.421897216796875,0.0010362438624724746,-0.0006164521910250187,0.0005360889481380582
1772795147542942200,6.431942138671875,0.00151815393473953,0.00043169502168893814,0.00006826210301369429
1772795147552986400,6.441986328125,-0.0011053261114284396,-0.0007337038405239582,-0.0005770218558609486
1772795147563030300,6.4520302734375,-0.0013518108753487468,-0.0004688058979809284,-0.0005926432204432786
1772795147573075200,6.4620751953125,-0.00019573263125494123,-0.0014475174248218536,-0.0017417971976101398
1772795147583119400,6.472119384765625,0.0014893615152686834,0.00026478152722120285,-0.00017991987988352776
1772795147593163300,6.482163330078125,-0.0014438440557569265,0.00029540760442614555,0.0009636414470151067
1772795147603207400,6.49220751953125,0.00013852713163942099,-0.0005600936710834503,-0.000043981592170894146
1772795147613252400,6.50225244140625,-0.0017816119361668825,0.002438358962535858,-0.00013879011385142803
1772795147623296300,6.512296142578125,-0.0006545026553794742,-0.0016595390625298023,-0.0015261545777320862
1772795147633340400,6.52234033203125,0.0007745495531708002,-0.001527979038655758,0.0022155866026878357
1772795147643385000,6.532385009765625,0.0005048859165981412,-0.000580265186727047,-0.000005443464033305645
1772795147653429200,6.54242919921875,-0.0018064716132357717,-0.001684411894530058,0.0004203959833830595
1772795147663473400,6.552473388671875,-0.00036144780460745096,0.00032016681507229805,-0.0022603492252528667
1772795147673518000,6.56251806640625,0.00012910645455121994,0.001163323875516653,0.0013815235579386353
1772795147683562200,6.572562255859375,0.000015256227925419807,0.0022736950777471066,-0.003894178196787834
1772795147693606400,6.5826064453125,-0.002027654554694891,0.0004060198552906513,-0.0004376614815555513
1772795147703651000,6.592651123046875,0.0008394916076213121,0.0006334064528346062,0.0009593928698450327
1772795147713695200,6.6026953125,0.0004506701370701194,0.0032718004658818245,-0.0025562462396919727
1772795147723739400,6.612739501953125,0.0016264283331111073,-0.0008342843502759933,0.0005886864382773638
1772795147733784300,6.622784423828125,0.0014685027999803424,-0.00039752619341015816,0.0018824500730261207
1772795147743828200,6.632828125,0.0011988492915406823,-0.00012422725558280945,-0.000055500539019703865
1772795147753872400,6.642872314453125,-0.0014003958785906434,-0.001277375966310501,0.000996980699710548
1772795147763917300,6.652917236328125,-0.00045019120443612337,-0.000845753587782383,-0.004272114019840956
1772795147773961200,6.662961181640625,0.0018558400915935636,-0.0005746437236666679,-0.0007500835927203298
1772795147784005400,6.67300537109375,-0.00022322352742776275,0.00203701201826334,0.0032460042275488377
1772795147794049300,6.68304931640625,0.0003221918595954776,0.0009115599095821381,0.0014228041982278228
1772795147804094200,6.69309423828125,-0.0002462830161675811,0.0003961697220802307,-0.00048536411486566067
1772795147814138000,6.70313818359375,0.00028794712852686644,0.0016305451281368732,0.0016060163034126163
1772795147824182300,6.713182373046875,0.0011264164932072163,0.0006858566775918007,0.0015980956377461553
1772795147834227200,6.723227294921875,0.0013413336127996445,0.0000943685881793499,-0.0003119235625490546
1772795147844271000,6.73327099609375,-0.0013743317686021328,-0.002221507951617241,0.0009183870861306787
1772795147854315300,6.743315185546875,-0.0015290614683181047,-0.001443598885089159,-0.001061673043295741
1772795147864360400,6.7533603515625,0.00012325576972216368,0.0010625938884913921,-0.0017862017266452312
1772795147874404000,6.763404052734375,0.0016971840523183346,-0.001002687495201826,-0.0030032661743462086
1772795147884448300,6.7734482421875,-0.0010725599713623524,0.002041094470769167,-0.00021761434618383646
1772795147894493400,6.783493408203125,0.0014049788005650043,0.0005180332809686661,-0.0023864926770329475
1772795147904537000,6.793537109375,-0.0013242196291685104,0.0031574033200740814,-0.00103762315120548
1772795147914581200,6.803581298828125,-0.0016925348900258541,0.0011949199251830578,-0.00011883256956934929
1772795147924626400,6.81362646484375,-0.0001740147126838565,0.00003279326483607292,-0.00015094818081706762
1772795147934670300,6.82367041015625,0.0011628922075033188,0.00027034711092710495,0.0031649537850171328
1772795147944714200,6.83371435546875,0.00014708633534610271,0.0012541236355900764,0.0008053570054471493
1772795147954759400,6.843759521484375,0.0011963718570768833,-0.0005919793620705605,-0.0016301037976518273
1772795147964803300,6.85380322265625,0.0024360832758247852,-0.0036567270290106535,-0.0003910583327524364
1772795147974847200,6.86384716796875,0.0021439348347485065,-0.0010175341740250587,-0.0006416618125513196
1772795147984891100,6.87389111328125,-0.001050990424118936,-0.0008791103027760983,0.0035145021975040436
1772795147994936300,6.883936279296875,0.001573554938659072,0.0013241232372820377,-0.0007460228516720235
1772795148004980200,6.893980224609375,-0.0026410664431750774,-0.0004952214658260345,0.0008957274258136749
1772795148015024000,6.904024169921875,0.00040052994154393673,-0.0016238694079220295,-0.00025662226835265756
1772795148025069300,6.9140693359375,0.0021675415337085724,-0.000326408538967371,0.0024125981144607067
1772795148035113200,6.92411328125,0.002318542916327715,-0.0014635785482823849,0.0019289680058136582
1772795148045157000,6.9341572265625,0.002619576407596469,-0.0016053454019129276,-0.00044821540359407663
1772795148055202300,6.944202392578125,-0.0014824906829744577,0.0005776477046310902,-0.0004836354055441916
1772795148065246500,6.95424658203125,0.0005072150379419327,-0.00025674281641840935,0.0010175558272749186
1772795148075290000,6.9642900390625,0.0008965692250058055,0.0034154895693063736,-0.0000751391053199768
1772795148085335300,6.974335205078125,-0.00010224641300737858,-0.0019963691011071205,-0.00009024434257298708
1772795148095379500,6.98437939453125,-0.0005933332722634077,0.0003365599550306797,0.000996325514279306
1772795148105423000,6.994423095703125,-0.0012350211618468165,-0.0007444638758897781,0.002021199092268944
1772795148115468300,7.00446826171875,0.0012742092367261648,0.0030260393396019936,-0.000840101158246398
1772795148125512400,7.014512451171875,0.0007877163589000702,0.0004262351430952549,-0.0002932817442342639
1772795148135556000,7.02455615234375,0.0018143649213016033,-0.0006968197412788868,0.003476156387478113
1772795148145601300,7.034601318359375,0.001495853066444397,0.00133930379524827,0.0008800536161288619
1772795148155645400,7.0446455078125,-0.0010173720074817538,0.0006018746644258499,0.0006108080269768834
1772795148165689300,7.054689453125,0.0011793136363849044,-0.0007144622504711151,-0.0017593884840607643
1772795148175734300,7.064734375,-0.0008705215295776725,0.0002884841524064541,0.0018886096077039838
1772795148185778400,7.0747783203125,0.00013398367445915937,0.003461957909166813,0.0010184375569224358
1772795148195822300,7.084822265625,0.0013185576535761356,-0.0005540885031223297,0.0012924768961966038
1772795148205866200,7.0948662109375,0.0014306158991530538,-0.0007501472719013691,-0.0016629376914352179
1772795148215911400,7.104911376953125,-0.0005539716803468764,0.0008408250287175179,-0.0013976868940517306
1772795148225955300,7.114955322265625,0.0015850922791287303,-0.0005617178976535797,-0.0012147497618570924
1772795148235999200,7.124999267578125,-0.0002977625117637217,0.0009182007052004337,-0.0011106202146038413
1772795148246044400,7.13504443359375,0.002414695918560028,0.000012987758964300156,-0.0020242284517735243
1772795148256088300,7.14508837890625,0.0023513128980994225,0.0012228619307279587,-0.0008737427997402847
1772795148266132500,7.155132568359375,0.000035532633773982525,-0.002114478498697281,0.0018394625512883067
1772795148276177400,7.165177490234375,0.0008304861839860678,0.00006052479147911072,0.00013637111987918615
1772795148286221300,7.17522119140625,-0.00033800682285800576,0.0012270091101527214,0.00424386840313673
1772795148296265500,7.185265380859375,-0.002456817775964737,-0.0003479844890534878,-0.0015591592527925968
1772795148306310100,7.19531005859375,0.0009129088139161468,-0.0012925579212605953,-0.0017359871417284012
1772795148316354300,7.205354248046875,0.0009163710055872798,0.001360749825835228,0.003248385153710842
1772795148326398500,7.2153984375,-0.000018076621927320957,-0.0024233092553913593,0.0008055217331275344
1772795148336443100,7.225443115234375,-0.001419165637344122,-0.0005015726201236248,0.002173587679862976
1772795148346487300,7.2354873046875,0.0009214860619977117,-0.000044971704483032227,0.001214723102748394
1772795148356531500,7.245531494140625,-0.0005800040671601892,-0.00011314870789647102,-0.00026998925022780895
1772795148366576400,7.255576416015625,0.0014425597619265318,-0.0008579553104937077,-0.0006946164648979902
1772795148376620500,7.26562060546875,-0.0006179279880598187,-0.0006041559390723705,0.0013690671185031533
1772795148386664400,7.27566455078125,-0.00005739019252359867,0.002222331240773201,-0.0005749819101765752
1772795148396708600,7.28570849609375,-0.000027030124329030514,-0.00007331371307373047,-0.0005347681581042707
1772795148406753300,7.295753173828125,-0.0003910104278475046,-0.0015698797069489956,-0.0016385938506573439
1772795148416797400,7.30579736328125,0.0010215302463620901,0.0009574601426720619,-0.0002580111031420529
1772795148426841600,7.315841552734375,-0.00036007550079375505,0.0002590254880487919,-0.000015791854821145535
1772795148436886300,7.32588623046875,-0.0015278717037290335,-0.0003436477854847908,-0.0016456464072689414
1772795148446930400,7.335930419921875,-0.00030228536343201995,0.0010170629248023033,0.0019862931221723557
1772795148456974600,7.345974609375,0.0012737733777612448,-0.0024887220934033394,0.0016241032863035798
1772795148467019300,7.356019287109375,-0.001371809164993465,-0.00003359699621796608,-0.0036004469729959965
1772795148477063400,7.3660634765625,-0.0018043065210804343,0.0009251409210264683,0.0011050923494622111
1772795148487107600,7.376107666015625,0.0009462498128414154,-0.00011744862422347069,0.0021040113642811775
1772795148497152300,7.38615234375,-0.00011794944293797016,-0.0016996324993669987,0.002465668600052595
1772795148507196400,7.396196533203125,-0.003050772473216057,0.0006486107595264912,-0.0028053405694663525
1772795148517240600,7.406240478515625,0.0011303904466331005,0.0007812362164258957,0.00012360408436506987
1772795148527285200,7.41628515625,-0.001818561926484108,-0.0011643324978649616,0.0003775707446038723
1772795148537329400,7.426329345703125,0.0007561822421848774,-0.0011318419128656387,-0.0005119250854477286
1772795148547373300,7.436373291015625,-0.0024703326635062695,0.0007722019217908382,-0.003723742440342903
1772795148557418200,7.446418212890625,0.0034322976134717464,0.0009032296948134899,-0.0002453876659274101
1772795148567462400,7.45646240234375,0.001705043949186802,-0.00017342902719974518,-0.0005132465157657862
1772795148577506300,7.46650634765625,0.00017186219338327646,-0.0010642562992870808,0.000054273055866360664
1772795148587551200,7.47655126953125,-0.0015027355402708054,0.0013146833516657352,-0.0007582694524899125
1772795148597595400,7.486595458984375,0.00048291729763150215,-0.0005181035958230495,0.001994373742491007
1772795148607639300,7.496639404296875,-0.0023138609249144793,0.0007162876427173615,0.0013133041793480515
1772795148617683500,7.506683349609375,0.0001578188966959715,0.0018214997835457325,-0.00021561654284596443
1772795148627728400,7.516728271484375,0.00017661810852587223,-0.0013712807558476925,-0.0001776955323293805
1772795148637772300,7.526772216796875,-0.0016963831149041653,0.00023007765412330627,-0.0010903608053922653
1772795148647816400,7.53681640625,-0.002645100001245737,0.0012455172836780548,0.0011478771921247244
1772795148657861400,7.546861328125,-0.0000860684085637331,-0.0006027165800333023,0.00010604853741824627
1772795148667905300,7.5569052734375,0.0016486693639308214,-0.0009274124167859554,0.002068445086479187
1772795148677949400,7.566949462890625,-0.0016840104945003986,0.0019530626013875008,-0.0001313261454924941
1772795148687994400,7.576994384765625,-0.0007099368376657367,-0.0017328280955553055,0.0012581691844388843
1772795148698038300,7.587038330078125,0.0014714584685862064,-0.0016390844248235226,0.0016216906951740384
1772795148708082400,7.59708251953125,0.0009492570534348488,0.0005967621691524982,-0.00022138748317956924
1772795148718127600,7.607127685546875,-0.0015746206045150757,-0.0004922044463455677,-0.0007249912014231086
1772795148728171300,7.617171142578125,-0.00034102931385859847,0.001812112983316183,0.00047192443162202835
1772795148738215400,7.62721533203125,0.0005713696591556072,-0.000039050355553627014,0.0019055040320381522
1772795148748260600,7.637260498046875,-0.000989255728200078,0.00046060746535658836,-0.0016471568960696459
1772795148758304300,7.64730419921875,0.0004938587080687284,-0.0010169143788516521,0.002280473243445158
1772795148768348400,7.657348388671875,-0.0015386895975098014,-0.0011118976399302483,0.00009188230615109205
1772795148778393600,7.6673935546875,-0.0016284381272271276,0.000010891351848840714,0.001320398529060185
1772795148788437200,7.677437255859375,-0.0014021224342286587,-0.0015753423795104027,0.0011267295340076089
1772795148798481400,7.6874814453125,0.00020349735859781504,-0.0013604252599179745,-0.00022748787887394428
1772795148808525300,7.697525390625,0.00028052786365151405,0.0018538804724812508,0.002425192855298519
1772795148818570500,7.707570556640625,0.004644650034606457,0.000255717895925045,-0.0007732636295258999
1772795148828614400,7.717614501953125,-0.00132209830917418,-0.0006863400340080261,-0.003397804917767644
1772795148838658300,7.727658203125,0.000009215902537107468,-0.0026845098473131657,-0.003874510759487748
1772795148848703500,7.737703369140625,0.0003013415262103081,-0.0005318853072822094,0.0010613001650199294
1772795148858747400,7.747747314453125,0.00006991287227720022,-0.0001521185040473938,0.0013334752293303609
1772795148868791300,7.757791259765625,0.00016329193022102118,0.0006774184294044971,0.0011547538451850414
1772795148878836500,7.76783642578125,0.002272515557706356,-0.0035064073745161295,0.0011861792299896479
1772795148888880400,7.77788037109375,-0.00031280197435989976,-0.0016205571591854095,0.0010715886019170284
1772795148898924300,7.78792431640625,0.0012211789144203067,-0.0006594224832952023,0.002025533001869917
1772795148908969500,7.797969482421875,0.0010666816961020231,-0.0007426906377077103,-0.0015383872669190168
1772795148919013400,7.808013427734375,0.0002107418840751052,-0.00023828819394111633,-0.0006291840691119432
1772795148929057300,7.818057373046875,0.0020880927331745625,-0.0006382432766258717,0.002152270171791315
1772795148939102500,7.8281025390625,0.0014204384060576558,0.00015484588220715523,0.0014380101347342134
1772795148949146600,7.838146728515625,0.0014883989933878183,0.0016914070583879948,-0.000990529078990221
1772795148959190300,7.848190185546875,-0.001617911970242858,-0.00007187202572822571,-0.0007274087984114885
1772795148969235500,7.8582353515625,0.0011811399599537253,0.00003475043922662735,0.0010942203225567937
1772795148979279600,7.868279541015625,-0.0013938705669716,0.00016684317961335182,0.0007365577621385455
1772795148989323300,7.8783232421875,0.0007885155500844121,0.002466200850903988,0.0009009646018967032
1772795148999367400,7.888367431640625,0.002148059196770191,0.0028475653380155563,0.00004262791480869055
1772795149009412600,7.89841259765625,-0.00009262666571885347,0.0004769889637827873,-0.000010312534868717194
1772795149019456500,7.90845654296875,-0.0012846575118601322,-0.0003611082211136818,-0.0028175506740808487
1772795149029500400,7.91850048828125,0.0006786258891224861,-0.00043021608144044876,0.0009790497133508325
1772795149039545300,7.92854541015625,0.0008522641146555543,-0.0003114393912255764,-0.0008010070887394249
1772795149049589500,7.938589599609375,0.0012419489212334156,-0.0012836572714149952,0.0013736349064856768
1772795149059633400,7.94863330078125,-0.0006707332795485854,-0.0006026867777109146,0.0005789477145299315
1772795149069678300,7.95867822265625,-0.0014267850201576948,0.0016846125945448875,0.00010939489584416151
1772795149079722500,7.968722412109375,0.0009761853143572807,-0.0005918578244745731,0.0003946194192394614
1772795149089766400,7.978766357421875,-0.0008813324966467917,0.0016878522001206875,0.00021314423065632582
1772795149099809500,7.9888095703125,-0.00013165269047021866,-0.0006943456828594208,0.00007679045666009188
1772795149109853400,7.998853515625,-0.00012219208292663097,0.002102995291352272,0.0007741058943793178
1772795149119898400,8.0088984375,-0.0009965079370886087,0.00005742069333791733,0.0020795874297618866
1772795149129942500,8.018942626953125,-0.0013376582646742463,0.00011317012831568718,-0.000657836499158293
1772795149139986400,8.028986328125,0.0000482507748529315,0.000963783822953701,0.0023571280762553215
1772795149150031400,8.03903125,-0.0009238692000508308,-0.00006797630339860916,0.0011246216017752886
1772795149160075500,8.049075439453125,-0.0004048190894536674,0.0008191224187612534,0.0005507104797288775
1772795149170119400,8.059119384765625,0.003216467797756195,-0.0011667483486235142,0.0013036729069426656
1772795149180164400,8.069164306640625,-0.002438221825286746,-0.0014346619136631489,0.0005758310435339808
1772795149190208500,8.07920849609375,-0.0008390829898416996,0.0011654803529381752,-0.0010676751844584942
1772795149200252400,8.08925244140625,-0.0027035619132220745,-0.00009872252121567726,0.001954746199771762
1772795149210297300,8.09929736328125,-0.001237079850398004,-0.00002106325700879097,-0.00034272053744643927
1772795149220341500,8.109341552734374,-0.00008712685666978359,-0.00034250644966959953,0.0009502441389486194
1772795149230385400,8.119385498046874,-0.002295542974025011,0.0010134540498256683,-0.0008616182603873312
1772795149240429300,8.12942919921875,-0.0012158975005149841,0.003147444687783718,0.00039033382199704647
1772795149250474500,8.139474609375,-0.0015318128280341625,0.0003570062108337879,-0.0027460437268018723
1772795149260518400,8.149518310546876,0.0005486486479640007,0.00037138722836971283,0.00037970824632793665
1772795149270562300,8.159562255859376,-0.0004318542778491974,0.0007016910240054131,-0.0025228052400052547
1772795149280607500,8.169607421875,0.0006842765724286437,-0.0017441562376916409,0.00044422235805541277
1772795149290651400,8.1796513671875,-0.00018840027041733265,0.0005487008020281792,-0.0011950661428272724
1772795149300695300,8.1896953125,0.0008598199347034097,-0.0003245496191084385,-0.00026908505242317915
1772795149310740500,8.199740478515626,-0.0017796216998249292,0.0002994467504322529,0.000397644005715847
1772795149320784400,8.209784423828125,0.0001295985421165824,0.000857645645737648,-0.00006681133527308702
1772795149330828500,8.21982861328125,0.00020673731341958046,0.0013305661268532276,-0.0007037859759293497
1772795149340873500,8.22987353515625,-0.0008252375992015004,-0.0002814452163875103,-0.0002664949279278517
1772795149350917400,8.23991748046875,0.00203956151381135,0.0006122402846813202,-0.0014840475050732493
1772795149360961300,8.249961181640625,0.0025245235301554203,-0.0027971386443823576,-0.0015421044081449509
1772795149371006200,8.260006103515625,0.0014851182932034135,-0.0032869656570255756,0.0010449567344039679
1772795149381050000,8.270050048828125,0.0011378420749679208,0.0006939275190234184,0.0034316815435886383
1772795149391094300,8.28009423828125,-0.0009883210295811296,0.00020475313067436218,0.0011447444558143616
1772795149401139200,8.29013916015625,-0.0014586352044716477,0.0018780170939862728,-0.0019463866483420134
1772795149411183000,8.30018310546875,0.0007452877471223474,-0.0015709814615547657,0.0021492126397788525
1772795149421227300,8.310227294921875,0.00102119124494493,0.001123072113841772,-0.0006718740332871675
1772795149431271200,8.320271240234375,-0.0010920725762844086,-0.000044809188693761826,0.0003704754635691643
1772795149441316000,8.330316162109375,-0.00010430614929646254,0.0008955532684922218,-0.000225540017709136
1772795149451361300,8.340361328125,-0.0001317894784733653,0.0013711578212678432,-0.0009726654971018434
1772795149461405200,8.3504052734375,0.0011140372371301055,0.0005397195927798748,0.001126171788200736
1772795149471450000,8.3604501953125,-0.00028657150687649846,0.00017017964273691177,0.000664875959046185
1772795149481494300,8.370494384765625,-0.001627473160624504,0.0006333035416901112,0.0010465070372447371
1772795149491538000,8.380537841796874,0.0021882308647036552,-0.002168122213333845,-0.00011878542136400938
1772795149501583000,8.3905830078125,-0.00016840023454278708,0.00027772504836320877,-0.0012303887633606791
1772795149511627300,8.400627197265624,-0.00023878301726654172,-0.00009275134652853012,0.0010883574141189456
1772795149521671200,8.410671142578124,0.0005015757633373141,0.0007690475322306156,0.0017908994341269135
1772795149531716000,8.420716064453124,-0.001518090721219778,0.00034313974902033806,0.0005800913786515594
1772795149541760300,8.43076025390625,0.0013815589481964707,-0.0038952811155468225,0.002766014076769352
1772795149551804200,8.44080419921875,-0.00142935651820153,-0.0008967039175331593,0.0008823000825941563
1772795149561849000,8.45084912109375,0.001792269409634173,-0.0011481065303087234,-0.0009893695823848248
1772795149571893200,8.460893310546876,-0.0012321140384301543,0.0009449860081076622,-0.0015862260479480028
1772795149581937200,8.470937255859376,0.00008002540562301874,-0.0006507802754640579,0.0007589537417516112
1772795149591982000,8.480982177734376,-0.0014131549978628755,-0.0004686666652560234,-0.0015131075633689761
1772795149602026200,8.491026123046876,-0.0014227423816919327,-0.0010662800632417202,0.0005684192292392254
1772795149612070100,8.501070068359375,0.0010794766712933779,-0.000860095489770174,-0.0024322019889950752
1772795149622115000,8.511114990234375,0.00033352524042129517,0.00238283583894372,0.0014541489072144032
1772795149632159200,8.5211591796875,-0.00034260208485648036,-0.0017172237858176231,-0.00027276528999209404
1772795149642203100,8.531203125,-0.0028206733986735344,-0.0010980390943586826,0.00026466057170182467
1772795149652248000,8.541248046875,0.0010289630154147744,-0.0017643393948674202,-0.00014395220205187798
1772795149662292200,8.551292236328125,0.0019221872789785266,0.0013020248152315617,-0.0008382382802665234
1772795149672336100,8.561336181640625,-0.0010189051972702146,0.00012948084622621536,-0.001891362713649869
1772795149682380300,8.57138037109375,-0.0016695153899490833,0.002403288148343563,0.0003843085141852498
1772795149692425200,8.58142529296875,0.0006957384757697582,0.00007705623283982277,0.00007891899440437555
1772795149702469000,8.59146923828125,-0.0019301383290439844,-0.0005802121013402939,-0.0020992804784327745
1772795149712513300,8.60151318359375,0.0007128727156668901,-0.0005233921110630035,0.0010164626874029636
1772795149722558200,8.61155810546875,-0.000962521939072758,0.0023669362999498844,0.0015512255486100912
1772795149732602000,8.62160205078125,-0.000508113473188132,-0.0005319127812981606,0.00222598435357213
1772795149742646300,8.631646240234375,0.00024369696620851755,-0.00013270508497953415,0.0011207727948203683
1772795149752691200,8.641691162109375,-0.001080418354831636,0.0016764039173722267,0.0008744347142055631
1772795149762735000,8.651735107421874,-0.0007962590898387134,-0.00036783842369914055,0.0002509886398911476
1772795149772779300,8.661779296875,-0.0001969772856682539,-0.0008540279231965542,-0.0007553493487648666
1772795149782824200,8.67182421875,-0.001667308621108532,0.00033241044729948044,0.0010188486194238067
1772795149792868000,8.6818681640625,0.0022715546656399965,-0.0015549510717391968,-0.0006558496970683336
1772795149802912300,8.691912353515624,-0.0007583238184452057,-0.0011488189920783043,-0.00024785345885902643
1772795149812957000,8.70195703125,0.00008954224176704884,-0.002999516436830163,-0.00042350240983068943
1772795149823001000,8.7120009765625,0.001059731817804277,0.0013219951651990414,-0.001029105274938047
1772795149833045200,8.722045166015626,0.0027152588590979576,0.00018563494086265564,0.0003844788298010826
1772795149843090200,8.732090087890626,0.0003660846268758178,0.0007318491116166115,0.001477173762395978
1772795149853134000,8.742134033203126,-0.0009880702709779143,-0.0014373194426298141,0.0024770977906882763
1772795149863178200,8.75217822265625,-0.00159420573618263,0.00024073850363492966,0.0008797337068244815
1772795149873222100,8.76222216796875,-0.0001826408552005887,0.0004946491681039333,0.0006734157213941216
1772795149883267000,8.77226708984375,-0.0024202289059758186,-0.0004992424510419369,0.002206064760684967
1772795149893311200,8.782311279296875,0.0005793452728539705,-0.0014570718631148338,0.001467742258682847
1772795149903355100,8.792355224609375,-0.0016065773088485003,0.0004393649287521839,0.0016453750431537628
1772795149913400000,8.802400146484375,-0.0034958627074956894,0.0003554881550371647,-0.0004305437905713916
1772795149923444200,8.8124443359375,-0.0004380210884846747,0.00000927736982703209,-0.00032747944351285696
1772795149933488000,8.822488037109375,0.0009971827967092395,-0.0014761216007173061,0.0007642997661605477
1772795149943533000,8.832532958984375,0.0013809442752972245,-0.0010169930756092072,0.00020210654474794865
1772795149953577200,8.8425771484375,-0.0012429918861016631,0.00044623715803027153,-0.00031103729270398617
1772795149963621000,8.85262109375,-0.00012180116027593613,-0.0011913403868675232,0.0011172160739079118
1772795149973666300,8.862666259765625,0.0018627807730808854,-0.0007454091683030128,0.00034269201569259167
1772795149983710000,8.8727099609375,-0.0015340810641646385,-0.0013392944820225239,-0.0010400211904197931
1772795149993754000,8.882754150390625,0.0008325907401740551,0.0005587930791079998,0.001501768478192389
1772795150003799300,8.89279931640625,-0.0004073769669048488,0.002058951649814844,0.0006215939065441489
1772795150013843000,8.902843017578125,0.0003786524757742882,0.0021474664099514484,-0.001789658097550273
1772795150023887000,8.91288720703125,-0.0015366929583251476,0.0007604919373989105,0.0008777639595791698
1772795150033932300,8.922932373046875,0.0010943677043542266,0.00006379792466759682,-0.000896492216270417
1772795150043976200,8.93297607421875,-0.0006617206381633878,0.002273155841976404,-0.00003868807107210159
1772795150054020000,8.94302001953125,-0.0032196356914937496,0.0022212029434740543,0.00028339773416519165
1772795150064064300,8.953064208984374,-0.0005772471777163446,-0.0001740441657602787,-0.0016239582328125834
1772795150074109200,8.963109130859374,0.0012661583023145795,-0.0010900790803134441,-0.0016114364843815565
1772795150084153000,8.973153076171876,0.0009055662667378783,-0.0009145769290626049,0.001597406342625618
1772795150094197200,8.983197265625,0.0003179617924615741,-0.001568969339132309,-0.003006013110280037
1772795150104242200,8.9932421875,0.002153945155441761,0.001184473279863596,-0.0011894709896296263
1772795150114286000,9.0032861328125,0.0004977600183337927,-0.0014058882370591164,-0.0015664041275158525
1772795150124330000,9.013330078125,0.0013068283442407846,0.0005680471658706665,-0.0006598641048185527
1772795150134375200,9.023375244140626,0.001094794599339366,0.00022304244339466095,-0.0019064558437094092
1772795150144419000,9.033419189453125,-0.000446376740001142,-0.0012054773978888988,0.00015802669804543257
1772795150154463000,9.043462890625,0.0009394598891958594,0.0005025546997785568,0.001223088474944234
1772795150164508200,9.053508056640625,-0.0010105067631229758,-0.00036590220406651497,-0.00010050262790173292
1772795150174552300,9.06355224609375,0.0012416556710377336,0.0007760063745081425,0.001998608000576496
1772795150184596000,9.073595947265625,0.0009684154065325856,-0.0008048461750149727,-0.0011873317416757345
1772795150194641200,9.08364111328125,-0.0001602025586180389,-0.00070564029738307,0.0018463098676875234
1772795150204685300,9.093685302734375,-0.0011706058867275715,-0.0004683523438870907,-0.0007547996356151998
1772795150214729000,9.10372900390625,0.0014667625073343515,-0.0011022393591701984,-0.000014092656783759594
1772795150224774100,9.113774169921875,-0.0008674981654621661,-0.0008593588136136532,0.0021526552736759186
1772795150234818300,9.123818359375,-0.00022751663345843554,-0.002202979288995266,0.0014628851786255836
1772795150244862000,9.133862060546875,0.000425490434281528,0.00003141304478049278,-0.0006809596088714898
1772795150254907100,9.1439072265625,-0.0017074926290661097,-0.001120937056839466,0.0000447010388597846
1772795150264951300,9.153951416015625,0.001505078631453216,-0.00017658015713095665,-0.0002557034604251385
1772795150274995200,9.1639951171875,0.001145640155300498,0.0003297422081232071,0.0013323926832526922
1772795150285039000,9.1740390625,-0.0003678342327475548,0.0004176264628767967,-0.0019744543824344873
1772795150295084300,9.184084228515625,0.000047394074499607086,-0.0005086814053356647,-0.0005545660387724638
1772795150305128200,9.194128173828124,-0.0006357067031785846,-0.0002833777107298374,0.0007256155367940664
1772795150315172000,9.204172119140624,0.0009352948982268572,-0.002715788083150983,0.00114633294288069
1772795150325217300,9.21421728515625,-0.00028256868245080113,-0.0007519731298089027,0.000011293566785752773
1772795150335261200,9.22426123046875,-0.0024486412294209003,0.0005763373337686062,-0.0026437847409397364
1772795150345305000,9.23430517578125,-0.00025685952277854085,-0.0010678982362151146,-0.00005572487134486437
1772795150355350300,9.244350341796874,-0.0006862619193270802,-0.00034365197643637657,-0.001477975631132722
1772795150365394400,9.25439453125,0.0014823500532656908,0.0004747370257973671,-0.0019014182034879923
1772795150375438300,9.264438232421876,-0.008817174471914768,0.04456236958503723,0.041539277881383896
1772795150385483300,9.274483154296876,-0.0008420721278525889,-0.04252779111266136,-0.006963810883462429
1772795150395527400,9.28452734375,0.0035377072636038065,0.01584887132048607,-0.003395414911210537
1772795150405571300,9.2945712890625,0.003069257130846381,-0.01459372229874134,-0.007569387089461088
1772795150415616300,9.3046162109375,0.004134372342377901,0.007700045593082905,-0.010178893804550171
1772795150425660400,9.314660400390625,0.0011452402686700225,-0.014597536996006966,-0.0039681363850831985
1772795150435704300,9.324704345703125,0.00004137447103857994,0.004710082896053791,0.000052674789912998676
1772795150445749200,9.334749267578125,-0.0010065794922411442,-0.0035180191043764353,-0.00004293269012123346
1772795150455793400,9.34479345703125,0.0018280575750395656,0.003404341172426939,0.0000838403357192874
1772795150465837300,9.35483740234375,-0.0004524071700870991,0.0013007107190787792,-0.0017904924461618066
1772795150475882200,9.36488232421875,0.0005813825409859419,0.0005280277691781521,-0.000003930181264877319
1772795150485926400,9.374926513671875,0.0016090964199975133,-0.0018086298368871212,-0.0012066137278452516
1772795150495970300,9.38497021484375,-0.0004578807856887579,0.00028813909739255905,0.0016762131126597524
1772795150506014500,9.395014404296875,0.0010987368877977133,0.001307064201682806,-0.00020797329489141703
1772795150516059400,9.405059326171875,-0.0007244982407428324,0.0012337714433670044,-0.0009626622195355594
1772795150526103300,9.415103271484375,0.000020121573470532894,-0.000784371979534626,-0.0009791739284992218
1772795150536147500,9.4251474609375,0.0006380749400705099,-0.00041966652497649193,0.00018825929146260023
1772795150546192100,9.435192138671875,0.0009592522401362658,0.002352684736251831,0.0007376692956313491
1772795150556236300,9.445236328125,0.0009897381532937288,0.0011311224661767483,0.0005852628964930773
1772795150566280400,9.455280517578124,0.0019077297765761614,0.0008458979427814484,0.0006057692226022482
1772795150576325000,9.4653251953125,-0.0003181827487424016,0.0017683054320514202,-0.002899914514273405
1772795150586369300,9.475369384765624,-0.0011453605256974697,-0.0014906045980751514,0.000013317330740392208
1772795150596413400,9.485413330078124,-0.0003161670174449682,0.000017599202692508698,-0.0027566873468458652
1772795150606458000,9.4954580078125,0.0004159359959885478,0.001018681563436985,0.0020593733061105013
1772795150616502300,9.505502197265624,0.001339918002486229,-0.0015289480797946453,-0.0017709943931549788
1772795150626546400,9.51554638671875,-0.0014105947921052575,-0.0009417212568223476,-0.0016708595212548971
1772795150636591000,9.525591064453126,0.0010077711194753647,-0.0012309462763369083,0.0010410312097519636
1772795150646635300,9.53563525390625,-0.0015451349318027496,0.0008377972990274429,-0.0004980096127837896
1772795150656679400,9.545679443359376,0.0013892312999814749,0.0002519632689654827,-0.0006258859648369253
1772795150666724000,9.55572412109375,-0.00029788119718432426,-0.0005632303655147552,-0.0014368185074999928
1772795150676768300,9.565768310546876,0.0001582658151164651,0.00011230213567614555,0.001279174699448049
1772795150686812400,9.5758125,-0.002168538048863411,0.002867341972887516,0.002008081879466772
1772795150696856300,9.585856201171875,0.0019022270571440458,-0.001674350816756487,-0.00008201145101338625
1772795150706901200,9.5959013671875,-0.0002442807308398187,-0.0005254629068076611,-0.0030796655919402838
1772795150716945200,9.605945068359375,-0.0015429083723574877,0.000020168721675872803,-0.000943753810133785
1772795150726989300,9.6159892578125,0.002570077544078231,0.0021783942356705666,0.000490358448587358
1772795150737034200,9.6260341796875,-0.00149144243914634,-0.00003576930612325668,-0.00022417970467358828
1772795150747078100,9.636078125,0.0009826341411098838,0.00018287589773535728,0.0006208413979038596
1772795150757122300,9.646122314453125,0.002071846043691039,-0.00023732101544737816,0.0016322529409080744
1772795150767167200,9.656167236328125,-0.0031274433713406324,0.001586677972227335,0.000949951121583581
1772795150777211100,9.666211181640625,0.00010404153726994991,-0.0013397140428423882,0.000647783512249589
1772795150787255300,9.67625537109375,-0.0010515040485188365,-0.00013836193829774857,0.001307714730501175
1772795150797300200,9.68630029296875,-0.0011094275396317244,-0.0005182232707738876,-0.0015625196974724531
1772795150807344000,9.69634423828125,-0.0004668068140745163,-0.00016295723617076874,0.00048571755178272724
1772795150817388300,9.70638818359375,-0.000570695148780942,0.0010105925612151623,0.0005153863457962871
1772795150827433500,9.71643359375,0.00022931850980967283,0.001273179892450571,-0.0007813068805262446
1772795150837477000,9.72647705078125,0.0007688620826229453,0.00026954011991620064,-0.0000032389070838689804
1772795150847521300,9.736521240234374,-0.00043248984729871154,-0.0014689718373119831,0.001864435849711299
1772795150857566500,9.74656640625,-0.04353542998433113,0.15838800370693207,0.20280636847019196
1772795150867610000,9.756610107421874,-0.16741636395454407,0.39157626032829285,0.23904187977313995
1772795150877654300,9.766654296875,-0.4287793040275574,-0.058839909732341766,-0.029502756893634796
1772795150887698200,9.7766982421875,-0.5050056576728821,-0.008987663313746452,0.012036697007715702
1772795150897743000,9.7867431640625,-0.2892552316188812,-0.09458298981189728,-0.06485088914632797
1772795150907787300,9.796787353515626,0.01640135422348976,-0.018982507288455963,-0.028905676677823067
1772795150917831200,9.8068310546875,-0.0027457945980131626,-0.08294102549552917,-0.03092588670551777
1772795150927876400,9.81687646484375,0.005620792042464018,-0.05019533261656761,-0.04129384085536003
1772795150937920300,9.826920166015626,0.0013630057219415903,-0.007043661084026098,-0.0069605885073542595
