time,seconds_elapsed,z,y,x
1772794223496926500,0.070926513671875,-0.042569560182094575,0.8520270903926342,0.05976123944034334
1772794223506971600,0.0809716796875,-0.050794952213764184,1.1596896755725146,0.13520745707014575
1772794223517016600,0.0910166015625,0.0740828888207674,1.2390338459223509,0.3465318295393139
1772794223527060500,0.101060546875,0.23027649009525775,1.1512538556605576,0.5143587681254371
1772794223537105700,0.111105712890625,0.35267128214240073,1.1062510769821703,0.4576214202506467
1772794223547150600,0.121150634765625,0.5664058027595281,1.0708799769368023,0.2794333562457934
1772794223557195800,0.13119580078125,0.8226543539792299,0.9446776093002408,0.01572882646434009
1772794223567239400,0.141239501953125,1.0189455723643301,0.6127228058416396,-0.1624126036535017
1772794223577284600,0.15128466796875,1.042286700463295,0.24771993845775722,-0.2747424219505861
1772794223587329500,0.16132958984375,0.9031342503607273,0.17237411702908575,-0.31195356037206945
1772794223597374700,0.171374755859375,0.8512778063952923,0.22237638449519873,-0.20362609131783246
1772794223607418600,0.181418701171875,1.0300842214941979,0.662828533682227,0.08868866607192903
1772794223617463600,0.191463623046875,0.9634978259086608,0.5979100713089108,-0.10066464280877262
1772794223627508700,0.2015087890625,0.6010480770736932,0.30797727715224027,-0.12284180516228078
1772794223637552400,0.211552490234375,0.2497808165103197,0.1801313800923526,-0.1625566700330004
1772794223647597600,0.22159765625,0.03890051628053188,0.043423473597690464,0.09416329809073358
1772794223657642500,0.231642578125,0.11410393356382846,0.007102890807762742,0.0022413384830877476
1772794223667687700,0.241687744140625,0.15175240395665168,-0.12307890185378491,-0.22580484284022823
1772794223677731600,0.251731689453125,0.09165303230285644,-0.41471491973176594,-0.24091215813904998
1772794223687776500,0.261776611328125,-0.021824293795228003,-0.5711269129972905,-0.27971988156959415
1772794223697821700,0.27182177734375,-0.17654665347337722,-0.4780320113230496,-0.26545539203677326
1772794223707866600,0.28186669921875,-0.1916366705775261,-0.13309409991167484,-0.14689756607031448
1772794223717910500,0.29191064453125,-0.2753331909179687,-0.10050799094233662,-0.044617249959520995
1772794223727955500,0.30195556640625,-0.3527425938129425,-0.18178331201784312,0.07446827140916139
1772794223738000600,0.312000732421875,-0.331422742408514,-0.4012300362693146,0.05046734596090391
1772794223748045600,0.322045654296875,-0.2267699432790279,-0.6233709680408239,0.11182700160779058
1772794223758089500,0.33208935546875,-0.10664134259819984,-0.7511074864421039,0.2513486138163134
1772794223768134700,0.342134765625,-0.16776947277784346,-0.8900240088969469,0.29660244464632124
1772794223778179600,0.3521796875,-0.16343991914093495,-0.9585833119906485,0.4238636371534317
1772794223788223500,0.362223388671875,-0.1323141285151243,-0.8176589568447321,0.256893607657589
1772794223798268700,0.3722685546875,-0.16384382376670836,-0.7257822718538344,0.1741280662906356
1772794223808313600,0.382313720703125,-0.22743688275516033,-0.8708161081451922,0.28164003597721454
1772794223818358800,0.39235888671875,-0.35619887174665926,-1.0640158633209764,0.06413571449778974
1772794223828402400,0.40240234375,-0.4173626577615738,-1.1428012307442723,0.07000011758573818
1772794223838447600,0.412447509765625,-0.42937575163841246,-1.1216956796776503,0.12560425561293959
1772794223848492500,0.422492431640625,-0.5200865346550941,-1.1124932593073695,0.1835841874273494
1772794223858537700,0.432537841796875,-0.6477730033695698,-0.9556100683335215,-0.0405888438268099
1772794223868581600,0.44258154296875,-0.8473322836399078,-1.120669040043652,-0.18883178749093785
1772794223878626600,0.45262646484375,-0.6859831992983818,-0.8822465067632496,-0.0778182028915733
1772794223888671700,0.462671630859375,-0.6418184788793325,-0.790523770225048,-0.2509840000213124
1772794223898716700,0.472716552734375,-0.6051081661194563,-0.7189989683892577,-0.20125998324099928
1772794223908760600,0.482760498046875,-0.5065870016127825,-0.5966400513730943,-0.25679356308290735
1772794223918805500,0.492805419921875,-0.4050181399732828,-0.445203873758763,-0.27583966086907313
1772794223928850700,0.5028505859375,-0.43556466940641403,-0.368931475537084,-0.3103380879994482
1772794223938894600,0.51289453125,-0.5540273827016353,-0.3105676589716226,-0.3011023864140734
1772794223948939500,0.522939453125,-0.6385083314180374,-0.26852241492457685,-0.24633305067662148
1772794223958984700,0.532984619140625,-0.6430944901645184,-0.1992605530520901,-0.2355668515883386
1772794223969029600,0.543029541015625,-0.5601449887990951,-0.055891252439469095,-0.21818097863197325
1772794223979073500,0.553073486328125,-0.44714521708488464,0.06474266741499304,-0.18685363755207507
1772794223989118500,0.563118408203125,-0.27646014912128447,0.18644841775204984,-0.16447824921272694
1772794223999163600,0.57316357421875,-0.15526654955744743,0.2561082111672498,-0.0872397093726322
1772794224009208600,0.58320849609375,-0.05543839410543441,0.2611587542887777,0.011519241378712467
1772794224019252500,0.59325244140625,-0.01764905393719673,0.24835893048103896,0.08345843726824968
1772794224029297700,0.603297607421875,0.07689151650071144,0.1738033278482966,0.12226135665951296
1772794224039342600,0.613342529296875,0.21717092480659483,0.13923442929759622,0.1416873571413569
1772794224049386500,0.623386474609375,0.3468926987409591,0.1306998982515186,0.13522530325409024
1772794224059431700,0.633431640625,0.4208890783220529,0.02380437996285036,0.19163659751228987
1772794224069476600,0.6434765625,0.5123515564888715,-0.16407240835819392,0.23730920174363998
1772794224079521500,0.653521484375,0.6188251413047313,-0.37043095684722066,0.2526121674787253
1772794224089565400,0.6635654296875,0.6946750397980213,-0.4851240884758532,0.2762051514469087
1772794224099610600,0.673610595703125,0.6624626229792833,-0.41904882075022903,0.22537726507792247
1772794224109655600,0.683655517578125,0.5533569360941648,-0.2448850072927773,0.044913785220682616
1772794224119700700,0.69370068359375,0.3852197990477085,-0.05471004329826683,-0.08881084028002806
1772794224129744600,0.70374462890625,0.21606442486941813,0.10512718430873937,-0.126443619913375
1772794224139789600,0.71378955078125,0.045295770275592805,0.04385733497031033,-0.035227248295000756
1772794224149834800,0.723834716796875,0.0031055647999048233,0.0022650177559582515,0.03203120589978061
1772794224159879700,0.733879638671875,-0.026768179938197134,-0.01943663147371262,0.033728598101926036
1772794224169923600,0.743923583984375,-0.015292261677980422,-0.03618142091440968,0.018819942613784224
1772794224179968500,0.753968505859375,-0.00751285984814167,-0.07026106551028788,-0.006318051439849659
1772794224190013700,0.764013671875,-0.018095044139027596,-0.10276590767065062,-0.06965978428204543
1772794224200057600,0.7740576171875,-0.01665478220283985,-0.07249518123790621,-0.05754813453471288
1772794224210102500,0.7841025390625,-0.020119243443012236,0.0419527069253847,-0.05972749700094573
1772794224220147700,0.794147705078125,0.026494623693823813,0.15415307189021257,-0.12730690394551492
1772794224230192600,0.804192626953125,0.17593875070810316,0.23798531090691685,-0.2288169937356375
1772794224240236500,0.814236572265625,0.21598025371730326,0.08198701300881803,-0.04142864651866257
1772794224250281500,0.824281494140625,0.20547055014073848,0.05713496889024972,-0.03903542210604064
1772794224260326700,0.83432666015625,0.1363134272843599,0.07794058716222643,0.017692765214759855
1772794224270371600,0.84437158203125,-0.03173135530352592,-0.03486322358846664,0.15781910185078157
1772794224280415500,0.85441552734375,-0.20186814173460005,-0.092128029403463,0.26977197659425434
1772794224290460700,0.864460693359375,-0.29666999345719813,-0.04338752550147473,0.2525860466567799
1772794224300505600,0.874505615234375,-0.3969394629359245,0.052426425873115655,0.1844420280993916
1772794224310550800,0.88455078125,-0.4646984094321727,0.06426664740107953,0.14064788542524911
1772794224320594400,0.894594482421875,-0.5159639017671346,-0.006819032365083694,0.0817500533146318
1772794224330639600,0.9046396484375,-0.5337754527896642,-0.06124306179620325,0.009978711105557158
1772794224340684500,0.9146845703125,-0.5496212566971779,-0.09308576851971447,-0.03905698548387736
1772794224350728400,0.924728515625,-0.6254629718840122,-0.10863880002573131,-0.04933243277999572
1772794224360773600,0.934773681640625,-0.6530763704746961,-0.06083462712578475,-0.06788061838084831
1772794224370818600,0.944818603515625,-0.585143820977211,0.026111396529898048,-0.10823252991293557
1772794224380863700,0.95486376953125,-0.4759031095355749,0.12820245541259645,-0.13980503225978463
1772794224390907600,0.96490771484375,-0.3660305299311876,0.1811344196550548,-0.11954700140058994
1772794224400952600,0.97495263671875,-0.21679273914396763,0.21299436977431177,-0.06720737702809274
1772794224410997500,0.98499755859375,-0.05379238046407699,0.2292168980397284,-0.07017157886223867
1772794224421042700,0.995042724609375,0.14905834256708622,0.2807460097469389,-0.07662362281214445
1772794224431086600,1.005086669921875,0.35905016952455043,0.4031403634026646,-0.015598441550321876
1772794224441131500,1.015131591796875,0.5497773240417242,0.5051038869155571,0.10406637754365801
1772794224451176700,1.0251767578125,0.6608937662273645,0.48030799343101677,0.21380415178723633
1772794224461222000,1.035221923828125,0.7710147676348685,0.39822332873400296,0.24435002363324163
1772794224471265800,1.045265869140625,0.8259545645684003,0.29097185488082467,0.19931062100520355
1772794224481310700,1.055310791015625,0.8375193301558495,0.2100166691377759,0.17257957647331057
1772794224491356000,1.06535595703125,0.8092915990591049,0.17544099378641695,0.11360628623999655
1772794224501399800,1.07539990234375,0.7535621130526066,0.1082424211192876,0.09961856782194227
1772794224511444700,1.08544482421875,0.6909457901418209,0.05363532673884183,0.13360303581450134
1772794224521490000,1.095489990234375,0.5282347697973251,0.1672587102441117,-0.035636509515903886
1772794224531534800,1.105534912109375,0.28445290144085883,0.1776367502650246,-0.17422942603956906
1772794224541578800,1.115578857421875,0.127530985891819,0.035956352587416765,-0.31130415655262766
1772794224551624000,1.1256240234375,-0.07376607795655726,-0.12245952784642576,-0.2974983157738112
1772794224561668900,1.1356689453125,-0.24817338131368158,-0.2001367878973484,-0.22865067899171262
1772794224571714000,1.145714111328125,-0.367911521372199,-0.25964075094126166,-0.26753831752436236
1772794224581757700,1.1557578125,-0.44075522378683085,-0.3462566658597439,-0.33265772756356743
1772794224591803000,1.165802978515625,-0.4345055157423019,-0.3669203914429992,-0.37187216863147915
1772794224601847800,1.175847900390625,-0.22394144185483456,-0.32659130366407335,-0.13725631589135154
1772794224611893000,1.18589306640625,-0.12439853308498859,-0.4575051369272172,-0.5641569278541952
1772794224621937000,1.19593701171875,-0.16411153479218482,-0.4933898855831474,-0.4823799773994833
1772794224631981800,1.20598193359375,-0.20457389356195926,-0.43092802258171137,-0.46027120410706845
1772794224642027000,1.216027099609375,-0.32670798884630203,-0.45838630367591976,-0.4148408476663753
1772794224652070700,1.226070556640625,-0.24211481192708015,-0.23904789863713083,-0.40689715865291654
1772794224662115800,1.23611572265625,-0.2797819870203733,-0.12375680111534892,0.0012338161112740635
1772794224672160800,1.246160888671875,-0.3313432474315166,-0.05276771359145641,0.20462657359726727
1772794224682206000,1.2562060546875,-0.26755437361001966,0.010527020037546754,0.26193415910806506
1772794224692249900,1.266249755859375,-0.2030646580427885,0.06687441874668001,0.30312991018630564
1772794224702294800,1.276294677734375,-0.16862112117111683,0.10230722238402813,0.2778269439624622
1772794224712340000,1.286340087890625,-0.08439385495483875,0.031342246388085186,0.19559366457499563
1772794224722385000,1.296385009765625,0.05156769015192985,0.14988573330193758,0.09855546863507479
1772794224732428800,1.3064287109375,0.09305939196944236,0.2794119115989655,0.2234624992314726
1772794224742473700,1.3164736328125,0.10705810670554637,0.25727040508072824,0.3902301014903933
1772794224752519000,1.326518798828125,0.2096037044227123,0.2595636305844411,0.536749646294862
1772794224762562800,1.336562744140625,0.3859276550561189,0.319354776539281,0.5232196085164323
1772794224772607700,1.346607666015625,0.531556607696414,0.3226632800327614,0.35875469370931384
1772794224782653000,1.35665283203125,0.5677922886818647,0.2898399282414466,0.348190556531772
1772794224792697900,1.36669775390625,0.461790413030982,0.2461797963436693,0.39857820658627896
1772794224802741800,1.37674169921875,0.3152250563234091,0.24227066007591783,0.3957763739733025
1772794224812787000,1.386786865234375,0.22646306928694246,0.24733733234833924,0.33746355694271624
1772794224822831900,1.396831787109375,0.17282383355796335,0.22705990266893059,0.2911273377034813
1772794224832876800,1.406876708984375,0.13317922091186046,0.1949860540706664,0.2708267828768119
1772794224842920700,1.416920654296875,0.07759995703101158,0.15208379133548586,0.2603039640903473
1772794224852966000,1.4269658203125,0.016503391033411027,0.0843355123637244,0.22279840929955244
1772794224863010800,1.4370107421875,-0.04114157320559025,0.035688531964085994,0.18530191459804773
1772794224873056000,1.447055908203125,-0.08642039234638213,0.017838731290400027,0.17271211681179702
1772794224883100000,1.457099853515625,-0.13826923752725123,-0.0029721111459657546,0.18191457371469585
1772794224893144800,1.467144775390625,-0.205133865532279,-0.04300985129550099,0.16854688689112662
1772794224903190000,1.47718994140625,-0.24999767413139343,-0.11109722602851688,0.13600984122790397
1772794224913233700,1.487233642578125,-0.2418383330732584,-0.1399668717579916,0.07278364279046655
1772794224923278800,1.49727880859375,-0.13534545903503895,-0.16852628249451518,-0.031970351691171524
1772794224933323800,1.50732373046875,-0.027985154512524604,-0.2122775998070836,-0.09040208239369094
1772794224943369000,1.517368896484375,0.04259937079846859,-0.30301651293970644,-0.10968874747008085
1772794224953412900,1.527412841796875,0.06662848116159438,-0.39500984658021476,-0.15910802741646765
1772794224963457800,1.537457763671875,0.051154433175921436,-0.4699133310688659,-0.1914410018749535
1772794224973503000,1.5475029296875,-0.020051438903808592,-0.5352493612671271,-0.22522424820698797
1772794224983548000,1.5575478515625,-0.10292086077034472,-0.5416961993189529,-0.2273314496193081
1772794224993591800,1.567591796875,-0.11957388940751552,-0.5023715758748353,-0.1979981684334576
1772794225003636700,1.57763671875,-0.13546119436919687,-0.41001671544555574,-0.20248839252479373
1772794225013682000,1.587681884765625,-0.10315583856999873,-0.345824521520175,-0.15221877935938535
1772794225023726800,1.597726806640625,-0.059030281117558474,-0.3053184697391465,-0.07757197304554284
1772794225033770800,1.607770751953125,0.028209610918164253,-0.28172504737954585,0.006370411814749241
1772794225043816000,1.61781591796875,0.1747778902351856,-0.2518913058582693,0.054249403516575694
1772794225053860900,1.62786083984375,0.29840719251334663,-0.20940277502313254,0.05012845112904906
1772794225063904800,1.63790478515625,0.33172435570359227,-0.1275521017450839,0.0800540721848607
1772794225073949700,1.64794970703125,0.31797932346761226,-0.10282222270146012,0.1772661268543452
1772794225083995000,1.657994873046875,0.28366496593356133,-0.07570219711828977,0.3029232086330652
1772794225094039800,1.668039794921875,0.19819091452658175,-0.05937726792432368,0.34433402723409234
1772794225104083700,1.678083740234375,0.1127998652279377,-0.02822937506455928,0.41992721101995556
1772794225114129000,1.68812890625,0.09738660751879215,-0.037259215346910055,0.4989588813545182
1772794225124173800,1.698173828125,0.06416764400601387,-0.0914056334130466,0.5634050500409677
1772794225134219000,1.708218994140625,0.03480652496516704,-0.05027713888473809,0.43572358629517255
1772794225144263000,1.718262939453125,0.01600654742717743,-0.04677596236336976,0.2828721350554377
1772794225154307800,1.728307861328125,-0.032410569739341734,-0.00818363524917513,0.15187464209683238
1772794225164352800,1.738352783203125,-0.10385784935951232,-0.007562398078292608,0.04547536462619901
1772794225174396700,1.748396728515625,-0.14870470682382583,-0.06919869697578251,-0.061573828120529646
1772794225184441900,1.75844189453125,-0.1632762530118227,-0.12521554855629802,-0.16583002914786338
1772794225194486800,1.76848681640625,-0.14041384834051132,-0.16060937189012764,-0.2716146818514913
1772794225204532000,1.778531982421875,-0.100434304651618,-0.14174250312838702,-0.36301395858898755
1772794225214575900,1.788575927734375,-0.1326326929450035,-0.12167002143654972,-0.4018351260229945
1772794225224620800,1.798620849609375,-0.197748431456089,-0.13209544426314532,-0.4149278318300843
1772794225234666000,1.808666015625,-0.26072715793848034,-0.08021686153113841,-0.40867410519756375
1772794225244711000,1.8187109375,-0.2697808174878359,0.014571034731343387,-0.39280207087025043
1772794225254754800,1.8287548828125,-0.2504652916431427,0.09726491736788302,-0.3768544870886951
1772794225264799700,1.8387998046875,-0.25253683722019193,0.16737108457740396,-0.2744405529271811
1772794225274845000,1.848844970703125,-0.21906945190429686,0.19192765288073568,-0.14395948505811393
1772794225284889900,1.858889892578125,-0.13039163601994513,0.20336071837991476,-0.09951868764404206
1772794225294933800,1.868933837890625,-0.04424012374281883,0.14447430271245537,-0.08832925817500799
1772794225304979000,1.87897900390625,0.03154080116748809,0.03990125428829342,-0.1111398595938459
1772794225315024000,1.88902392578125,0.06291735168397426,-0.08534205905776471,-0.15839235342778266
1772794225325067800,1.89906787109375,0.06132277596890926,-0.19294150609839705,-0.16662753620110451
1772794225335112700,1.90911279296875,-0.002910334488749504,-0.23070110871549696,-0.1273150050535798
1772794225345158000,1.919157958984375,-0.05874795704483986,-0.197193574052304,-0.04123151651136577
1772794225355202800,1.929202880859375,-0.09139292006194591,-0.13993742646779864,0.02427154081687331
1772794225365246700,1.939246826171875,-0.06837795517742633,-0.09623637803774326,0.03443549969568849
1772794225375292000,1.9492919921875,-0.010881459498405455,-0.09443320107329636,0.05323460045084357
1772794225385336800,1.9593369140625,0.06385492479503155,-0.05949446456320583,0.025291677644848822
1772794225395382000,1.969382080078125,0.06656476827561855,-0.061050534898787735,0.025401202433928845
1772794225405425700,1.97942578125,0.007878770551085471,-0.06302731486447155,0.054978302313014864
1772794225415470800,1.989470947265625,-0.005049684605002403,-0.013668788661994039,0.1419551594983786
1772794225425515800,1.999515869140625,0.003829787421226501,0.01862348845992237,0.19906718590445815
1772794225435559700,2.0095595703125,0.06282499722540379,0.07507880452293902,0.16340638219751416
1772794225445604900,2.01960498046875,0.07752338466346263,0.1328122507629916,0.22523783834092317
1772794225455649800,2.02964990234375,0.034141339054703713,0.17394260845482348,0.3314902546867728
1772794225465695000,2.039695068359375,0.0011591069072484968,0.1970976393971592,0.3456766740147024
1772794225475739000,2.04973876953125,-0.019555764341354368,0.1975102022534236,0.3409002533931285
1772794225485784000,2.0597841796875,0.06508709693849087,0.2183281137513928,0.14262626369297504
1772794225495829000,2.0698291015625,0.11565116300582885,0.19965642050188034,-0.0601004676323384
1772794225505874000,2.0798740234375,0.09762158531844616,0.06749636830361559,-0.02772496920637786
1772794225515918000,2.08991796875,0.05731880102455616,-0.08186784360855817,0.10388758691065013
1772794225525963000,2.099962890625,0.09527356088757515,-0.17203925905153156,0.21225692234523594
1772794225536008200,2.11000830078125,0.1698638147085905,-0.13997825166853145,0.20644735928364097
1772794225546052900,2.120052978515625,0.18499650191068648,-0.16732466988610104,0.11960538052432239
1772794225556097000,2.130096923828125,0.11796996134221553,-0.24475460411245,0.19478695130199192
1772794225566142200,2.14014208984375,0.10854045421779156,-0.08933752190209925,0.11136208750978112
1772794225576187000,2.150186767578125,0.08924655568301677,-0.07232870209719985,-0.05110832901187241
1772794225586231000,2.16023095703125,0.06381926895976066,-0.09648691873271018,-0.1395961022168398
1772794225596276000,2.17027587890625,0.20296762740910052,0.015349745752569288,-0.21427001573331653
1772794225606321200,2.180321044921875,0.3463683826059103,0.06274130099732428,-0.2121426483158022
1772794225616365800,2.19036572265625,0.36693946146965023,0.06912742183785885,-0.14038359933272004
1772794225626410000,2.200409912109375,0.3677612992465496,0.06022365562058985,-0.017655483677983284
1772794225636455200,2.210455078125,0.39627252345979214,0.01347876424891874,0.02241502622999251
1772794225646500000,2.2205,0.45190322526693344,-0.015461097172554582,-0.024820772197470066
1772794225656545000,2.230544921875,0.4425467833787203,0.013899218150693922,-0.1386876090697944
1772794225666589000,2.2405888671875,0.3968973773598671,-0.020621420811489224,-0.3074320643596351
1772794225676634000,2.250634033203125,0.29823300499022004,-0.15390057670017704,-0.4455539293054491
1772794225686678800,2.2606787109375,0.14346914425790308,-0.29227097304696215,-0.4787656593598425
1772794225696723000,2.270722900390625,0.030735330003499983,-0.207379653431382,-0.407382165690884
1772794225706768100,2.28076806640625,-0.08632043910324573,-0.07844820789080113,-0.22449717604145406
1772794225716813000,2.29081298828125,-0.289320215216279,-0.07402250040303915,-0.11791720824167132
1772794225726858000,2.30085791015625,-0.48370764580667014,-0.09023995063453913,-0.08085961641408503
1772794225736902000,2.31090185546875,-0.5461515347599983,-0.09340385802555828,-0.15958309758231043
1772794225746947000,2.320947021484375,-0.4934259067445993,0.060252516388893125,-0.27496464986652136
1772794225756992000,2.330991943359375,-0.3942214361488819,0.1627659288695082,-0.1786993745278567
1772794225767037000,2.341036865234375,-0.38937808777093885,0.19262064011357724,0.04677541437409818
1772794225777081000,2.3510810546875,-0.3602770809710026,0.11598961944626644,0.10667919039055704
1772794225787126000,2.3611259765625,-0.3337187443912029,0.01713409015238285,0.07459471080042421
1772794225797171200,2.371171142578125,-0.3607458675265312,-0.03343706324286759,-0.038402138304337856
1772794225807215900,2.3812158203125,-0.4039204078644514,-0.0340018757850863,-0.10794884500019251
1772794225817260000,2.391260009765625,-0.4003074780642986,-0.017695541693735866,-0.11671404299698769
1772794225827305000,2.401304931640625,-0.2868909422427416,-0.002167388900648802,-0.052970615752413866
1772794225837350000,2.411349853515625,-0.15955752474963664,-0.014210165529698133,-0.019701602552831172
1772794225847394000,2.42139404296875,0.0365337871491909,-0.043122874082764606,-0.006647840516641736
1772794225857439000,2.43143896484375,0.17821020277142524,-0.12971437607919797,-0.01682714309506118
1772794225867484200,2.441484130859375,0.31057693825662136,-0.12534728517718613,0.0043164018943905825
1772794225877528800,2.45152880859375,0.39948622480928897,-0.03473234320081538,0.07096431840881705
1772794225887573000,2.461572998046875,0.47318508274853227,0.0009347726575506385,0.1176106265105307
1772794225897618200,2.4716181640625,0.40092005700469013,0.06138606872977689,0.25876601393334564
1772794225907663000,2.4816630859375,0.3579050911426544,0.11435124112209305,0.29310594430007036
1772794225917708000,2.4917080078125,0.3974252006262541,0.14432095704795792,0.26492811675965783
1772794225927752000,2.501751953125,0.5224614470928907,0.10119389998042023,0.26204277058169245
1772794225937797000,2.511797119140625,0.5857990700155496,0.009529396435478702,0.26142346963956953
1772794225947841800,2.521841796875,0.539872600620985,-0.02834356689560227,0.21238252148628234
1772794225957887000,2.531886962890625,0.48952013147771356,-0.02711779709346592,0.18159480370841918
1772794225967931100,2.54193115234375,0.33961598573625085,-0.03792771659246646,0.1962078509505838
1772794225977976000,2.55197607421875,0.22930559923648833,-0.05465643168119713,0.1697976906698197
1772794225988021000,2.56202099609375,0.13352818048000334,-0.036466800027317364,0.222258311073482
1772794225998065000,2.57206494140625,0.01781739624142647,-0.022271850333060138,0.3273478941850364
1772794226008110000,2.582110107421875,-0.05295592963993549,0.01795535939041292,0.35450967655070126
1772794226018155000,2.592155029296875,-0.14846739093661307,0.05244680650744121,0.33400340655148025
1772794226028200000,2.602199951171875,-0.20807342611551283,0.07342585425071883,0.28415742562562224
1772794226038244000,2.612244140625,-0.17107319049835204,0.0835783555871807,0.18995222462192177
1772794226048289000,2.6222890625,-0.09955109207630157,0.06271289232017006,0.09812310509979724
1772794226058334200,2.632334228515625,-0.13641221148371696,-0.005750492101407144,0.0246549141112715
1772794226068379000,2.64237890625,-0.15588497371673582,-0.020032483041589146,-0.07677863071076571
1772794226078423000,2.652423095703125,-0.15033727646172046,-0.05388885854191612,-0.16405015999376774
1772794226088468000,2.662468017578125,-0.14244681547284124,-0.08624700854085385,-0.22738383739367127
1772794226098513000,2.672512939453125,-0.11549743374884128,-0.10614247143166139,-0.25683044276088474
1772794226108557000,2.68255712890625,-0.07124035887122154,-0.09018688700674102,-0.24390651764944193
1772794226118602000,2.69260205078125,-0.04270809186995029,-0.05908107972303405,-0.22716953705586493
1772794226128647200,2.702647216796875,-0.007108370700478554,-0.023209674605866894,-0.20507504801712928
1772794226138691800,2.71269189453125,0.0797118346184492,0.04308858822067268,-0.17627470466420053
1772794226148736000,2.722736083984375,0.16586626950502395,-0.025004933125339447,-0.1831975627299398
1772794226158781000,2.732781005859375,0.2315291205048561,0.036606610356806776,-0.05982895721457898
1772794226168826000,2.742826171875,0.2682856104940176,0.12607499666353686,0.17761267526969313
1772794226178871000,2.75287109375,0.2871720972716808,0.08359727948335931,0.22233707539811728
1772794226188915000,2.7629150390625,0.3096703448057174,0.06239909083037637,0.3379701912906021
1772794226198960000,2.772960205078125,0.35273090337514873,0.08596234638057648,0.3933423882920295
1772794226209005000,2.783005126953125,0.36857846084833146,0.013926231738494242,0.38813977814763784
1772794226219050000,2.793050048828125,0.4228028029888868,0.03200534537273925,0.38888803923167287
1772794226229094100,2.80309423828125,0.5956722292542457,0.09032772024953738,0.36119171159788965
1772794226239139000,2.81313916015625,0.6999094333201646,0.06301298494501971,0.27948125050812955
1772794226249184000,2.82318408203125,0.7186018588304519,0.02051314726457931,0.1820817104425281
1772794226259228000,2.833227783203125,0.6225982301026582,-0.005529079319513403,0.0656821402221918
1772794226269273000,2.843273193359375,0.43398938291370864,-0.048076473335572516,-0.024990283545479178
1772794226279318000,2.853318115234375,0.23373101446330546,-0.1127347823687829,-0.133624407396093
1772794226289363000,2.863363037109375,-0.03615852409601211,-0.1766843449110165,-0.2755235989235341
1772794226299407000,2.873406982421875,-0.37653731089830395,-0.258430644499138,-0.41547479818835853
1772794226309452000,2.8834521484375,-0.8437742988973855,-0.3452075951982289,-0.33787527954876423
1772794226319497200,2.893497314453125,-1.1999345921993254,-0.3156319566238671,-0.23630970584489402
1772794226329542000,2.9035419921875,-1.3238123162806033,-0.13670195167791097,-0.3221673497419804
1772794226339586000,2.9135859375,-1.270333824071288,-0.006070643416885286,-0.3233121358629316
1772794226349631000,2.923630859375,-0.9919827466368675,0.04794772782279178,-0.15490348839871584
1772794226359676000,2.933676025390625,-0.6336117915481329,0.12020511824944988,0.013674889609217642
1772794226369720800,2.943720947265625,-0.4042378032505512,0.14955111278640104,0.08562617322877049
1772794226379765000,2.953764892578125,-0.2834311571776867,0.11968973433952777,0.17192819989249108
1772794226389810200,2.96381005859375,-0.2111246303796768,0.06555991121516562,0.18657763362228869
1772794226399854800,2.973854736328125,-0.19068799155056476,0.05126614078893326,0.16256247871927917
1772794226409899000,2.98389892578125,-0.21794950796365736,0.08250875359429045,0.1398858789436519
1772794226419944000,2.99394384765625,-0.26822598926126956,0.035348673584428614,0.10136274460814892
1772794226429989000,3.003989013671875,-0.26414076577425,0.009105193373770453,0.0634799540027976
1772794226440033800,3.01403369140625,-0.18353636623024938,-0.010419216848094947,0.04103475183025002
1772794226450078000,3.024077880859375,-0.07708148611485957,-0.018055026080826063,0.041017873760685324
1772794226460123000,3.034122802734375,0.07804536271095275,0.018874780356849075,0.07644070399329066
1772794226470167600,3.04416748046875,0.237542097184062,0.08598731642505153,0.09486329958625138
1772794226480212700,3.054212646484375,0.41505788795053955,0.09526904910923913,0.07854739394895732
1772794226490257000,3.0642568359375,0.5488099403142929,0.06670730028515681,0.10341017865724861
1772794226500301800,3.0743017578125,0.6306582024395465,0.03606722908336669,0.15844919818155467
1772794226510346800,3.0843466796875,0.6453361316114664,0.004474177138833329,0.15126812757104635
1772794226520391700,3.0943916015625,0.61287821559906,-0.058239587397594,0.12200374690294265
1772794226530435800,3.104435791015625,0.5459159724384546,-0.09332849123440683,0.09281623086333274
1772794226540480800,3.114480712890625,0.5083844064235687,-0.12044532934664748,0.05880414421148598
1772794226550525700,3.124525634765625,0.4474082519352436,-0.16956585467532276,0.03811981423161924
1772794226560569900,3.13456982421875,0.3576607609927654,-0.19979217571076005,0.00931399098597467
1772794226570614800,3.14461474609375,0.18884499403238295,-0.18086515599330885,-0.02003982153125107
1772794226580660000,3.154659912109375,0.05333411530256271,-0.11730240081157535,-0.0406032285451889
1772794226590704600,3.16470458984375,-0.03833060743808746,-0.07806250564199872,-0.02115823110193014
1772794226600748800,3.174748779296875,-0.11638824510872363,-0.07088325252924114,-0.02803805374354124
1772794226610793700,3.184793701171875,-0.14734160177707673,-0.02928057831765618,-0.008608473065122961
1772794226620838700,3.194838623046875,-0.17963351357281207,-0.015149827849853317,-0.0008749562036246061
1772794226630883600,3.204883544921875,-0.1286766487956047,-0.021200106615433468,0.003728299808129668
1772794226640927700,3.214927734375,-0.1044207439392805,-0.012448932577413505,0.011468319475650787
1772794226650973000,3.224972900390625,-0.1383101540595293,-0.01197304956081789,0.0079167644739151
1772794226661017600,3.235017578125,-0.19286182845830915,-0.020044630137109196,-0.003431435753405094
1772794226671061800,3.245061767578125,-0.2646083832859993,-0.03166409875359386,-0.04354096249751747
1772794226681106700,3.255106689453125,-0.27127543995976444,-0.04503719697121996,-0.03850990952774882
1772794226691152000,3.26515185546875,-0.27045184861719607,-0.07154723742988425,-0.048126244461163876
1772794226701196500,3.275196533203125,-0.2356505843490362,-0.011649671958503314,-0.06733363375626504
1772794226711240700,3.28524072265625,-0.24287352133989332,-0.04978555597551167,-0.040454979180917144
1772794226721286000,3.295285888671875,-0.22452596374452113,-0.07374362409615423,-0.03616458851061761
1772794226731330600,3.30533056640625,-0.13097440434396265,0.03147234589102445,-0.07133439383022487
1772794226741375700,3.315375732421875,-0.06988952878415584,0.054349758618511254,-0.08078319017700851
1772794226751420000,3.325419921875,-0.059764440611004825,-0.02373154762207996,-0.054405032469704746
1772794226761464800,3.33546484375,-0.03479951070249081,-0.046270350928790865,-0.03762545484341681
1772794226771509800,3.345509765625,0.01877367405295372,-0.04665057328487746,-0.0005520078595727682
1772794226781554700,3.3555546875,0.05961889466047287,-0.027263502874202095,0.03097308428213
1772794226791598800,3.365598876953125,0.11006547182798385,0.03850493195853196,0.1443785872530192
1772794226801643800,3.375643798828125,0.12386135746836661,-0.10568298242744058,0.10317476246617734
1772794226811688700,3.385688720703125,0.2526864748239517,-0.045200082215620205,0.029115035325288773
1772794226821732900,3.39573291015625,0.3506891684144735,0.008121319735841825,0.03900141937173903
1772794226831777800,3.40577783203125,0.347689402076602,-0.10175916004721075,0.07693199464157223
1772794226841823000,3.415822998046875,0.2646212427675724,-0.1305680246333126,0.09850034091435372
1772794226851867600,3.42586767578125,0.16970716284215448,-0.07317185665676369,0.08792341732047498
1772794226861911800,3.435911865234375,0.12534078237116336,0.03124814749700017,0.0892879106067121
1772794226871956700,3.445956787109375,0.05705927330553531,-0.055341514168796124,0.08132233855500817
1772794226882001700,3.456001708984375,0.02566635617613792,-0.10339869828200898,0.07336012750416994
1772794226892046600,3.466046630859375,0.044209728604555125,-0.09930813189959153,0.04946837978512048
1772794226902090800,3.4760908203125,0.06553367166221141,-0.06134991970416158,0.002928893058747053
1772794226912136000,3.486135986328125,0.0934802477300167,-0.07343835297268815,0.014013327783346175
1772794226922180600,3.4961806640625,0.04139233309626579,-0.06467235582487192,0.02147431131377816
1772794226932225800,3.506225830078125,-0.030699089646339415,-0.03265635434408905,-0.03664659987390041
1772794226942269700,3.516269775390625,-0.11879705981612204,-0.07255453760917298,-0.09654431147575378
1772794226952315000,3.52631494140625,-0.12390811921954155,-0.2081669496178627,-0.06920286169424653
1772794226962359600,3.536359619140625,-0.0813245305120945,-0.11777674032505601,-0.07423530290350318
1772794226972403700,3.54640380859375,-0.0732072750300169,0.029022833847056607,-0.14634060804098845
1772794226982449000,3.556448974609375,-0.09011340164542198,0.04469669013759121,-0.158470460165292
1772794226992493800,3.566493896484375,-0.08991875585615634,0.04681329413249623,-0.08193345619067549
1772794227002538800,3.576538818359375,-0.10355682058632373,0.09419950191527604,-0.03596124795824289
1772794227012582700,3.586582763671875,-0.14511808050870895,0.05237794252231251,-0.11006737152412534
1772794227022627800,3.5966279296875,-0.17065525734722614,-0.0458589479831513,-0.13860986765846608
1772794227032672800,3.6066728515625,-0.10819441725909709,-0.044120305888587605,-0.12716931297257542
1772794227042717700,3.6167177734375,-0.008517068454623222,-0.06037454903309699,-0.14967778963968156
1772794227052761900,3.626761962890625,0.0555611437022686,-0.09842842645561321,-0.11939736379683016
1772794227062806800,3.636806884765625,0.05111643925309181,-0.16177812340855596,-0.1004680607907474
1772794227072851700,3.646851806640625,-0.01775485239923,-0.18578436435274778,-0.09764292036741971
1772794227082896600,3.656896728515625,-0.028823358902335165,-0.06071506499988027,-0.07756853897944092
1772794227092940800,3.66694091796875,-0.014713585007190704,0.01476746148574166,-0.05279883938208222
1772794227102986000,3.676986083984375,0.0011643676042556762,0.07761014049830846,0.0028505671255290507
1772794227113030700,3.68703076171875,-0.0006149170279502868,0.12047176982900128,0.08554419403374194
1772794227123074800,3.69707470703125,-0.02316810961961746,0.12307997956601902,0.10035627097934484
1772794227133119700,3.70711962890625,0.023640987828373906,0.15102110314057207,0.0863324218019843
1772794227143164700,3.71716455078125,0.0561667083799839,-0.0128260176949203,0.061950844739377495
1772794227153209600,3.727209716796875,0.13695815492868424,-0.059632868386898186,0.023123247564584015
1772794227163253800,3.737253662109375,0.2676607565939426,-0.03465538952406495,-0.025294307993352413
1772794227173299000,3.747298828125,0.36584582101404667,-0.04658681473312899,-0.09927622065767645
1772794227183343600,3.757343505859375,0.38585634338557717,-0.023089820219017565,-0.1313264326520264
1772794227193388800,3.767388916015625,0.2869429646909237,0.014032087282743305,-0.11995967385470867
1772794227203432700,3.7774326171875,0.21678397131562233,-0.02011865892112255,0.07564560809284449
1772794227213478000,3.787477783203125,0.23116496336758136,0.12616556102382018,0.031200755558162926
1772794227223522600,3.7975224609375,0.21140987706184386,0.16425826805280522,-0.14766177364215255
1772794227233567700,3.807567626953125,0.23431845896244047,-0.020041209770739078,-0.07772577536776662
1772794227243612000,3.81761181640625,0.23043723361492155,-0.10624279000097885,-0.09027765229642391
1772794227253656800,3.82765673828125,0.23236907846033572,-0.1381832397442311,-0.18464432747215032
1772794227263701800,3.83770166015625,0.19712766920924185,-0.17864868552023544,-0.24983064700141547
1772794227273745700,3.84774560546875,0.16203940469324588,-0.1967746362541802,-0.18893252618536352
1772794227283790800,3.857790771484375,0.11935060204565524,-0.1051332213238813,-0.09492372453659773
1772794227293835500,3.86783544921875,-0.07926935154795646,0.010454484524298459,0.03848170634657144
1772794227303880700,3.877880615234375,-0.27573943363130093,-0.0036508689240552484,0.2756945715762675
1772794227313924900,3.8879248046875,-0.5565034174263477,0.2749161528159864,0.13847045918777584
1772794227323969800,3.8979697265625,-0.8865683154851197,0.24708100123340263,0.1333840958341956
1772794227334014700,3.9080146484375,-0.8566746970027684,0.14733005746975542,0.3343118879787624
1772794227344059600,3.9180595703125,-0.5910591825008392,0.0776325075937435,0.25581045206338165
1772794227354103800,3.928103759765625,-0.400944606924057,0.06514726616051048,0.018855799378454684
1772794227364148700,3.938148681640625,-0.12726853556334972,0.09149773214329034,-0.029352643473446367
1772794227374193700,3.948193603515625,0.058200844556093215,0.009967194197699427,-0.02848185198828578
1772794227384238600,3.958238525390625,0.20320903494954107,-0.14190733830127863,0.17340455605536698
1772794227394282800,3.96828271484375,0.29528233849108215,-0.2067580692006275,0.0681624127306044
1772794227404328000,3.978327880859375,0.36897827382087706,-0.16379293382968751,0.12557970569357274
1772794227414371800,3.988371826171875,0.3530477142393589,-0.029877361467294392,0.03940948871597647
1772794227424415700,3.998415771484375,0.36684418440163136,0.07995349788721651,-0.0426041931040585
1772794227434460700,4.008460693359375,0.3844873931199312,0.15580105829294771,-0.11715075391381978
1772794227444505600,4.018505615234375,0.3544675179094076,0.19688859975636006,-0.17217238391190767
1772794227454550800,4.02855078125,0.30295068116188045,0.0956924438867718,-0.1287001758016646
1772794227464594700,4.0385947265625,0.32079964158535,-0.04353672471381723,-0.04380392428264022
1772794227474639600,4.0486396484375,0.37949148452877995,-0.060973852933384476,-0.06095233522132039
1772794227484684500,4.0586845703125,0.36014790163338184,-0.0062974196437746285,-0.08593085526376962
1772794227494728400,4.068728515625,0.308425313180685,0.01911905342452228,-0.1011114732608199
1772794227504773600,4.078773681640625,0.2153910556524992,0.0062891632720828055,-0.0794464616805315
1772794227514818600,4.088818603515625,-0.1403442902356386,0.07292674105558544,-0.20151523664370177
1772794227524863500,4.098863525390625,-0.352903921854496,0.15581088556721806,-0.4082837176404893
1772794227534907600,4.10890771484375,-0.24989070662558077,0.21368611489813774,-0.5764180782079696
1772794227544952600,4.11895263671875,-0.17765315341055393,0.12423735117390751,-0.5296602725557983
1772794227554997800,4.128997802734375,-0.0001052139401435852,-0.009400792486593127,-0.4430743143841624
1772794227565042400,4.13904248046875,0.016975684720277787,-0.05841163776256144,-0.30441892708353696
1772794227575086600,4.149086669921875,0.012245733588933943,0.00895228153411299,-0.15620755673460662
1772794227585131500,4.159131591796875,-0.036036943542957306,0.013613514810800552,-0.03012859628200531
1772794227595176700,4.1691767578125,-0.07746084082126617,0.05404346914831549,-0.07250438745766878
1772794227605220600,4.179220703125,-0.10511515594422817,0.11296097407378256,-0.08346022736653685
1772794227615265500,4.189265625,-0.12864333104789255,0.11231040121056139,-0.03698912970125675
1772794227625310700,4.199310791015625,-0.13105799097418785,0.06235752584412694,-0.012926847720891237
1772794227635355400,4.20935546875,-0.06030103170573711,0.007191153613105416,-0.0479394166521728
1772794227645399600,4.219399658203125,0.07616261770427227,-0.08574121444318443,-0.07597074839398264
1772794227655444700,4.22944482421875,0.12298340559005737,-0.1725622600123286,-0.049604500320181245
1772794227665489700,4.23948974609375,0.12013093876838683,-0.14376732348687946,0.011185849272459745
1772794227675534600,4.24953466796875,0.02148234848976135,-0.019547909828461704,0.08127806102186441
1772794227685578500,4.25957861328125,-0.028280922588706014,0.03847122148517519,0.13950520906299352
1772794227695623700,4.269623779296875,0.05513327367901802,0.04709657261986285,0.15072656804025172
1772794227705668600,4.279668701171875,0.1862415335357189,0.0554579025235027,0.17780732105895874
1772794227715713500,4.289713623046875,0.2753314373522997,0.05111833894923329,0.22393128578700125
1772794227725757700,4.2997578125,0.30036417180001734,0.024438129555433986,0.2455562576178461
1772794227735802600,4.309802734375,0.32831016334593294,0.015231179140508174,0.2522984984196722
1772794227745847800,4.319847900390625,0.34363515824973584,-0.014863186078332364,0.17876169917434453
1772794227755893500,4.3298935546875,0.3056523413360119,-0.15130181064493953,0.02842851436585188
1772794227765938400,4.3399384765625,0.2540297061264515,-0.15407354038059712,-0.021265271672978998
1772794227775983600,4.349983642578125,0.19157354221343992,-0.15807970728203655,0.017125687650218605
1772794227786027800,4.36002783203125,0.14253332471251487,-0.18205040198881178,0.004293897801637649
1772794227796072400,4.370072509765625,0.1435872176796198,-0.15305530324876307,-0.0447070836674422
1772794227806117600,4.38011767578125,0.10928864223659038,-0.11772395069189369,-0.056322556528821587
1772794227816162600,4.39016259765625,0.042758945274353026,-0.10066730968989432,-0.05253120142184198
1772794227826206700,4.400206787109375,-0.007047580423951149,-0.04530735111553222,0.017035963540151713
1772794227836251400,4.41025146484375,-0.062327569097280495,0.02009253809917718,0.0812078453298658
1772794227846296600,4.420296630859375,-0.11827040559351444,0.040585035301372405,0.11504362556673586
1772794227856341500,4.430341552734375,-0.15961305432915687,0.003842098913528025,0.10200199235975742
1772794227866385700,4.4403857421875,-0.19689678306281566,-0.03698971422314644,0.0477503968860954
1772794227876430600,4.4504306640625,-0.19979133546054362,-0.04855678136553615,0.00020735914036631582
1772794227886475500,4.4604755859375,-0.19543840094804762,-0.11741086615473031,-0.07704539188817143
1772794227896520700,4.470520751953125,-0.2053349410623312,-0.1418071293298155,-0.07473616509772836
1772794227906564400,4.480564453125,-0.23562661895155906,-0.12994140803441404,-0.03947641647234559
1772794227916609500,4.490609619140625,-0.26811025392711163,-0.1113342861874029,-0.0036417905684560537
1772794227926654500,4.500654541015625,-0.2582756731331348,-0.05324135898519307,0.05079217573478818
1772794227936699600,4.51069970703125,-0.25191315236389633,0.01986030024588108,0.11303360091857612
1772794227946743600,4.52074365234375,-0.2395505143970251,0.06400595063827931,0.14768120899498463
1772794227956788500,4.53078857421875,-0.20657003581523894,0.055170390819013114,0.15384294649511573
1772794227966833700,4.540833740234375,-0.13458558057844638,-0.00026161007825285196,0.16109591329805553
1772794227976877600,4.550877685546875,-0.015815993291139602,-0.0585221123997122,0.1041764137893915
1772794227986922500,4.560922607421875,0.12086276017427444,-0.08332596999499946,0.04953633045479655
1772794227996967700,4.5709677734375,0.227349788993597,-0.14054912862535565,0.036348420644924044
1772794228007012600,4.5810126953125,0.2559972068071365,-0.16140655014980584,0.043390155849978324
1772794228017056800,4.591056884765625,0.31321780815422534,-0.14971684300843624,0.06477920003309845
1772794228027101400,4.601101318359375,0.3520376604139805,-0.11473781102057545,0.14456716862767935
1772794228037146600,4.611146728515625,0.3917851489126682,-0.027487909047491845,0.11307488277703523
1772794228047191600,4.621191650390625,0.4064379436433315,0.011828311894461511,0.1455533301208168
1772794228057235500,4.6312353515625,0.31382687996327874,-0.08364055236950516,0.21220175809189676
1772794228067280600,4.64128076171875,0.2860439700245857,-0.07700794595461338,0.11711904360130429
1772794228077325600,4.65132568359375,0.34631285302639003,0.1045328260116279,-0.45619449272006746
1772794228087370800,4.661370849609375,0.08535305537581443,-0.15509568650256841,-0.08077171893492341
1772794228097414400,4.671414306640625,0.07029518697559833,-0.26540077577270565,0.13808818187192082
1772794228107459600,4.68145947265625,0.04181318885684013,-0.08609295049030333,-0.06414747800081969
1772794228117504500,4.69150439453125,0.010710779106616974,-0.10545078110676258,-0.1632932041466236
1772794228127548700,4.701548583984375,0.005647650498151779,-0.06766922238618135,-0.16818565236330033
1772794228137593600,4.711593505859375,-0.04371463856399059,-0.08888535768780857,-0.10797953239940106
1772794228147638500,4.721638427734375,-0.04984159701168537,-0.051765185485407705,-0.09428842230774462
1772794228157683700,4.73168359375,-0.05724456674456596,-0.03421265072524547,-0.02555237440764904
1772794228167727400,4.741727294921875,-0.07438216402828693,-0.046080381314642725,-0.015084756407141684
1772794228177772500,4.7517724609375,-0.11149930402338504,-0.021597389704175293,-0.0015217296745628117
1772794228187817500,4.7618173828125,-0.20170330656170843,0.004510024770349264,0.08310235383957625
1772794228197862700,4.771862548828125,-0.24299802450239658,0.04869122140016406,-0.016480960005894302
1772794228207906600,4.781906494140625,-0.3225087835907936,0.012383973015844821,0.057161710766702886
1772794228217951500,4.791951416015625,-0.3274930017441511,-0.038774296084977684,0.0030438977405428886
1772794228227996700,4.80199658203125,-0.27235914354324336,-0.09345566127803176,0.010748773029446601
1772794228238041600,4.81204150390625,-0.18309388315975664,-0.1068585290128365,-0.042014848908782
1772794228248085500,4.82208544921875,-0.07372574594616889,-0.11860851497408002,-0.07040266593806445
1772794228258130400,4.83213037109375,0.04077040180563926,-0.12970464013647287,-0.09100479752719402
1772794228268175600,4.842175537109375,0.1354565181940794,-0.14165705333463846,-0.044959012601897115
1772794228278219800,4.8522197265625,0.22813772450089453,-0.11859539976418018,-0.029678222166001796
1772794228288264400,4.862264404296875,0.21949673740565775,-0.061705162882618604,-0.016398761615157128
1772794228298309600,4.8723095703125,0.16677987721860407,-0.02015639711562544,0.05795476084053516
1772794228308354600,4.8823544921875,0.14571779996752737,0.01405596134867519,0.10454210529662668
1772794228318398500,4.8923984375,0.11873159336447715,-0.012295856340974569,0.0921381124060601
1772794228328443600,4.902443603515625,0.13378595463335513,-0.031207039168477058,0.035693317737057806
1772794228338488600,4.912488525390625,0.1444359434634447,-0.05640015180967748,-0.015783406195789575
1772794228348533500,4.922533447265625,0.1667611725181341,-0.0602766279168427,-0.022715908872708676
1772794228358577400,4.932577392578125,0.1936930185854435,-0.07044782025404274,-0.027995164449885486
1772794228368622600,4.94262255859375,0.16966215465664863,-0.054147842838242644,-0.016945727973431347
1772794228378667500,4.95266748046875,0.04273907153010368,-0.021793314135074616,0.035681846494972705
1772794228388712700,4.962712646484375,-0.10217325727343558,0.014046280204877257,0.10191416794583201
1772794228398756600,4.972756591796875,-0.16917583244442938,0.02583612325247377,0.027115824332088232
1772794228408801500,4.982801513671875,-0.10726911910772323,0.05047014070618897,-0.13580116691328584
1772794228418846700,4.9928466796875,-0.0610159019768238,-0.0372075216922909,-0.038417262808233495
1772794228428891600,5.0028916015625,-0.009399696508049964,-0.01471902836728841,-0.05927439207173883
1772794228438935600,5.012935546875,0.028269232150912284,0.06304528891257942,-0.17219605704843996
1772794228448980500,5.02298046875,-0.01926759504973888,0.0522282364198938,-0.14257847902849316
1772794228459025700,5.033025634765625,-0.06703180126547813,0.034369631385244424,-0.16361542183831332
1772794228469069800,5.04306982421875,-0.09767945298552512,0.017446955493837592,-0.196048495670408
1772794228479114800,5.05311474609375,-0.10951777481734752,-0.024159641407616436,-0.2315575428817421
1772794228489160000,5.063159912109375,-0.08986673340797424,-0.0329125644447282,-0.23175759549848735
1772794228499204600,5.07320458984375,-0.08397533728182316,-0.00929981633014977,-0.1953512341212481
1772794228509248800,5.083248779296875,-0.08544774792194366,0.0012801760036498307,-0.14605097744464873
1772794228519293700,5.093293701171875,-0.09130407273471355,0.023341931816563008,-0.12003909576646983
1772794228529338600,5.103338623046875,-0.07135258707404137,0.007386274326406419,-0.06475786498412489
1772794228539383600,5.113383544921875,-0.018960136535763738,-0.003386683296225965,-0.011641849411651492
1772794228549427700,5.123427734375,0.02974456540048122,-0.005764408745616674,0.049950537278875703
1772794228559473000,5.133472900390625,0.1035802014619112,-0.009302446678653358,0.09764891171678901
1772794228569517600,5.143517578125,0.13938918146789073,0.005253098222613334,0.13087832355834542
1772794228579562800,5.153562744140625,0.15253858589828012,0.0009270517170429229,0.15591872985586522
1772794228589606700,5.163606689453125,0.12026537880301474,-0.002654167770594358,0.17517843386009335
1772794228599651800,5.17365185546875,0.10760755728185176,-0.044064328784495586,0.21354235904589294
1772794228609696500,5.183696533203125,0.11367138736546038,-0.08016637345291673,0.2264031557932496
1772794228619741700,5.19374169921875,0.1266851827174425,-0.07098050235863775,0.19096052488163112
1772794228629785900,5.203785888671875,0.11763327673375606,-0.04517364173326641,0.15499591592252254
1772794228639830800,5.213830810546875,0.09296820655465125,-0.02454202832132578,0.13450769303664564
1772794228649875700,5.223875732421875,0.04629588722884655,0.030862536579743027,0.10289309598058462
1772794228659919600,5.233919677734375,0.028044191223382947,0.09112312667723745,0.1155934414692223
1772794228669964800,5.24396484375,0.019703063857555388,0.1077097024820745,0.13789865064918994
1772794228680009700,5.254009765625,0.06740881788432598,0.06300652780476958,0.09278086728900671
1772794228690054700,5.2640546875,0.13429390415549278,-0.0041146687772125,0.031369390123337504
1772794228700098800,5.274098876953125,0.16334581111669538,-0.08833656469862908,0.01820887977704406
1772794228710143700,5.284143798828125,0.14108780207931995,-0.09834445623289793,-0.009154927966743708
1772794228720188700,5.294188720703125,0.027183775001764297,-0.05199965182840824,-0.059644467493146655
1772794228730233600,5.304233642578125,-0.07994388980865479,-0.010797945933416484,-0.07615574957206844
1772794228740277800,5.31427783203125,-0.1501829626828432,0.033271862743794914,-0.07409750186800956
1772794228750323000,5.324322998046875,-0.13959785578250883,0.05877542957365513,-0.04548676280304789
1772794228760367600,5.33436767578125,-0.06482698469758033,0.07298084586299955,-0.039540860010683535
1772794228770412800,5.344412841796875,-0.0027881694138050077,0.09697638275008648,-0.0281694250382483
1772794228780456700,5.354456787109375,-0.00012976385951042174,0.17592972715143113,0.028219109398871657
1772794228790501600,5.364501708984375,-0.09886369433403014,0.21719331930149346,0.07486819397956132
1772794228800546600,5.374546630859375,-0.21247253785729406,0.19127861438747495,0.08163096611276269
1772794228810591700,5.384591796875,-0.23237550820112227,0.12322963543608784,0.042351241256296634
1772794228820636000,5.394635986328125,-0.17210954780876636,0.04117068970222026,-0.03198752202168107
1772794228830680600,5.4046806640625,-0.07011106258034706,-0.04626019486095756,-0.07845102090239524
1772794228840725800,5.414725830078125,0.029599019449949263,-0.10568754900470376,-0.11647051656469702
1772794228850769700,5.424769775390625,0.09742167883217334,-0.11175700511150062,-0.12318696533814072
1772794228860814800,5.43481494140625,0.10961188284158706,-0.04951455701440573,-0.09417334456071257
1772794228870859500,5.444859619140625,0.08966565787792205,-0.032498540283739566,-0.06557575723826885
1772794228880904700,5.45490478515625,0.07990706492960453,0.0442007415805012,-0.06003726620301604
1772794228890948900,5.464948974609375,0.06515080982446671,0.09004844665043056,0.009939356342703104
1772794228900993800,5.474993896484375,0.031022330251336095,0.06799370510019362,0.02989347235187888
1772794228911038700,5.485038818359375,0.04388064278066158,0.042226884224265814,0.04294964554086327
1772794228921083600,5.495083740234375,0.10557809728085994,-0.029949659518525004,0.07139905656427145
1772794228931127800,5.5051279296875,0.16295535049438475,-0.0523464194394648,0.03197612384483218
1772794228941172500,5.51517236328125,0.2001145760655403,-0.04573971465080976,0.010681406881660223
1772794228951217700,5.5252177734375,0.18866496129035948,-0.0385576941922307,0.04112769081071019
1772794228961262600,5.5352626953125,0.1544084714233875,-0.000744096365571022,0.07616846292316913
1772794228971306800,5.545306640625,0.14457272158563136,0.024770722510665654,0.11167407606840132
1772794228981351700,5.5553515625,0.1518833368599415,0.02682005625590682,0.10367723209559916
1772794228991396600,5.565396728515625,0.17772504960298538,0.011532105426862836,0.10930676241517066
1772794229001440800,5.575440673828125,0.19792495706677435,-0.030440804036334156,0.031665158199518914
1772794229011485700,5.585485595703125,0.2269540676742792,-0.06419314377345145,-0.05698518515601754
1772794229021530600,5.595530517578125,0.1896048724889755,-0.09216149328164756,-0.10268062227368355
1772794229031575600,5.605575439453125,0.22347090173363685,-0.09011376697160303,-0.1777300180390477
1772794229041619700,5.61561962890625,0.2131897462159395,-0.054057315010577436,-0.20443989191874862
1772794229051664600,5.62566455078125,0.1312000297933817,-0.02081628579646349,-0.2123331293866038
1772794229061709600,5.63570947265625,-0.02895779893696308,0.05716156463623046,-0.20204992804229258
1772794229071754800,5.645754638671875,-0.1837976475149393,0.13187339901030062,-0.09049100278615951
1772794229081799000,5.655798828125,-0.2985708586424589,0.15562296177968382,0.022837416360527274
1772794229091843600,5.665843505859375,-0.27852877208888527,0.19296784611605106,0.044336131463199854
1772794229101888800,5.675888671875,-0.18506956714689732,0.17983860769085586,0.03528159513100981
1772794229111933700,5.68593359375,-0.12774725899100303,0.11739230758473276,0.008889993420243263
1772794229121977900,5.695977783203125,-0.07754442745149136,0.04721957794502377,0.010468348652869462
1772794229132022500,5.7060224609375,-0.07369885793924331,0.040937355870381,0.08588423964306711
1772794229142067700,5.716067626953125,-0.079764441588521,-0.017172449401393532,0.11861483511701225
1772794229152112600,5.726112548828125,-0.06427870316505432,-0.05019136029742658,0.15658040863499045
1772794229162156800,5.73615673828125,-0.029220249265432357,-0.09106573393419384,0.16959478850886225
1772794229172201700,5.74620166015625,0.05395487754940986,-0.15975472782216965,0.13273790688514708
1772794229182246700,5.75624658203125,0.15488661032915113,-0.16938837921656666,0.12988076388835906
1772794229192290800,5.766290771484375,0.25339491535425185,-0.1498791574306786,0.15966756099537013
1772794229202335500,5.77633544921875,0.3457014431297779,-0.09445837204717099,0.1975863727621734
1772794229212380700,5.786380615234375,0.3165408150970936,-0.03440620053596794,0.24156200034990905
1772794229222425600,5.796425537109375,0.25853227824270725,-0.003087006229907274,0.25941519855707884
1772794229232469800,5.8064697265625,0.20154022495448587,0.0022209639851003883,0.2119739406853914
1772794229242514700,5.8165146484375,0.08763152170181274,0.030614114776626226,0.20270517708063124
1772794229252559600,5.8265595703125,-0.0007855974197387695,0.040738326166942715,0.16103168895542622
1772794229262604800,5.836604736328125,-0.008332359537482261,0.04136493363268673,0.07841185793578624
1772794229272648700,5.846648681640625,0.0005360065728425979,0.0038912352848798036,0.01950900259017944
1772794229282693600,5.856693603515625,0.022806875091791152,-0.048736996770650146,-0.0280910991050303
1772794229292738600,5.866738525390625,0.034328386059403415,-0.03463113186564296,-0.08731675666421651
1772794229302783700,5.87678369140625,0.016889760002493856,-0.038669264807924625,-0.08194514662846922
1772794229312828000,5.886827880859375,-0.01698328350484371,0.00025616671815514565,-0.13717369737550617
1772794229322872600,5.89687255859375,-0.0136550158649683,0.009985095180571078,-0.12431567710712552
1772794229332917800,5.906917724609375,-0.008391396248340606,-0.00787862442061305,-0.09010214959904551
1772794229342962700,5.916962646484375,0.006435586005449295,-0.0040649113513529294,-0.06025090895369649
1772794229353006600,5.927006591796875,-0.022736147943139075,0.0016540873499587177,-0.04273527213782072
1772794229363051800,5.9370517578125,-0.02570142748951912,-0.00011515081226825714,-0.005788081882148981
1772794229373096700,5.9470966796875,-0.02544482237994671,-0.036775340820103884,-0.01167538635507226
1772794229383141600,5.9571416015625,-0.06114917296767235,-0.06147325382288545,-0.03663111004382372
1772794229393185500,5.967185546875,-0.06497311517000198,-0.05585471982136368,-0.019000322415679692
1772794229403230700,5.977230712890625,-0.071107087880373,-0.047644854152388866,0.013032938443869352
1772794229413275600,5.987275634765625,-0.0697299543082714,-0.024723595433309674,0.08601677998155355
1772794229423319800,5.99731982421875,-0.040707273441553116,-0.022483926747739313,0.10531637760475278
1772794229433364700,6.00736474609375,0.003994038072228432,-0.026961072161793706,0.0904369345113635
1772794229443409700,6.01740966796875,-0.011273089164495468,-0.015811755507439375,0.09837371886000036
1772794229453454800,6.027454833984375,-0.014598434194922447,-0.0018341931572183965,0.09208382493555545
1772794229463499000,6.0374990234375,-0.04475742561519146,0.02326572477519512,0.06802738817408681
1772794229473544200,6.047544189453125,-0.05626315449178219,0.035897060148231685,0.03022197365388274
1772794229483588900,6.0575888671875,-0.061517421758174894,0.029912213584966957,0.005675561418384313
1772794229493634000,6.067634033203125,-0.008193243327736854,0.014081241920404136,-0.013236352061480283
1772794229503678200,6.07767822265625,0.05756780734956264,-0.038404951315931975,-0.04845291913226247
1772794229513723000,6.087722900390625,0.0819780259847641,-0.07226539107002318,-0.07747764582559466
1772794229523768000,6.09776806640625,0.08330196806490421,-0.07152790710832924,-0.0941938028268516
1772794229533813000,6.10781298828125,0.06696165863871574,-0.06972779888380319,-0.10636720183193683
1772794229543857200,6.117857177734375,0.021267244434356687,-0.06527319409511984,-0.1165716388516128
1772794229553901800,6.12790185546875,0.0030523733079433437,-0.05251794008146971,-0.11924129645228385
1772794229563947000,6.137947021484375,-0.024079963767528533,-0.026457506553828714,-0.07293152682855725
1772794229573991200,6.1479912109375,0.018023147946596145,-0.06821111071053892,-0.07203370120599865
1772794229584036000,6.1580361328125,0.09616378772556781,-0.05232124846559018,-0.07008212874680757
1772794229594081000,6.1680810546875,0.1342149937003851,-0.05590579242147505,-0.06905132439434528
1772794229604126000,6.1781259765625,0.17682839302420614,-0.07661558563616126,-0.06057867960333824
1772794229614170000,6.188170166015625,0.17389058600664137,-0.048872971175238485,-0.04411065214425325
1772794229624214800,6.19821484375,0.11641805572509765,-0.029303068710677324,-0.041942075933516024
1772794229634260000,6.208260009765625,0.04908464116454124,-0.031391821150854225,-0.047313832099735734
1772794229644305000,6.218304931640625,0.031029929035902022,-0.02067183582447469,-0.014850509259849785
1772794229654349000,6.22834912109375,-0.07345920396447181,-0.03410590241514146,0.06601590222120285
1772794229664394000,6.23839404296875,-0.15012451049387454,-0.043630138618312775,0.03999050347432494
1772794229674439000,6.24843896484375,-0.13942775991261006,-0.031529110729694367,0.009618892216682433
1772794229684484000,6.258484130859375,-0.0705751729607582,-0.03125412971321493,0.015454174241423606
1772794229694528000,6.268528076171875,-0.025075989067554472,-0.03783635764773935,0.03670315236672759
1772794229704573000,6.278572998046875,0.01695113480091095,-0.03245806214287877,0.018369184905290603
1772794229714617900,6.288617919921875,0.058145899498462675,-0.06651997928582132,0.02225011799186468
1772794229724663000,6.2986630859375,0.0949964975118637,-0.09325188233423977,0.04739464225098491
1772794229734707200,6.308707275390625,0.10921265439093113,-0.06770104229655116,0.06679813864007592
1772794229744751900,6.318751953125,0.13180617899298666,-0.08832476466298103,0.056610360494256017
1772794229754797000,6.328797119140625,0.17412381024062631,-0.11130129723325372,0.03550736671090126
1772794229764841000,6.338841064453125,0.15935235756635666,-0.11471161713339388,0.049555473546683784
1772794229774886000,6.348885986328125,0.08053834857046603,-0.09272128258887678,0.05412015111371875
1772794229784931000,6.35893115234375,0.04903028062880039,-0.0404013492975384,0.07989011379480361
1772794229794976000,6.36897607421875,0.008857260194420813,-0.004650565752200782,0.1071143669374287
1772794229805020200,6.379020263671875,-0.043511809468269345,0.061138761171512304,0.15131255123466253
1772794229815064800,6.38906494140625,-0.08634908067584038,0.05889737545289099,0.15204305746629834
1772794229825110000,6.399110107421875,-0.10274375063776969,0.026840624119900167,0.10721665826812386
1772794229835155000,6.409155029296875,-0.09733049341738223,-0.014421762453764676,0.045777416312694545
1772794229845199000,6.41919921875,-0.07486731719672679,-0.03697816991582513,0.0030507658727467056
1772794229855244000,6.429244140625,-0.03593114508092403,-0.048355230911448596,-0.03522606555148959
1772794229865289000,6.4392890625,-0.0323947876483202,-0.038189153140783305,-0.06246098621860146
1772794229875334100,6.449334228515625,-0.012072715109586714,-0.03199208859894424,-0.07543824895247817
1772794229885377800,6.459377685546875,-0.003964227455854416,-0.03557670562006533,-0.10938099669516085
1772794229895423000,6.469423095703125,0.021710896548628806,-0.04208970424327999,-0.13138240062296389
1772794229905468000,6.479468017578125,0.04357786044180393,-0.04463591812737286,-0.16347279849722982
1772794229915513000,6.48951318359375,0.06064589962065219,-0.05325527791269123,-0.19376564543023705
1772794229925557000,6.499556884765625,0.0763923348069191,-0.06453691570982337,-0.20281886658817527
1772794229935602000,6.509601806640625,0.06593173106908798,-0.05146832143068313,-0.2491650226995349
1772794229945647000,6.519647216796875,0.06984861225187779,-0.04933510879427194,-0.24829978417232632
1772794229955692000,6.529692138671875,0.06026829847991466,-0.04070961152911186,-0.21665771458745
1772794229965736000,6.53973583984375,0.022889877200126647,-0.007874313571676611,-0.16925240481197834
1772794229975780900,6.54978076171875,0.02546995682120323,0.020109891092777252,-0.04970218854099512
1772794229985826000,6.559825927734375,0.06672434275150299,0.023230507331341504,0.043708939475566144
1772794229995870200,6.5698701171875,0.10810030923485756,0.06286138371303678,0.1331888655230403
1772794230005915000,6.579914794921875,0.14117372679710388,0.0840580471292138,0.21475918748974798
1772794230015960000,6.5899599609375,0.17709318144023417,0.09620901510678231,0.2481459087848663
1772794230026005000,6.6000048828125,0.1794184095174074,0.09268032952398061,0.28155528030321
1772794230036049000,6.610048828125,0.13887012602984905,0.04415229932889342,0.2839515277899802
1772794230046093800,6.62009375,0.06831307324767112,0.005130860082432628,0.22704963700324296
1772794230056139000,6.630138916015625,0.016295885762572286,-0.01945668788105249,0.2158826385617256
1772794230066184000,6.640183837890625,-0.045165421894192696,-0.017407208005338907,0.19947233263924716
1772794230076227800,6.650227783203125,-0.1074099888831377,-0.028501871863007545,0.13619111607894302
1772794230086273000,6.66027294921875,-0.13396715641915796,-0.015531915652751922,0.08101970234662294
1772794230096318000,6.67031787109375,-0.09784078102707862,-0.03844685422889888,0.055982876245677465
1772794230106363100,6.680363037109375,-0.047315877926349635,-0.022729864332824944,0.0008916881427168846
1772794230116407000,6.690406982421875,0.014556933140754699,-0.022282120565325022,-0.014000029910355805
1772794230126452000,6.700451904296875,0.09049217182993888,-0.04379522951953113,-0.02830006568059325
1772794230136497000,6.710496826171875,0.1279138477295637,-0.0471023082409054,-0.05146247621178627
1772794230146541000,6.720541015625,0.09719780694842338,-0.014058043707907199,-0.06739245127141476
1772794230156586000,6.7305859375,0.0037479543566703794,0.017655629808455704,-0.03860051042065024
1772794230166631000,6.740630859375,-0.11225216821730136,0.012743088651821017,-0.03765869952589273
1772794230176676000,6.750676025390625,-0.16009294680058955,-0.005288315666466951,-0.0670173343487084
1772794230186720000,6.760719970703125,-0.14241408224701882,-0.03740815883092582,-0.06659764763191342
1772794230196765000,6.770764892578125,-0.07898059773445129,-0.053320525168627494,-0.09191898976266384
1772794230206810000,6.78081005859375,0.005394552519917488,-0.054693713217973706,-0.08838292459100484
1772794230216855000,6.79085498046875,0.08498772919476032,-0.023556743611022828,-0.050787207298725844
1772794230226899000,6.80089892578125,0.12332710446119308,0.011085676833614706,-0.015058745183050632
1772794230236944000,6.81094384765625,0.09982523284256457,0.010179302578419447,-0.03591872399076819
1772794230246989000,6.820989013671875,0.07867138565480708,0.025220146778598428,-0.028756869537383316
1772794230257034000,6.831033935546875,0.019772037440538404,0.025359043792635202,-0.002246317622065544
1772794230267078000,6.841077880859375,0.01528758550286293,0.04358348646499216,-0.005865677163004875
1772794230277123000,6.851123046875,0.025722470277547836,0.0677059741999954,0.00011865794360637664
1772794230287168000,6.86116796875,0.06899170316159725,0.05205335477702319,-0.0066853229828178875
1772794230297213200,6.871213134765625,0.1091524486362934,0.010820888417586683,-0.0018897592693567274
1772794230307256800,6.8812568359375,0.21833061623573302,-0.04923325585499406,-0.018698709120601415
1772794230317302000,6.891302001953125,0.2682745045781135,-0.07284019528329372,-0.026695406962931153
1772794230327347000,6.901346923828125,0.2939087120503187,-0.0472055494196713,0.019663170238584278
1772794230337390800,6.911390869140625,0.2755927186369896,-0.016057035505399105,0.04695566631183028
1772794230347436000,6.92143603515625,0.24697686500549315,0.015474632507562636,0.061351709802448744
1772794230357481000,6.93148095703125,0.17529928376078605,0.028408713686838744,0.09009002076983451
1772794230367526100,6.941526123046875,0.07983867586851119,0.00963197089396417,0.08345730475708842
1772794230377569800,6.95156982421875,0.012315876215696334,-0.01092274135686457,0.06596183394640684
1772794230387615000,6.961614990234375,-0.07361468678712844,-0.06774681766703725,0.02370806171521544
1772794230397660000,6.971659912109375,-0.16978841138482093,-0.07817709933184087,-0.050994858700037
1772794230407705000,6.981705078125,-0.1887643300116062,-0.07219765959605574,-0.07127002335712314
1772794230417749000,6.9917490234375,-0.20362112288177012,-0.042951691367477174,-0.07222469373345375
1772794230427794000,7.0017939453125,-0.2145359001278877,0.0013439619548618793,-0.030628947019577024
1772794230437839000,7.011839111328125,-0.2388970189243555,0.07487571969889104,0.014552695357054472
1772794230447884000,7.021884033203125,-0.21617197689712048,0.08890285681188106,0.040514673478901385
1772794230457928000,7.031927978515625,-0.13558277492225168,0.09571838204562663,0.011456921298801898
1772794230467972900,7.041972900390625,-0.04254559478461742,0.04611154363788664,-0.010554127240180969
1772794230478017800,7.052017822265625,0.03682546357214451,-0.02082074277587235,-0.03508125025331974
1772794230488063000,7.06206298828125,0.09410568615198135,-0.08237959252297877,-0.05172697236686945
1772794230498106600,7.072106689453125,0.13703238920867442,-0.08603270820304751,-0.07519596462920308
1772794230508151800,7.08215185546875,0.12036825465559958,-0.05111037483848631,-0.031856589118391274
1772794230518196700,7.09219677734375,0.04539455447494983,0.0083143854893744,0.05952946281135082
1772794230528241000,7.102240966796875,0.01160802020728588,0.07806333675906062,0.11093377909511327
1772794230538285800,7.112285888671875,-0.02621463770866394,0.09946253701001405,0.13805734834223984
1772794230548330800,7.122330810546875,-0.08032032190561295,0.07381503166481852,0.13011837203651666
1772794230558376000,7.1323759765625,-0.13566402346491813,0.06277750482186675,0.10262304686754942
1772794230568419800,7.142419921875,-0.1684703145235777,0.02261485965102911,0.09274287336617708
1772794230578464800,7.15246484375,-0.12552490676641465,0.003920680575072765,0.08733648427799344
1772794230588509700,7.162509765625,-0.041595162191987035,-0.00012917933762073515,0.05703326208144426
1772794230598555000,7.172554931640625,0.05862053127288818,0.000849383370950818,0.03965498790964484
1772794230608599000,7.18259912109375,0.16105156269967555,-0.00874685862250626,0.029828590422123668
1772794230618643700,7.192643798828125,0.23244039013087747,-0.024439517794921994,0.016858195820450783
1772794230628689000,7.20268896484375,0.22291735950410366,-0.020904621667042374,0.01601210038512945
1772794230638733800,7.21273388671875,0.13831132310330868,-0.0056388096045702695,0.0013053835101425647
1772794230648777700,7.22277783203125,0.0929839886456728,-0.029691520038992166,-0.016757219664007426
1772794230658822700,7.23282275390625,0.06968669968843459,-0.04192680529914796,-0.04672390338256955
1772794230668867800,7.242867919921875,0.0934147812783718,-0.0515814994815737,-0.08228636128157377
1772794230678912800,7.252912841796875,0.11666472396254539,-0.07794460575021803,-0.12537190816178917
1772794230688956700,7.262956787109375,0.1764379324018955,-0.07354483642131089,-0.11390680355653166
1772794230699001900,7.273001953125,0.20197861637175082,-0.044684433444216846,-0.042096535842865705
1772794230709046800,7.283046875,0.1972866591632366,-0.027617124917730686,-0.011462035865336655
1772794230719091000,7.293091064453125,0.18006138359606266,-0.01705605648010969,0.035316374183446166
1772794230729135900,7.303135986328125,0.17036065831482408,-0.04047726407796144,0.028250527450442313
1772794230739180800,7.313180908203125,0.1629968515485525,-0.06914207141771912,0.08689546251222491
1772794230749225700,7.323225830078125,0.18128771052062512,-0.08697882994674146,0.022536533717811107
1772794230759270000,7.333269775390625,0.21667057406902313,-0.09941847867257893,-0.05897548219040036
1772794230769314800,7.343314697265625,0.20043606310486792,-0.10668583932705222,-0.06917056685984134
1772794230779359700,7.35335986328125,0.08643617443740367,-0.06873159092068672,-0.038135961648821826
1772794230789405000,7.363405029296875,-0.10134265166819095,-0.0070968994583934545,-0.029056583136320112
1772794230799448800,7.37344873046875,-0.15692016198337078,0.008721651116013526,-0.022013240496069193
1772794230809493800,7.38349365234375,-0.11787000809907912,0.017130363825336097,-0.06607669249773025
1772794230819539000,7.3935390625,-0.07736614827513694,0.1384344380263239,-0.1201739011272788
1772794230829584000,7.403583984375,-0.0825964501440525,0.07251147478558123,-0.032711598512530325
