time,seconds_elapsed,z,y,x
1772794223496926500,0.070926513671875,0.08807077258825302,-0.2503966987133026,0.20289121568202972
1772794223506971600,0.0809716796875,0.2561740577220917,-0.21670383214950562,0.20651905238628387
1772794223517016600,0.0910166015625,0.44945722818374634,-0.14956767857074738,0.2006438672542572
1772794223527060500,0.101060546875,0.6127198934555054,-0.027197454124689102,0.17134501039981842
1772794223537105700,0.111105712890625,0.724226713180542,0.07262687385082245,0.1196724995970726
1772794223547150600,0.121150634765625,0.7824565768241882,0.0868590772151947,0.05119909718632698
1772794223557195800,0.13119580078125,0.8078109622001648,0.06863108277320862,-0.024250922724604607
1772794223567239400,0.141239501953125,0.8001625537872314,0.07168114185333252,-0.10216135531663895
1772794223577284600,0.15128466796875,0.8031245470046997,0.15774545073509216,-0.16519039869308472
1772794223587329500,0.16132958984375,0.8143662214279175,0.30157285928726196,-0.21466143429279327
1772794223597374700,0.171374755859375,0.8231642246246338,0.3352903425693512,-0.2653523087501526
1772794223607418600,0.181418701171875,0.8512579202651978,0.17713096737861633,-0.29251566529273987
1772794223617463600,0.191463623046875,0.9018401503562927,0.08036687970161438,-0.2960784435272217
1772794223627508700,0.2015087890625,0.9335823059082031,0.055239416658878326,-0.2752287685871124
1772794223637552400,0.211552490234375,0.9659197330474854,0.21240293979644775,-0.2750279903411865
1772794223647597600,0.22159765625,0.994752824306488,0.14541058242321014,-0.3385961949825287
1772794223657642500,0.231642578125,0.9773485660552979,0.21365807950496674,-0.4342931807041168
1772794223667687700,0.241687744140625,0.9482418894767761,0.3695612847805023,-0.5421200394630432
1772794223677731600,0.251731689453125,0.879574179649353,0.5129919052124023,-0.6068475842475891
1772794223687776500,0.261776611328125,0.8033050894737244,0.6526719331741333,-0.6235748529434204
1772794223697821700,0.27182177734375,0.7451589703559875,0.4955750107765198,-0.5992303490638733
1772794223707866600,0.28186669921875,0.7200415134429932,0.34470686316490173,-0.5282154083251953
1772794223717910500,0.29191064453125,0.7022726535797119,0.22379028797149658,-0.4492572546005249
1772794223727955500,0.30195556640625,0.6689193248748779,0.18997929990291595,-0.3791998624801636
1772794223738000600,0.312000732421875,0.6395435929298401,0.12178424745798111,-0.3244125247001648
1772794223748045600,0.322045654296875,0.5891183614730835,-0.018550850450992584,-0.3042584955692291
1772794223758089500,0.33208935546875,0.5370314717292786,-0.1259305775165558,-0.2938796281814575
1772794223768134700,0.342134765625,0.4911024570465088,-0.21077653765678406,-0.2961410582065582
1772794223778179600,0.3521796875,0.4218519926071167,-0.2766631543636322,-0.30821770429611206
1772794223788223500,0.362223388671875,0.3803351819515228,-0.34826332330703735,-0.31649214029312134
1772794223798268700,0.3722685546875,0.333209753036499,-0.36874648928642273,-0.32862523198127747
1772794223808313600,0.382313720703125,0.27410686016082764,-0.29169148206710815,-0.38383740186691284
1772794223818358800,0.39235888671875,0.1996355652809143,-0.188368558883667,-0.43472373485565186
1772794223828402400,0.40240234375,0.15518343448638916,-0.17525973916053772,-0.48462018370628357
1772794223838447600,0.412447509765625,0.1067221537232399,-0.10135887563228607,-0.5230098962783813
1772794223848492500,0.422492431640625,0.04402901977300644,-0.05084674805402756,-0.5437958836555481
1772794223858537700,0.432537841796875,-0.02323736809194088,0.06479702889919281,-0.5275527238845825
1772794223868581600,0.44258154296875,-0.07051599025726318,0.18345947563648224,-0.527309238910675
1772794223878626600,0.45262646484375,-0.11850827932357788,0.19885282218456268,-0.5155497789382935
1772794223888671700,0.462671630859375,-0.17298951745033264,0.2409178465604782,-0.5013191103935242
1772794223898716700,0.472716552734375,-0.22637870907783508,0.23744428157806396,-0.4703100621700287
1772794223908760600,0.482760498046875,-0.2689993977546692,0.19791220128536224,-0.41725873947143555
1772794223918805500,0.492805419921875,-0.3091851770877838,0.12087840586900711,-0.3374994695186615
1772794223928850700,0.5028505859375,-0.3444055914878845,0.030678734183311462,-0.22346016764640808
1772794223938894600,0.51289453125,-0.3752601742744446,-0.042304396629333496,-0.08573292940855026
1772794223948939500,0.522939453125,-0.39462774991989136,-0.08966509997844696,0.06417092680931091
1772794223958984700,0.532984619140625,-0.4013359844684601,-0.11507352441549301,0.2125268429517746
1772794223969029600,0.543029541015625,-0.40318581461906433,-0.13469526171684265,0.33667445182800293
1772794223979073500,0.553073486328125,-0.39864301681518555,-0.165207639336586,0.4380463659763336
1772794223989118500,0.563118408203125,-0.3926868438720703,-0.20174646377563477,0.5119839906692505
1772794223999163600,0.57316357421875,-0.37389424443244934,-0.23840728402137756,0.563730001449585
1772794224009208600,0.58320849609375,-0.35449734330177307,-0.25800853967666626,0.5913094878196716
1772794224019252500,0.59325244140625,-0.33536678552627563,-0.24858358502388,0.5830731391906738
1772794224029297700,0.603297607421875,-0.3195679187774658,-0.23748177289962769,0.5402440428733826
1772794224039342600,0.613342529296875,-0.2965947091579437,-0.22301414608955383,0.47703659534454346
1772794224049386500,0.623386474609375,-0.2568959891796112,-0.16837525367736816,0.3855176568031311
1772794224059431700,0.633431640625,-0.2086336314678192,-0.08108534663915634,0.27213969826698303
1772794224069476600,0.6434765625,-0.15004564821720123,-0.008578388951718807,0.13333627581596375
1772794224079521500,0.653521484375,-0.0964583158493042,0.025955621153116226,-0.01842423342168331
1772794224089565400,0.6635654296875,-0.06211224943399429,0.03170211985707283,-0.15303219854831696
1772794224099610600,0.673610595703125,-0.05993538349866867,0.031491994857788086,-0.2596590518951416
1772794224109655600,0.683655517578125,-0.07641895860433578,0.024844858795404434,-0.31879255175590515
1772794224119700700,0.69370068359375,-0.09847898781299591,0.0023613874800503254,-0.34770676493644714
1772794224129744600,0.70374462890625,-0.10388552397489548,-0.004860557150095701,-0.33941566944122314
1772794224139789600,0.71378955078125,-0.10339177399873734,-0.013875357806682587,-0.32470622658729553
1772794224149834800,0.723834716796875,-0.1054372638463974,-0.03767785429954529,-0.3062070608139038
1772794224159879700,0.733879638671875,-0.10344841331243515,-0.06583625078201294,-0.29214316606521606
1772794224169923600,0.743923583984375,-0.10977167636156082,-0.1052953377366066,-0.2824154496192932
1772794224179968500,0.753968505859375,-0.12018144130706787,-0.14488989114761353,-0.26899099349975586
1772794224190013700,0.764013671875,-0.1230648085474968,-0.16577529907226562,-0.2606309652328491
1772794224200057600,0.7740576171875,-0.11780479550361633,-0.16324396431446075,-0.2677575945854187
1772794224210102500,0.7841025390625,-0.1473831832408905,-0.1231001690030098,-0.30832645297050476
1772794224220147700,0.794147705078125,-0.16456297039985657,-0.10566151887178421,-0.37372514605522156
1772794224230192600,0.804192626953125,-0.15260815620422363,-0.032814063131809235,-0.4519076645374298
1772794224240236500,0.814236572265625,-0.13738179206848145,0.04279334843158722,-0.5280804634094238
1772794224250281500,0.824281494140625,-0.10569211095571518,0.09252074360847473,-0.5870641469955444
1772794224260326700,0.83432666015625,-0.06826138496398926,0.12244908511638641,-0.6119349002838135
1772794224270371600,0.84437158203125,-0.032002415508031845,0.10544085502624512,-0.6083353757858276
1772794224280415500,0.85441552734375,-0.011055589653551579,0.062356770038604736,-0.5718146562576294
1772794224290460700,0.864460693359375,-0.005473522003740072,0.03212488815188408,-0.5090712904930115
1772794224300505600,0.874505615234375,-0.008872248232364655,0.04007389023900032,-0.42099305987358093
1772794224310550800,0.88455078125,-0.021023135632276535,0.06441625207662582,-0.3185761868953705
1772794224320594400,0.894594482421875,-0.04801720008254051,0.06187772750854492,-0.21599920094013214
1772794224330639600,0.9046396484375,-0.08221003413200378,0.019719282165169716,-0.1139003112912178
1772794224340684500,0.9146845703125,-0.11469766497612,-0.04167003929615021,0.0036153956316411495
1772794224350728400,0.924728515625,-0.13930010795593262,-0.07516460865736008,0.13416747748851776
1772794224360773600,0.934773681640625,-0.15493127703666687,-0.08263424038887024,0.2663657069206238
1772794224370818600,0.944818603515625,-0.1790541112422943,-0.08589906245470047,0.383687287569046
1772794224380863700,0.95486376953125,-0.18920661509037018,-0.09242913126945496,0.483733206987381
1772794224390907600,0.96490771484375,-0.20023824274539948,-0.09172840416431427,0.5554169416427612
1772794224400952600,0.97495263671875,-0.20441541075706482,-0.09490714967250824,0.5897253751754761
1772794224410997500,0.98499755859375,-0.19756917655467987,-0.10766102373600006,0.5734902024269104
1772794224421042700,0.995042724609375,-0.16831648349761963,-0.11762391030788422,0.508736252784729
1772794224431086600,1.005086669921875,-0.11135715246200562,-0.10454849153757095,0.40511924028396606
1772794224441131500,1.015131591796875,-0.04417331889271736,-0.06275470554828644,0.28552255034446716
1772794224451176700,1.0251767578125,0.013365454971790314,-0.010797115974128246,0.1480070799589157
1772794224461222000,1.035221923828125,0.06243819370865822,0.020245755091309547,0.013400544412434101
1772794224471265800,1.045265869140625,0.10666105151176453,0.021689187735319138,-0.11354648321866989
1772794224481310700,1.055310791015625,0.14331626892089844,0.0033602481707930565,-0.22414571046829224
1772794224491356000,1.06535595703125,0.18536558747291565,-0.01025511883199215,-0.3116515576839447
1772794224501399800,1.07539990234375,0.22094061970710754,-0.021134398877620697,-0.384181946516037
1772794224511444700,1.08544482421875,0.23832494020462036,-0.06758978217840195,-0.43432101607322693
1772794224521490000,1.095489990234375,0.228709876537323,-0.08665961027145386,-0.46080055832862854
1772794224531534800,1.105534912109375,0.1896916627883911,-0.08896894752979279,-0.4496024250984192
1772794224541578800,1.115578857421875,0.1445726603269577,-0.12201744318008423,-0.4059484302997589
1772794224551624000,1.1256240234375,0.0984402671456337,-0.173923522233963,-0.33295220136642456
1772794224561668900,1.1356689453125,0.050280194729566574,-0.19515849649906158,-0.2516530752182007
1772794224571714000,1.145714111328125,-0.01648837700486183,-0.14134031534194946,-0.16884447634220123
1772794224581757700,1.1557578125,-0.07584092020988464,-0.04305822774767876,-0.0980435460805893
1772794224591803000,1.165802978515625,-0.0865287184715271,0.040767695754766464,-0.06274307519197464
1772794224601847800,1.175847900390625,-0.14874707162380219,-0.06489481776952744,-0.05213756859302521
1772794224611893000,1.18589306640625,-0.23076628148555756,-0.12186259776353836,-0.03239547833800316
1772794224621937000,1.19593701171875,-0.30987387895584106,-0.14921167492866516,0.009456896223127842
1772794224631981800,1.20598193359375,-0.4401766061782837,-0.14834880828857422,0.05667108669877052
1772794224642027000,1.216027099609375,-0.5360506772994995,-0.19844740629196167,0.10547670722007751
1772794224652070700,1.226070556640625,-0.5659813284873962,-0.20771174132823944,0.1632145345211029
1772794224662115800,1.23611572265625,-0.5426414012908936,-0.19763299822807312,0.21725806593894958
1772794224672160800,1.246160888671875,-0.4982382655143738,-0.1555880308151245,0.25913411378860474
1772794224682206000,1.2562060546875,-0.45389237999916077,-0.13695254921913147,0.2951893210411072
1772794224692249900,1.266249755859375,-0.42288362979888916,-0.13097834587097168,0.31727683544158936
1772794224702294800,1.276294677734375,-0.42283302545547485,-0.13405083119869232,0.33391812443733215
1772794224712340000,1.286340087890625,-0.4156527519226074,-0.1547422558069229,0.3297416865825653
1772794224722385000,1.296385009765625,-0.37366029620170593,-0.13345934450626373,0.31453850865364075
1772794224732428800,1.3064287109375,-0.29941806197166443,-0.08747980743646622,0.2883201837539673
1772794224742473700,1.3164736328125,-0.20816804468631744,-0.028904110193252563,0.24967637658119202
1772794224752519000,1.326518798828125,-0.1477241814136505,-0.004037007689476013,0.18824996054172516
1772794224762562800,1.336562744140625,-0.12169470638036728,-0.02160002291202545,0.10737109184265137
1772794224772607700,1.346607666015625,-0.10647262632846832,-0.06140267103910446,0.025199372321367264
1772794224782653000,1.35665283203125,-0.07500524818897247,-0.0812903568148613,-0.046882547438144684
1772794224792697900,1.36669775390625,-0.03780640661716461,-0.06492768228054047,-0.09089341014623642
1772794224802741800,1.37674169921875,-0.0033299229107797146,-0.033794790506362915,-0.12306945770978928
1772794224812787000,1.386786865234375,0.021897554397583008,-0.013076579198241234,-0.13968445360660553
1772794224822831900,1.396831787109375,0.052803538739681244,-0.022048769518733025,-0.1478329300880432
1772794224832876800,1.406876708984375,0.077029749751091,-0.034347034990787506,-0.13917893171310425
1772794224842920700,1.416920654296875,0.0898403525352478,-0.07102116197347641,-0.10913021117448807
1772794224852966000,1.4269658203125,0.09272334724664688,-0.12488720566034317,-0.07429305464029312
1772794224863010800,1.4370107421875,0.09687734395265579,-0.17119824886322021,-0.03210911527276039
1772794224873056000,1.447055908203125,0.10538370162248611,-0.19270795583724976,-0.00029773288406431675
1772794224883100000,1.457099853515625,0.1190774068236351,-0.2023952156305313,0.03618144616484642
1772794224893144800,1.467144775390625,0.12855704128742218,-0.2001173049211502,0.06861696392297745
1772794224903190000,1.47718994140625,0.13211528956890106,-0.1809188425540924,0.0903206616640091
1772794224913233700,1.487233642578125,0.12515555322170258,-0.1410072147846222,0.08950591832399368
1772794224923278800,1.49727880859375,0.11372391879558563,-0.1050390973687172,0.06512920558452606
1772794224933323800,1.50732373046875,0.10470923036336899,-0.05575478821992874,0.019642766565084457
1772794224943369000,1.517368896484375,0.09677834063768387,0.002783088944852352,-0.03011014312505722
1772794224953412900,1.527412841796875,0.07742537558078766,0.038474343717098236,-0.06978919357061386
1772794224963457800,1.537457763671875,0.04789864644408226,0.04151274636387825,-0.0887351855635643
1772794224973503000,1.5475029296875,0.01262021902948618,0.031392622739076614,-0.0783255323767662
1772794224983548000,1.5575478515625,-0.012298446148633957,0.017915163189172745,-0.04854100942611694
1772794224993591800,1.567591796875,-0.03334720805287361,0.009718596003949642,-0.01085982657968998
1772794225003636700,1.57763671875,-0.0480225570499897,0.024400871247053146,0.023631040006875992
1772794225013682000,1.587681884765625,-0.060653071850538254,0.06226341053843498,0.038801055401563644
1772794225023726800,1.597726806640625,-0.06615516543388367,0.0973803773522377,0.04588852450251579
1772794225033770800,1.607770751953125,-0.06565584987401962,0.11456943303346634,0.03804798424243927
1772794225043816000,1.61781591796875,-0.06977736204862595,0.09912150353193283,0.013818813487887383
1772794225053860900,1.62786083984375,-0.06672795861959457,0.05695294588804245,-0.020685983821749687
1772794225063904800,1.63790478515625,-0.046093787997961044,0.024488475173711777,-0.046608395874500275
1772794225073949700,1.64794970703125,-0.01418701559305191,0.021227771416306496,-0.07159146666526794
1772794225083995000,1.657994873046875,0.03004596009850502,0.03226364403963089,-0.08599676936864853
1772794225094039800,1.668039794921875,0.07300739735364914,0.044029321521520615,-0.09770935028791428
1772794225104083700,1.678083740234375,0.12321064621210098,0.027418918907642365,-0.10980170220136642
1772794225114129000,1.68812890625,0.158244326710701,-0.009058553725481033,-0.11128363758325577
1772794225124173800,1.698173828125,0.1723172664642334,-0.0506315603852272,-0.11483176797628403
1772794225134219000,1.708218994140625,0.16645874083042145,-0.059243276715278625,-0.11996695399284363
1772794225144263000,1.718262939453125,0.16469651460647583,-0.057559624314308167,-0.12261280417442322
1772794225154307800,1.728307861328125,0.16091299057006836,-0.04866615682840347,-0.11579576134681702
1772794225164352800,1.738352783203125,0.1527075171470642,-0.020447835326194763,-0.10436014086008072
1772794225174396700,1.748396728515625,0.13935714960098267,0.00981617160141468,-0.08714588731527328
1772794225184441900,1.75844189453125,0.11258838325738907,0.016744384542107582,-0.07454541325569153
1772794225194486800,1.76848681640625,0.08814002573490143,0.005490932147949934,-0.06986091285943985
1772794225204532000,1.778531982421875,0.07120738178491592,-0.018391497433185577,-0.06329541653394699
1772794225214575900,1.788575927734375,0.057519249618053436,-0.03217197209596634,-0.04335503652691841
1772794225224620800,1.798620849609375,0.0445464588701725,-0.011576416902244091,-0.015257621183991432
1772794225234666000,1.808666015625,0.02755158022046089,0.016551418229937553,0.016817379742860794
1772794225244711000,1.8187109375,0.014811018481850624,0.03435811400413513,0.051251254975795746
1772794225254754800,1.8287548828125,0.0094508221372962,0.037370406091213226,0.07988665997982025
1772794225264799700,1.8387998046875,0.017821138724684715,0.03746015578508377,0.10405831038951874
1772794225274845000,1.848844970703125,0.03088027611374855,0.03328230232000351,0.11550097167491913
1772794225284889900,1.858889892578125,0.04557160288095474,0.021800881251692772,0.12160999327898026
1772794225294933800,1.868933837890625,0.04824044927954674,0.0005014915950596333,0.11502699553966522
1772794225304979000,1.87897900390625,0.037166494876146317,-0.024671772494912148,0.10543215274810791
1772794225315024000,1.88902392578125,0.013207446783781052,-0.06464628875255585,0.0934733897447586
1772794225325067800,1.89906787109375,-0.012010292150080204,-0.10875676572322845,0.08372967690229416
1772794225335112700,1.90911279296875,-0.026859186589717865,-0.11969845741987228,0.07954483479261398
1772794225345158000,1.919157958984375,-0.0350089929997921,-0.10233518481254578,0.08214247971773148
1772794225355202800,1.929202880859375,-0.03921292722225189,-0.08196552097797394,0.09204718470573425
1772794225365246700,1.939246826171875,-0.0496024489402771,-0.06347732990980148,0.09695645421743393
1772794225375292000,1.9492919921875,-0.05756339430809021,-0.06331604719161987,0.09670992940664291
1772794225385336800,1.9593369140625,-0.07376793026924133,-0.09246407449245453,0.09665612876415253
1772794225395382000,1.969382080078125,-0.09189583361148834,-0.11495745927095413,0.10198839008808136
1772794225405425700,1.97942578125,-0.10232237726449966,-0.11180001497268677,0.11202824115753174
1772794225415470800,1.989470947265625,-0.09605802595615387,-0.09155374765396118,0.1315820813179016
1772794225425515800,1.999515869140625,-0.0845174789428711,-0.0748559981584549,0.14157027006149292
1772794225435559700,2.0095595703125,-0.08188946545124054,-0.03171587735414505,0.14933326840400696
1772794225445604900,2.01960498046875,-0.07044932246208191,-0.039447035640478134,0.16367332637310028
1772794225455649800,2.02964990234375,-0.04767743498086929,-0.04584980756044388,0.18326327204704285
1772794225465695000,2.039695068359375,-0.021862614899873734,-0.02635759487748146,0.20284096896648407
1772794225475739000,2.04973876953125,-0.021153755486011505,-0.013871317729353905,0.19989177584648132
1772794225485784000,2.0597841796875,-0.05408081039786339,-0.004069820046424866,0.17134854197502136
1772794225495829000,2.0698291015625,-0.08481118828058243,-0.0024713831953704357,0.14477093517780304
1772794225505874000,2.0798740234375,-0.08608417958021164,0.0028480147011578083,0.12978824973106384
1772794225515918000,2.08991796875,-0.06112344563007355,0.016390345990657806,0.1195831298828125
1772794225525963000,2.099962890625,-0.037465788424015045,0.006476996466517448,0.10986818373203278
1772794225536008200,2.11000830078125,-0.0166937168687582,-0.06044398248195648,0.10087526589632034
1772794225546052900,2.120052978515625,0.025709932669997215,-0.11161529272794724,0.09498115628957748
1772794225556097000,2.130096923828125,0.04652869328856468,-0.1369008868932724,0.08673140406608582
1772794225566142200,2.14014208984375,0.09446932375431061,-0.14092066884040833,0.09087954461574554
1772794225576187000,2.150186767578125,0.1264391988515854,-0.08945523202419281,0.08136958628892899
1772794225586231000,2.16023095703125,0.08780578523874283,-0.02038642019033432,0.053557660430669785
1772794225596276000,2.17027587890625,0.025246338918805122,0.04087476059794426,0.008454103022813797
1772794225606321200,2.180321044921875,-0.02735428884625435,0.08449600636959076,-0.024752052500844002
1772794225616365800,2.19036572265625,-0.06125745549798012,0.1033787727355957,-0.043959423899650574
1772794225626410000,2.200409912109375,-0.05325146019458771,0.09340736269950867,-0.060636136680841446
1772794225636455200,2.210455078125,-0.023231327533721924,0.08061161637306213,-0.08061585575342178
1772794225646500000,2.2205,-0.013894550502300262,0.04129642993211746,-0.1069398745894432
1772794225656545000,2.230544921875,-0.016865480691194534,-0.0006180931814014912,-0.12393879145383835
1772794225666589000,2.2405888671875,-0.035145148634910583,0.0008466453291475773,-0.1445164978504181
1772794225676634000,2.250634033203125,-0.04518714174628258,-0.031145483255386353,-0.17649908363819122
1772794225686678800,2.2606787109375,-0.09384522587060928,-0.03955947235226631,-0.20878832042217255
1772794225696723000,2.270722900390625,-0.1548650860786438,-0.0009810226038098335,-0.23165097832679749
1772794225706768100,2.28076806640625,-0.17044350504875183,0.04317738488316536,-0.1997404545545578
1772794225716813000,2.29081298828125,-0.15572775900363922,0.07302310317754745,-0.1308954954147339
1772794225726858000,2.30085791015625,-0.16946274042129517,0.07903225719928741,-0.05334984138607979
1772794225736902000,2.31090185546875,-0.19801053404808044,0.052031636238098145,0.007350446656346321
1772794225746947000,2.320947021484375,-0.21768836677074432,0.06542041897773743,0.04489702358841896
1772794225756992000,2.330991943359375,-0.21161843836307526,0.07931157201528549,0.07513014227151871
1772794225767037000,2.341036865234375,-0.1911427229642868,0.05483153089880943,0.11756202578544617
1772794225777081000,2.3510810546875,-0.16547659039497375,0.013464591465890408,0.16561035811901093
1772794225787126000,2.3611259765625,-0.1587105691432953,-0.021170616149902344,0.21371608972549438
1772794225797171200,2.371171142578125,-0.17736464738845825,-0.05142604559659958,0.2522755265235901
1772794225807215900,2.3812158203125,-0.19683527946472168,-0.061090391129255295,0.27943363785743713
1772794225817260000,2.391260009765625,-0.19946345686912537,-0.06020301580429077,0.3073727786540985
1772794225827305000,2.401304931640625,-0.18237341940402985,-0.05043027549982071,0.3171069025993347
1772794225837350000,2.411349853515625,-0.15848791599273682,-0.03714665398001671,0.30408141016960144
1772794225847394000,2.42139404296875,-0.14007163047790527,-0.04051049053668976,0.2752138078212738
1772794225857439000,2.43143896484375,-0.13343998789787292,-0.08424518257379532,0.25722673535346985
1772794225867484200,2.441484130859375,-0.1382584571838379,-0.11760234087705612,0.24594613909721375
1772794225877528800,2.45152880859375,-0.1346960961818695,-0.22009232640266418,0.264299601316452
1772794225887573000,2.461572998046875,-0.12518276274204254,-0.2814401090145111,0.28906622529029846
1772794225897618200,2.4716181640625,-0.10645832121372223,-0.2781212329864502,0.3042227327823639
1772794225907663000,2.4816630859375,-0.08241822570562363,-0.22816245257854462,0.26744526624679565
1772794225917708000,2.4917080078125,-0.049954622983932495,-0.17772307991981506,0.19325187802314758
1772794225927752000,2.501751953125,-0.03239027410745621,-0.13927263021469116,0.11511100828647614
1772794225937797000,2.511797119140625,-0.02686278149485588,-0.10113522410392761,0.04076029732823372
1772794225947841800,2.521841796875,-0.030393600463867188,-0.08950892835855484,-0.010790779255330563
1772794225957887000,2.531886962890625,-0.03741958364844322,-0.05146200209856033,-0.0596085786819458
1772794225967931100,2.54193115234375,-0.0424678698182106,0.03268776461482048,-0.13513608276844025
1772794225977976000,2.55197607421875,-0.04363929480314255,0.08393312245607376,-0.19486233592033386
1772794225988021000,2.56202099609375,-0.039286356419324875,0.10427221655845642,-0.21572154760360718
1772794225998065000,2.57206494140625,-0.025402572005987167,0.09107975661754608,-0.20283664762973785
1772794226008110000,2.582110107421875,-0.015696149319410324,0.06183958053588867,-0.16288816928863525
1772794226018155000,2.592155029296875,-0.004207168240100145,0.056344419717788696,-0.11001091450452805
1772794226028200000,2.602199951171875,0.0024720397777855396,0.0631306916475296,-0.08248341828584671
1772794226038244000,2.612244140625,0.0008868646109476686,0.04519152641296387,-0.08040066808462143
1772794226048289000,2.6222890625,-0.0021922821179032326,0.030363574624061584,-0.09369144588708878
1772794226058334200,2.632334228515625,-0.005705390591174364,0.03322227671742439,-0.09213070571422577
1772794226068379000,2.64237890625,-0.014048807322978973,0.039003998041152954,-0.0782279446721077
1772794226078423000,2.652423095703125,-0.027348686009645462,0.03630781173706055,-0.05816018953919411
1772794226088468000,2.662468017578125,-0.03878829628229141,0.026012828573584557,-0.04590965062379837
1772794226098513000,2.672512939453125,-0.05031275376677513,0.017476074397563934,-0.03392549604177475
1772794226108557000,2.68255712890625,-0.05562123283743858,0.014906391501426697,-0.025244390591979027
1772794226118602000,2.69260205078125,-0.056560736149549484,0.011907655745744705,-0.00622128788381815
1772794226128647200,2.702647216796875,-0.05816928297281265,0.020139221101999283,0.0031764747109264135
1772794226138691800,2.71269189453125,-0.09654660522937775,0.013108733110129833,0.00018075574189424515
1772794226148736000,2.722736083984375,-0.11140864342451096,-0.0922672227025032,0.03308970481157303
1772794226158781000,2.732781005859375,-0.08989328891038895,-0.07932078093290329,0.010147493332624435
1772794226168826000,2.742826171875,-0.05972633510828018,-0.1368706226348877,0.007170345634222031
1772794226178871000,2.75287109375,-0.0490112267434597,-0.19294345378875732,0.04527541995048523
1772794226188915000,2.7629150390625,-0.035685036331415176,-0.23231908679008484,0.08464919030666351
1772794226198960000,2.772960205078125,-0.021838562563061714,-0.26465585827827454,0.12652450799942017
1772794226209005000,2.783005126953125,-0.009344344027340412,-0.2836412489414215,0.14682818949222565
1772794226219050000,2.793050048828125,0.01839504949748516,-0.3510732054710388,0.14159157872200012
1772794226229094100,2.80309423828125,0.03199900686740875,-0.4341917932033539,0.11601350456476212
1772794226239139000,2.81313916015625,0.02794882096350193,-0.47684019804000854,0.056245286017656326
1772794226249184000,2.82318408203125,0.02999998815357685,-0.46819743514060974,-0.031915199011564255
1772794226259228000,2.833227783203125,0.03383222594857216,-0.4095836579799652,-0.1314619928598404
1772794226269273000,2.843273193359375,0.03426472470164299,-0.33395230770111084,-0.22863595187664032
1772794226279318000,2.853318115234375,0.03619157895445824,-0.10784367471933365,-0.40155676007270813
1772794226289363000,2.863363037109375,0.016737457364797592,0.10577087104320526,-0.5759429335594177
1772794226299407000,2.873406982421875,0.003636076580733061,0.08646418899297714,-0.5485501289367676
1772794226309452000,2.8834521484375,-0.013861424289643764,0.061001699417829514,-0.38541603088378906
1772794226319497200,2.893497314453125,-0.03436139225959778,0.10615112632513046,-0.19082263112068176
1772794226329542000,2.9035419921875,-0.06023373454809189,0.1626863032579422,-0.02882174588739872
1772794226339586000,2.9135859375,-0.07380534708499908,0.16699232161045074,0.07770493626594543
1772794226349631000,2.923630859375,-0.08941999077796936,0.1523694396018982,0.14640915393829346
1772794226359676000,2.933676025390625,-0.0826689824461937,0.10159333795309067,0.1776590347290039
1772794226369720800,2.943720947265625,-0.06589745730161667,0.047488022595644,0.18430548906326294
1772794226379765000,2.953764892578125,-0.056354112923145294,-0.011539509519934654,0.18303270637989044
1772794226389810200,2.96381005859375,-0.05308721959590912,-0.05374502018094063,0.1806960552930832
1772794226399854800,2.973854736328125,-0.05576839670538902,-0.0741124376654625,0.1882709264755249
1772794226409899000,2.98389892578125,-0.06093413010239601,-0.06717517226934433,0.20639853179454803
1772794226419944000,2.99394384765625,-0.062222033739089966,-0.0348111093044281,0.22912143170833588
1772794226429989000,3.003989013671875,-0.0626143142580986,-0.007805058732628822,0.24871748685836792
1772794226440033800,3.01403369140625,-0.06052127480506897,0.008949531242251396,0.25484955310821533
1772794226450078000,3.024077880859375,-0.057916704565286636,0.023882141336798668,0.2612033188343048
1772794226460123000,3.034122802734375,-0.05362020432949066,0.02839668095111847,0.2533848285675049
1772794226470167600,3.04416748046875,-0.04989950358867645,0.013251016847789288,0.22452309727668762
1772794226480212700,3.054212646484375,-0.04031962528824806,-0.007510882802307606,0.1753765046596527
1772794226490257000,3.0642568359375,-0.028652578592300415,-0.025726638734340668,0.1131908968091011
1772794226500301800,3.0743017578125,-0.02026667632162571,-0.037453293800354004,0.05272572487592697
1772794226510346800,3.0843466796875,-0.022890688851475716,-0.034028999507427216,-0.0025966514367610216
1772794226520391700,3.0943916015625,-0.021655676886439323,-0.016600467264652252,-0.04981084167957306
1772794226530435800,3.104435791015625,-0.023458104580640793,-0.0072940499521791935,-0.09041951596736908
1772794226540480800,3.114480712890625,-0.02694077230989933,-0.004519306123256683,-0.12714821100234985
1772794226550525700,3.124525634765625,-0.029731765389442444,-0.002019130624830723,-0.15645816922187805
1772794226560569900,3.13456982421875,-0.03930605575442314,0.01519464049488306,-0.18292377889156342
1772794226570614800,3.14461474609375,-0.04324886575341225,0.04056098312139511,-0.19446298480033875
1772794226580660000,3.154659912109375,-0.04118524119257927,0.06290160119533539,-0.17524412274360657
1772794226590704600,3.16470458984375,-0.044637762010097504,0.0721701979637146,-0.1496112048625946
1772794226600748800,3.174748779296875,-0.045823834836483,0.06742498278617859,-0.12051410973072052
1772794226610793700,3.184793701171875,-0.04378518462181091,0.06957308948040009,-0.10295616090297699
1772794226620838700,3.194838623046875,-0.04132000729441643,0.06949867308139801,-0.09691858291625977
1772794226630883600,3.204883544921875,-0.04085688292980194,0.05582760274410248,-0.09430815279483795
1772794226640927700,3.214927734375,-0.035007864236831665,0.03191700950264931,-0.09030507504940033
1772794226650973000,3.224972900390625,-0.03745530918240547,0.0169532410800457,-0.0727577731013298
1772794226661017600,3.235017578125,-0.03903651982545853,0.0017392328009009361,-0.052641626447439194
1772794226671061800,3.245061767578125,-0.0398397296667099,-0.012607481330633163,-0.020824575796723366
1772794226681106700,3.255106689453125,-0.04544868692755699,-0.0275200717151165,0.005680264439433813
1772794226691152000,3.26515185546875,-0.04855845868587494,-0.044876955449581146,0.032004013657569885
1772794226701196500,3.275196533203125,-0.04821455478668213,-0.044832050800323486,0.05588861554861069
1772794226711240700,3.28524072265625,-0.04182616248726845,-0.04681823402643204,0.07943469285964966
1772794226721286000,3.295285888671875,-0.04425742104649544,-0.05036301165819168,0.09427982568740845
1772794226731330600,3.30533056640625,-0.04739435762166977,-0.05496761575341225,0.10471542179584503
1772794226741375700,3.315375732421875,-0.038425590842962265,-0.04866907745599747,0.10015910118818283
1772794226751420000,3.325419921875,-0.03550117462873459,-0.04045748710632324,0.10290694981813431
1772794226761464800,3.33546484375,-0.031234771013259888,-0.04002690315246582,0.11092577129602432
1772794226771509800,3.345509765625,-0.02703576534986496,-0.0351509228348732,0.102414570748806
1772794226781554700,3.3555546875,-0.010959336534142494,-0.03824242949485779,0.08962618559598923
1772794226791598800,3.365598876953125,-0.0005714102298952639,-0.027498705312609673,0.08343327045440674
1772794226801643800,3.375643798828125,0.001855117967352271,-0.016692301258444786,0.06960080564022064
1772794226811688700,3.385688720703125,0.007508209906518459,-0.028302883729338646,0.04244321957230568
1772794226821732900,3.39573291015625,0.008023133501410484,-0.05065899342298508,0.0030879469122737646
1772794226831777800,3.40577783203125,0.008781335316598415,-0.0806557759642601,-0.03476249426603317
1772794226841823000,3.415822998046875,0.005420927423983812,-0.10007426887750626,-0.06272801011800766
1772794226851867600,3.42586767578125,-0.0026966542936861515,-0.10792446881532669,-0.07065118104219437
1772794226861911800,3.435911865234375,-0.004339301958680153,-0.10603586584329605,-0.06865156441926956
1772794226871956700,3.445956787109375,0.0015044723404571414,-0.0983036458492279,-0.06382671743631363
1772794226882001700,3.456001708984375,-0.005277339369058609,-0.09403880685567856,-0.047326307743787766
1772794226892046600,3.466046630859375,-0.011195948347449303,-0.10169806331396103,-0.05067017301917076
1772794226902090800,3.4760908203125,-0.012959145940840244,-0.10399230569601059,-0.059035006910562515
1772794226912136000,3.486135986328125,-0.014900590293109417,-0.11706603318452835,-0.06493257731199265
1772794226922180600,3.4961806640625,-0.012204672209918499,-0.11719200015068054,-0.05839691311120987
1772794226932225800,3.506225830078125,-0.011827834881842136,-0.11479488760232925,-0.044348470866680145
1772794226942269700,3.516269775390625,-0.0007504055975005031,-0.14558571577072144,-0.04730282723903656
1772794226952315000,3.52631494140625,-0.013271523639559746,-0.13713711500167847,-0.04689190164208412
1772794226962359600,3.536359619140625,-0.02401023916900158,-0.11753677576780319,-0.03741820529103279
1772794226972403700,3.54640380859375,-0.049720399081707,-0.08174549043178558,-0.011612971313297749
1772794226982449000,3.556448974609375,-0.05189749225974083,-0.05386762693524361,0.02639733999967575
1772794226992493800,3.566493896484375,-0.05724778026342392,-0.03384997695684433,0.06043759733438492
1772794227002538800,3.576538818359375,-0.05889090150594711,-0.016245942562818527,0.09065458923578262
1772794227012582700,3.586582763671875,-0.06249255686998367,-0.0046249739825725555,0.11066398024559021
1772794227022627800,3.5966279296875,-0.07470159232616425,0.012372489087283611,0.129435196518898
1772794227032672800,3.6066728515625,-0.08801820129156113,0.01871240884065628,0.13214336335659027
1772794227042717700,3.6167177734375,-0.10065562278032303,0.01121982466429472,0.12499464303255081
1772794227052761900,3.626761962890625,-0.11435705423355103,0.0014649312943220139,0.1138722151517868
1772794227062806800,3.636806884765625,-0.11851441115140915,-0.007176878862082958,0.1103924810886383
1772794227072851700,3.646851806640625,-0.1281214952468872,-0.010060283355414867,0.10724329203367233
1772794227082896600,3.656896728515625,-0.13015280663967133,-0.015553840436041355,0.11055722087621689
1772794227092940800,3.66694091796875,-0.1260552704334259,-0.008922835811972618,0.10862776637077332
1772794227102986000,3.676986083984375,-0.11530768871307373,0.0079405028373003,0.11067908257246017
1772794227113030700,3.68703076171875,-0.09486952424049377,0.014414114877581596,0.11944940686225891
1772794227123074800,3.69707470703125,-0.08980761468410492,0.043127842247486115,0.12462837249040604
1772794227133119700,3.70711962890625,-0.08900413662195206,0.06376734375953674,0.12419720739126205
1772794227143164700,3.71716455078125,-0.08865269273519516,0.07041838765144348,0.12803198397159576
1772794227153209600,3.727209716796875,-0.08811313658952713,0.09214072674512863,0.12162760645151138
1772794227163253800,3.737253662109375,-0.09510844200849533,0.05757873132824898,0.09446168690919876
1772794227173299000,3.747298828125,-0.10963625460863113,0.01825716160237789,0.06904447823762894
1772794227183343600,3.757343505859375,-0.11723490804433823,-0.003161940723657608,0.04299130663275719
1772794227193388800,3.767388916015625,-0.08189556002616882,0.01614491082727909,0.026019515469670296
1772794227203432700,3.7774326171875,-0.0799693614244461,-0.0004931394942104816,0.004953906871378422
1772794227213478000,3.787477783203125,-0.07545850425958633,0.044863954186439514,0.00036847637966275215
1772794227223522600,3.7975224609375,-0.06543829292058945,0.0365428626537323,-0.013164639472961426
1772794227233567700,3.807567626953125,-0.06027655303478241,0.0025625242851674557,-0.042900700122117996
1772794227243612000,3.81761181640625,-0.07457760721445084,0.003891271073371172,-0.0722801610827446
1772794227253656800,3.82765673828125,-0.08967480063438416,0.014678405597805977,-0.09551730751991272
1772794227263701800,3.83770166015625,-0.10443264245986938,0.00546451099216938,-0.11166740208864212
1772794227273745700,3.84774560546875,-0.10790993273258209,-0.0323806069791317,-0.11619743704795837
1772794227283790800,3.857790771484375,-0.10000722110271454,-0.0715746134519577,-0.09362025558948517
1772794227293835500,3.86783544921875,-0.06373682618141174,-0.07853052020072937,-0.056237731128931046
1772794227303880700,3.877880615234375,-0.06212722510099411,-0.06870090216398239,0.016303159296512604
1772794227313924900,3.8879248046875,-0.03992312029004097,0.010848786681890488,0.1267804056406021
1772794227323969800,3.8979697265625,-0.0044752866961061954,0.05495676025748253,0.23122456669807434
1772794227334014700,3.9080146484375,0.012884262949228287,0.016122277826070786,0.2899872064590454
1772794227344059600,3.9180595703125,0.007275369018316269,-0.018545527011156082,0.30255264043807983
1772794227354103800,3.928103759765625,0.0007783210603520274,-0.033609699457883835,0.28432944416999817
1772794227364148700,3.938148681640625,0.014115892350673676,-0.08204136788845062,0.24716901779174805
1772794227374193700,3.948193603515625,0.03326055780053139,-0.14921854436397552,0.2037815898656845
1772794227384238600,3.958238525390625,0.079469695687294,-0.2714169919490814,0.1432325392961502
1772794227394282800,3.96828271484375,0.07303736358880997,-0.2718780040740967,0.08979994803667068
1772794227404328000,3.978327880859375,0.06834812462329865,-0.2323814481496811,0.0640270784497261
1772794227414371800,3.988371826171875,0.059152763336896896,-0.17354716360569,0.052403442561626434
1772794227424415700,3.998415771484375,0.029289742931723595,-0.1094404011964798,0.042727917432785034
1772794227434460700,4.008460693359375,0.0032136684749275446,-0.045681655406951904,0.04299663007259369
1772794227444505600,4.018505615234375,0.00628198916092515,0.011060884222388268,0.035614922642707825
1772794227454550800,4.02855078125,0.007794930599629879,0.05994560569524765,0.026549790054559708
1772794227464594700,4.0385947265625,-0.0001706560724414885,0.06731035560369492,-0.010930744931101799
1772794227474639600,4.0486396484375,-0.01235275436192751,0.02081848867237568,-0.06257316470146179
1772794227484684500,4.0586845703125,-0.023865578696131706,-0.025023087859153748,-0.10636934638023376
1772794227494728400,4.068728515625,-0.024212589487433434,-0.014331560581922531,-0.1280519962310791
1772794227504773600,4.078773681640625,-0.01967700943350792,0.1302250772714615,-0.10028637945652008
1772794227514818600,4.088818603515625,-0.017824780195951462,0.36025509238243103,0.0004663279978558421
1772794227524863500,4.098863525390625,-0.04269415885210037,0.5030848979949951,0.10741864889860153
1772794227534907600,4.10890771484375,-0.0773695781826973,0.5083563923835754,0.17888697981834412
1772794227544952600,4.11895263671875,-0.11442471295595169,0.4587514400482178,0.20761266350746155
1772794227554997800,4.128997802734375,-0.13788902759552002,0.43368789553642273,0.1999180018901825
1772794227565042400,4.13904248046875,-0.12081477046012878,0.401719331741333,0.18058371543884277
1772794227575086600,4.149086669921875,-0.12692619860172272,0.4040900766849518,0.1535952389240265
1772794227585131500,4.159131591796875,-0.12837070226669312,0.38772282004356384,0.1392088532447815
1772794227595176700,4.1691767578125,-0.13035209476947784,0.336645245552063,0.13044971227645874
1772794227605220600,4.179220703125,-0.13251329958438873,0.2726065218448639,0.13524433970451355
1772794227615265500,4.189265625,-0.13014255464076996,0.21943038702011108,0.1479814350605011
1772794227625310700,4.199310791015625,-0.13353416323661804,0.16992680728435516,0.14684462547302246
1772794227635355400,4.20935546875,-0.1471242755651474,0.12489408254623413,0.12261837720870972
1772794227645399600,4.219399658203125,-0.15248747169971466,0.08581874519586563,0.08953038603067398
1772794227655444700,4.22944482421875,-0.15040993690490723,0.05655326694250107,0.06085054203867912
1772794227665489700,4.23948974609375,-0.14384059607982635,0.03999011591076851,0.056069713085889816
1772794227675534600,4.24953466796875,-0.1323607712984085,0.02634008228778839,0.06791811436414719
1772794227685578500,4.25957861328125,-0.12712779641151428,0.008279368281364441,0.06819405406713486
1772794227695623700,4.269623779296875,-0.1241019070148468,-0.01766115240752697,0.04517582058906555
1772794227705668600,4.279668701171875,-0.10873142629861832,-0.03827720880508423,0.0061524854972958565
1772794227715713500,4.289713623046875,-0.08584315329790115,-0.056787773966789246,-0.0218418650329113
1772794227725757700,4.2997578125,-0.06358256936073303,-0.0684058666229248,-0.045049943029880524
1772794227735802600,4.309802734375,-0.04498757794499397,-0.06649531424045563,-0.061901092529296875
1772794227745847800,4.319847900390625,-0.043039556592702866,-0.07147708535194397,-0.09076965600252151
1772794227755893500,4.3298935546875,-0.04503879323601723,-0.07711020857095718,-0.12183249741792679
1772794227765938400,4.3399384765625,-0.05704911798238754,-0.08065993338823318,-0.15071581304073334
1772794227775983600,4.349983642578125,-0.05620249733328819,-0.07099985331296921,-0.1669805347919464
1772794227786027800,4.36002783203125,-0.04887299984693527,-0.04015059024095535,-0.17341949045658112
1772794227796072400,4.370072509765625,-0.04920483008027077,-0.02402195706963539,-0.18655526638031006
1772794227806117600,4.38011767578125,-0.048110995441675186,-0.014645280316472054,-0.19348666071891785
1772794227816162600,4.39016259765625,-0.04610909894108772,-0.005298117641359568,-0.1835956871509552
1772794227826206700,4.400206787109375,-0.03774445876479149,-0.00024909060448408127,-0.16853992640972137
1772794227836251400,4.41025146484375,-0.022600660100579262,-0.0027513965032994747,-0.14805994927883148
1772794227846296600,4.420296630859375,-0.010009929537773132,-0.015942558646202087,-0.11989763379096985
1772794227856341500,4.430341552734375,-0.0003687540302053094,-0.02185983583331108,-0.09115093946456909
1772794227866385700,4.4403857421875,0.004363458137959242,-0.01748036965727806,-0.0723436176776886
1772794227876430600,4.4504306640625,0.0014952337369322777,-0.016364239156246185,-0.05658009648323059
1772794227886475500,4.4604755859375,-0.014715396799147129,-0.021650293841958046,-0.05159207433462143
1772794227896520700,4.470520751953125,-0.0264788456261158,-0.018800977617502213,-0.042233191430568695
1772794227906564400,4.480564453125,-0.03592647984623909,-0.01715749129652977,-0.0227697491645813
1772794227916609500,4.490609619140625,-0.037527307868003845,-0.020149819552898407,0.007861662656068802
1772794227926654500,4.500654541015625,-0.03621227294206619,-0.02824988029897213,0.04243755713105202
1772794227936699600,4.51069970703125,-0.02932160720229149,-0.03295488655567169,0.06976106017827988
1772794227946743600,4.52074365234375,-0.016970377415418625,-0.02867523767054081,0.09550002217292786
1772794227956788500,4.53078857421875,-0.0046186367981135845,-0.021486833691596985,0.11850520223379135
1772794227966833700,4.540833740234375,0.012854875065386295,-0.01873600296676159,0.13553501665592194
1772794227976877600,4.550877685546875,0.01989547535777092,-0.02404501475393772,0.13890205323696136
1772794227986922500,4.560922607421875,0.018803106620907784,-0.02599513716995716,0.125746950507164
1772794227996967700,4.5709677734375,0.01420622505247593,-0.026503801345825195,0.10739777237176895
1772794228007012600,4.5810126953125,0.015369974076747894,-0.01889808103442192,0.07881702482700348
1772794228017056800,4.591056884765625,0.01974155381321907,-0.028756573796272278,0.049850884824991226
1772794228027101400,4.601101318359375,0.030472269281744957,-0.04249991476535797,0.018821939826011658
1772794228037146600,4.611146728515625,0.03309335187077522,-0.05575020611286163,-0.0214165598154068
1772794228047191600,4.621191650390625,0.04480523616075516,-0.06387829780578613,-0.05355989187955856
1772794228057235500,4.6312353515625,0.07435514032840729,-0.051887147128582,-0.08003677427768707
1772794228067280600,4.64128076171875,0.08763245493173599,-0.04376055672764778,-0.10524974763393402
1772794228077325600,4.65132568359375,0.02352270856499672,-0.05691257864236832,-0.14311723411083221
1772794228087370800,4.661370849609375,0.009239491075277328,-0.026412343606352806,-0.14232006669044495
1772794228097414400,4.671414306640625,0.03686526045203209,-0.017688093706965446,-0.14572812616825104
1772794228107459600,4.68145947265625,0.04758726805448532,0.010252291336655617,-0.1437978595495224
1772794228117504500,4.69150439453125,0.04126226156949997,0.026480261236429214,-0.13603155314922333
1772794228127548700,4.701548583984375,0.029453035444021225,0.027042511850595474,-0.12425699830055237
1772794228137593600,4.711593505859375,0.020445693284273148,0.034798167645931244,-0.10563617199659348
1772794228147638500,4.721638427734375,0.007170337717980146,0.036167778074741364,-0.09717044234275818
1772794228157683700,4.73168359375,0.0031090164557099342,0.03464098647236824,-0.07961408793926239
1772794228167727400,4.741727294921875,-0.0016844070050865412,0.019205838441848755,-0.06521303951740265
1772794228177772500,4.7517724609375,-0.006712721195071936,-0.0017308690585196018,-0.04935871437191963
1772794228187817500,4.7618173828125,-0.00679070083424449,-0.016721799969673157,-0.022846180945634842
1772794228197862700,4.771862548828125,-0.02083594724535942,-0.04358510300517082,0.00010813609696924686
1772794228207906600,4.781906494140625,-0.019448192790150642,-0.04259862005710602,0.03379682078957558
1772794228217951500,4.791951416015625,-0.018970955163240433,-0.047333188354969025,0.0614422932267189
1772794228227996700,4.80199658203125,-0.01929527521133423,-0.03448982164263725,0.08860304206609726
1772794228238041600,4.81204150390625,-0.01942390762269497,-0.027445495128631592,0.10041975229978561
1772794228248085500,4.82208544921875,-0.020619502291083336,-0.016910303384065628,0.10824818164110184
1772794228258130400,4.83213037109375,-0.022188104689121246,-0.018505802378058434,0.10930386185646057
1772794228268175600,4.842175537109375,-0.01986275427043438,-0.02251582033932209,0.10297806560993195
1772794228278219800,4.8522197265625,-0.02378718927502632,-0.04314280301332474,0.07997447997331619
1772794228288264400,4.862264404296875,-0.02428576350212097,-0.06596241891384125,0.049176692962646484
1772794228298309600,4.8723095703125,-0.01680148020386696,-0.07106557488441467,0.03170635551214218
1772794228308354600,4.8823544921875,0.0013586444547399879,-0.06438443809747696,0.024133846163749695
1772794228318398500,4.8923984375,0.013474695384502411,-0.06261982768774033,0.02116122655570507
1772794228328443600,4.902443603515625,0.01992182806134224,-0.06389346718788147,0.021269802004098892
1772794228338488600,4.912488525390625,0.022889388725161552,-0.05265013501048088,0.009544437751173973
1772794228348533500,4.922533447265625,0.02791147492825985,-0.044936299324035645,-0.003817636054009199
1772794228358577400,4.932577392578125,0.0260589811950922,-0.04495733976364136,-0.02104349434375763
1772794228368622600,4.94262255859375,0.022757776081562042,-0.04589875787496567,-0.03809548541903496
1772794228378667500,4.95266748046875,0.02364327758550644,-0.039802782237529755,-0.0388941690325737
1772794228388712700,4.962712646484375,0.0336669459939003,-0.015142334625124931,-0.017369847744703293
1772794228398756600,4.972756591796875,0.037796441465616226,0.015425428748130798,0.011422117240726948
1772794228408801500,4.982801513671875,0.019023945555090904,0.008144835010170937,0.02510886825621128
1772794228418846700,4.9928466796875,0.016555460169911385,0.01677587442100048,0.04031791538000107
1772794228428891600,5.0028916015625,0.009420943446457386,0.005373856518417597,0.041663412004709244
1772794228438935600,5.012935546875,-0.008776701986789703,-0.012801685370504856,0.04195582866668701
1772794228448980500,5.02298046875,-0.019137658178806305,-0.022819479927420616,0.049861423671245575
1772794228459025700,5.033025634765625,-0.02885260246694088,-0.025395555421710014,0.05457548424601555
1772794228469069800,5.04306982421875,-0.0368737131357193,-0.03069353848695755,0.059053175151348114
1772794228479114800,5.05311474609375,-0.046846985816955566,-0.03250208869576454,0.06650310009717941
1772794228489160000,5.063159912109375,-0.06321966648101807,-0.038716208189725876,0.07614663243293762
1772794228499204600,5.07320458984375,-0.07617061585187912,-0.05087939649820328,0.07933496683835983
1772794228509248800,5.083248779296875,-0.08983400464057922,-0.06512986868619919,0.08498425036668777
1772794228519293700,5.093293701171875,-0.09803494065999985,-0.07427410036325455,0.09151725471019745
1772794228529338600,5.103338623046875,-0.10017827153205872,-0.07278640568256378,0.1006031259894371
1772794228539383600,5.113383544921875,-0.09576302021741867,-0.06709230691194534,0.1041690930724144
1772794228549427700,5.123427734375,-0.09042908251285553,-0.060451433062553406,0.10305205732584
1772794228559473000,5.133472900390625,-0.0818539708852768,-0.07303620129823685,0.09577177464962006
1772794228569517600,5.143517578125,-0.08118386566638947,-0.09277316927909851,0.0823511853814125
1772794228579562800,5.153562744140625,-0.07814440131187439,-0.11394316703081131,0.07125671952962875
1772794228589606700,5.163606689453125,-0.07220768183469772,-0.1155591532588005,0.055609941482543945
1772794228599651800,5.17365185546875,-0.05504308268427849,-0.09722968190908432,0.04010794684290886
1772794228609696500,5.183696533203125,-0.03671232610940933,-0.08419883996248245,0.0199771448969841
1772794228619741700,5.19374169921875,-0.026010150089859962,-0.07214777171611786,0.006844299845397472
1772794228629785900,5.203785888671875,-0.024614684283733368,-0.07953277230262756,0.00023946876171976328
1772794228639830800,5.213830810546875,-0.028636857867240906,-0.08227023482322693,0.0011955436784774065
1772794228649875700,5.223875732421875,-0.02799801528453827,-0.079060859978199,0.0038981554098427296
1772794228659919600,5.233919677734375,-0.024352680891752243,-0.07860146462917328,0.00915044080466032
1772794228669964800,5.24396484375,-0.017151400446891785,-0.0642750933766365,0.014678672887384892
1772794228680009700,5.254009765625,-0.011268477886915207,-0.04310296103358269,0.014619284309446812
1772794228690054700,5.2640546875,-0.012590850703418255,-0.019651811569929123,0.0010631814366206527
1772794228700098800,5.274098876953125,-0.009321288205683231,-0.005762096028774977,-0.015022311359643936
1772794228710143700,5.284143798828125,-0.007712779566645622,-0.0023147971369326115,-0.02359643578529358
1772794228720188700,5.294188720703125,-0.00990003440529108,0.006435284856706858,-0.02011515200138092
1772794228730233600,5.304233642578125,-0.018711213022470474,0.033096469938755035,-0.0007636661757715046
1772794228740277800,5.31427783203125,-0.018417999148368835,0.06052383407950401,0.026207497343420982
1772794228750323000,5.324322998046875,-0.01503773219883442,0.07905165106058121,0.046238042414188385
1772794228760367600,5.33436767578125,-0.01660686731338501,0.07431841641664505,0.05528133735060692
1772794228770412800,5.344412841796875,-0.02023167535662651,0.056710340082645416,0.04876009374856949
1772794228780456700,5.354456787109375,-0.017868919298052788,0.025842707604169846,0.04799283668398857
1772794228790501600,5.364501708984375,-0.0112202949821949,0.004237174987792969,0.06221872195601463
1772794228800546600,5.374546630859375,-0.0013466253876686096,-0.010090631432831287,0.09019815921783447
1772794228810591700,5.384591796875,0.004101679660379887,-0.011517979204654694,0.11624189466238022
1772794228820636000,5.394635986328125,0.002657181117683649,-0.02064942568540573,0.1290692836046219
1772794228830680600,5.4046806640625,-0.0044205388985574245,-0.030273564159870148,0.13072876632213593
1772794228840725800,5.414725830078125,-0.019486306235194206,-0.05002862587571144,0.1260402798652649
1772794228850769700,5.424769775390625,-0.03253196179866791,-0.06064743921160698,0.1084928959608078
1772794228860814800,5.43481494140625,-0.03116336651146412,-0.06355854123830795,0.09224468469619751
1772794228870859500,5.444859619140625,-0.03722141310572624,-0.0629952996969223,0.0829591453075409
1772794228880904700,5.45490478515625,-0.031409598886966705,-0.07114510238170624,0.07261676341295242
1772794228890948900,5.464948974609375,-0.020103618502616882,-0.07646039873361588,0.07490240037441254
1772794228900993800,5.474993896484375,-0.012463275343179703,-0.06788767874240875,0.07764359563589096
1772794228911038700,5.485038818359375,0.0021977340802550316,-0.059547826647758484,0.07573125511407852
1772794228921083600,5.495083740234375,0.008639388717710972,-0.06168314814567566,0.07347262650728226
1772794228931127800,5.5051279296875,0.005510685965418816,-0.06077069789171219,0.05579293146729469
1772794228941172500,5.51517236328125,-0.0007381550967693329,-0.06139787286520004,0.03562081977725029
1772794228951217700,5.5252177734375,0.004143727011978626,-0.05282419174909592,0.01601443812251091
1772794228961262600,5.5352626953125,0.008267631754279137,-0.04490475356578827,0.013349678367376328
1772794228971306800,5.545306640625,0.007811872288584709,-0.04744983837008476,0.006893867161124945
1772794228981351700,5.5553515625,0.017116691917181015,-0.04544607549905777,-0.0068837301805615425
1772794228991396600,5.565396728515625,0.02921147830784321,-0.04150869697332382,-0.022243699058890343
1772794229001440800,5.575440673828125,0.03474392741918564,-0.038393061608076096,-0.0447295680642128
1772794229011485700,5.585485595703125,0.031271688640117645,-0.03436700254678726,-0.06208580732345581
1772794229021530600,5.595530517578125,0.02203051932156086,-0.03188307210803032,-0.08161237090826035
1772794229031575600,5.605575439453125,0.009815245866775513,-0.030539125204086304,-0.09652572125196457
1772794229041619700,5.61561962890625,-0.015456288121640682,-0.04773116484284401,-0.11611593514680862
1772794229051664600,5.62566455078125,-0.04749394208192825,-0.06721287965774536,-0.12578964233398438
1772794229061709600,5.63570947265625,-0.07068981230258942,-0.07810015231370926,-0.11968674510717392
1772794229071754800,5.645754638671875,-0.08291677385568619,-0.07591285556554794,-0.09250036627054214
1772794229081799000,5.655798828125,-0.0768522247672081,-0.056110918521881104,-0.05145572870969772
1772794229091843600,5.665843505859375,-0.06500178575515747,-0.04279712587594986,-0.023239225149154663
1772794229101888800,5.675888671875,-0.05202340707182884,-0.038138195872306824,-0.004405084066092968
1772794229111933700,5.68593359375,-0.04922892153263092,-0.043655142188072205,0.011100830510258675
1772794229121977900,5.695977783203125,-0.048899486660957336,-0.05964529141783714,0.019037315621972084
1772794229132022500,5.7060224609375,-0.0428059920668602,-0.0714532732963562,0.029496992006897926
1772794229142067700,5.716067626953125,-0.03497336804866791,-0.07357607781887054,0.04443998634815216
1772794229152112600,5.726112548828125,-0.022788044065237045,-0.06140324845910072,0.05091485753655434
1772794229162156800,5.73615673828125,-0.012971896678209305,-0.0454367995262146,0.059883587062358856
1772794229172201700,5.74620166015625,-0.004441352561116219,-0.027175139635801315,0.05584006384015083
1772794229182246700,5.75624658203125,0.005994244012981653,-0.0034080245532095432,0.03624984994530678
1772794229192290800,5.766290771484375,0.011785452254116535,0.008979521691799164,0.014879627153277397
1772794229202335500,5.77633544921875,0.017587415874004364,0.001973810140043497,-0.01699414849281311
1772794229212380700,5.786380615234375,0.027080509811639786,-0.004747316706925631,-0.04292496666312218
1772794229222425600,5.796425537109375,0.03688972815871239,-0.013658786192536354,-0.05547431483864784
1772794229232469800,5.8064697265625,0.04647671803832054,-0.02411164902150631,-0.07089265435934067
1772794229242514700,5.8165146484375,0.05602468550205231,-0.024740688502788544,-0.07689089328050613
1772794229252559600,5.8265595703125,0.06442678719758987,-0.014370173215866089,-0.06458864361047745
1772794229262604800,5.836604736328125,0.06799675524234772,-0.00745660625398159,-0.0598391629755497
1772794229272648700,5.846648681640625,0.0680941641330719,-0.0007415567524731159,-0.05952209606766701
1772794229282693600,5.856693603515625,0.06542141735553741,0.007882557809352875,-0.06316690146923065
1772794229292738600,5.866738525390625,0.05846484750509262,0.015868622809648514,-0.06953555345535278
1772794229302783700,5.87678369140625,0.05190707743167877,0.015689127147197723,-0.06810756772756577
1772794229312828000,5.886827880859375,0.0420382134616375,0.008838783949613571,-0.06314115226268768
1772794229322872600,5.89687255859375,0.03002203069627285,0.008040900342166424,-0.053215544670820236
1772794229332917800,5.906917724609375,0.023899106308817863,-0.0042915428057312965,-0.04763275384902954
1772794229342962700,5.916962646484375,0.0187594722956419,-0.011742268688976765,-0.05147915706038475
1772794229353006600,5.927006591796875,0.02374321036040783,-0.006840728223323822,-0.05221385136246681
1772794229363051800,5.9370517578125,0.0267653651535511,-0.005289436783641577,-0.041695430874824524
1772794229373096700,5.9470966796875,0.024366572499275208,-0.00935641024261713,-0.035698145627975464
1772794229383141600,5.9571416015625,0.021942296996712685,-0.006002424750477076,-0.030184868723154068
1772794229393185500,5.967185546875,0.014438995160162449,-0.008907921612262726,-0.026930861175060272
1772794229403230700,5.977230712890625,0.01803106814622879,-0.0049880146980285645,-0.019626343622803688
1772794229413275600,5.987275634765625,0.02353806234896183,-0.002234051935374737,-0.007745606824755669
1772794229423319800,5.99731982421875,0.031396251171827316,-0.005991772282868624,-0.0027801431715488434
1772794229433364700,6.00736474609375,0.030958274379372597,-0.01739664375782013,0.003802739316597581
1772794229443409700,6.01740966796875,0.033608920872211456,-0.022356513887643814,0.0033595894929021597
1772794229453454800,6.027454833984375,0.03428109362721443,-0.020294003188610077,0.004418309777975082
1772794229463499000,6.0374990234375,0.03504914790391922,-0.022258885204792023,0.010020269080996513
1772794229473544200,6.047544189453125,0.03401501849293709,-0.02090301737189293,0.020118137821555138
1772794229483588900,6.0575888671875,0.03504539653658867,-0.020578911527991295,0.0314437597990036
1772794229493634000,6.067634033203125,0.034130439162254333,-0.0130360322073102,0.03482590615749359
1772794229503678200,6.07767822265625,0.03416932001709938,-0.012896216474473476,0.03711702302098274
1772794229513723000,6.087722900390625,0.029563261196017265,-0.021454505622386932,0.03520703688263893
1772794229523768000,6.09776806640625,0.021841958165168762,-0.02251657471060753,0.027767229825258255
1772794229533813000,6.10781298828125,0.013827194459736347,-0.025314543396234512,0.021425750106573105
1772794229543857200,6.117857177734375,0.004732766654342413,-0.027417108416557312,0.02421700954437256
1772794229553901800,6.12790185546875,-0.0076930103823542595,-0.02896786853671074,0.024089710786938667
1772794229563947000,6.137947021484375,-0.004000537563115358,-0.020232433453202248,0.025150980800390244
1772794229573991200,6.1479912109375,-0.007699699141085148,-0.016011111438274384,0.021916380152106285
1772794229584036000,6.1580361328125,-0.012619090266525745,-0.005637301132082939,0.012709831818938255
1772794229594081000,6.1680810546875,-0.011514031328260899,-0.0004815729334950447,0.002469525206834078
1772794229604126000,6.1781259765625,-0.013456541113555431,-0.005936259403824806,-0.008841185830533504
1772794229614170000,6.188170166015625,-0.021066023036837578,-0.01467201579362154,-0.02171536535024643
1772794229624214800,6.19821484375,-0.022366710007190704,-0.02680298127233982,-0.031791169196367264
1772794229634260000,6.208260009765625,-0.030242055654525757,-0.033062055706977844,-0.03604857996106148
1772794229644305000,6.218304931640625,-0.03214967995882034,-0.04664710536599159,-0.03600543737411499
1772794229654349000,6.22834912109375,-0.020237695425748825,-0.032938845455646515,-0.017675461247563362
1772794229664394000,6.23839404296875,-0.012199211865663528,-0.017107950523495674,0.0007653323700651526
1772794229674439000,6.24843896484375,-0.012925886549055576,-0.0018763849511742592,0.022510264068841934
1772794229684484000,6.258484130859375,-0.011477659456431866,0.00843697227537632,0.03691370412707329
1772794229694528000,6.268528076171875,-0.011811661534011364,0.006933455355465412,0.047224320471286774
1772794229704573000,6.278572998046875,-0.014046319760382175,0.008445065468549728,0.04283223673701286
1772794229714617900,6.288617919921875,-0.014605142176151276,0.011644281446933746,0.0353018119931221
1772794229724663000,6.2986630859375,-0.01379341073334217,0.0004121321253478527,0.028043366968631744
1772794229734707200,6.308707275390625,-0.0028343601152300835,-0.004087233915925026,0.015148375183343887
1772794229744751900,6.318751953125,0.00010523718083277345,-0.00889344047755003,0.012966979295015335
1772794229754797000,6.328797119140625,-0.003602046286687255,-0.0128191988915205,-0.001035194844007492
1772794229764841000,6.338841064453125,0.006465235259383917,-0.006747192237526178,-0.01618858240544796
1772794229774886000,6.348885986328125,0.014670085161924362,0.01392926461994648,-0.027082396671175957
1772794229784931000,6.35893115234375,0.01592949591577053,0.010964367538690567,-0.03148859739303589
1772794229794976000,6.36897607421875,0.022503210231661797,-0.002477993257343769,-0.024845000356435776
1772794229805020200,6.379020263671875,0.03161069005727768,-0.01093725860118866,-0.01370819378644228
1772794229815064800,6.38906494140625,0.042382560670375824,-0.02023840695619583,0.002528410404920578
1772794229825110000,6.399110107421875,0.050938498228788376,-0.020813651382923126,0.015050593763589859
1772794229835155000,6.409155029296875,0.05102493613958359,-0.014097945764660835,0.030878717079758644
1772794229845199000,6.41919921875,0.04533003270626068,-0.012414028868079185,0.034911543130874634
1772794229855244000,6.429244140625,0.045549243688583374,-0.011263487860560417,0.03850354254245758
1772794229865289000,6.4392890625,0.039968058466911316,-0.006716406438499689,0.03744892776012421
1772794229875334100,6.449334228515625,0.033233966678380966,-0.009480449371039867,0.0422993041574955
1772794229885377800,6.459377685546875,0.02892843447625637,-0.015524759888648987,0.04682188481092453
1772794229895423000,6.469423095703125,0.024022256955504417,-0.019444407895207405,0.04748401790857315
1772794229905468000,6.479468017578125,0.017744386568665504,-0.022145917639136314,0.04530342295765877
1772794229915513000,6.48951318359375,0.012393246404826641,-0.02086680568754673,0.03951534256339073
1772794229925557000,6.499556884765625,0.0035243872553110123,-0.02194964699447155,0.03540182113647461
1772794229935602000,6.509601806640625,-0.008443264290690422,-0.008091244846582413,0.027871854603290558
1772794229945647000,6.519647216796875,-0.02288132533431053,-0.004010749515146017,0.025023870170116425
1772794229955692000,6.529692138671875,-0.043577127158641815,-0.013388261198997498,0.030085364356637
1772794229965736000,6.53973583984375,-0.05207101255655289,0.0015968135558068752,0.02821076661348343
1772794229975780900,6.54978076171875,-0.05549169331789017,0.008077766746282578,0.03000086359679699
1772794229985826000,6.559825927734375,-0.05730317533016205,0.011672768741846085,0.031721796840429306
1772794229995870200,6.5698701171875,-0.05307222902774811,0.005467921961098909,0.029692962765693665
1772794230005915000,6.579914794921875,-0.04251119866967201,-0.0017417878843843937,0.01884244568645954
1772794230015960000,6.5899599609375,-0.03178972005844116,-0.006834062747657299,0.008133308961987495
1772794230026005000,6.6000048828125,-0.01710531860589981,-0.021601557731628418,-0.00851464457809925
1772794230036049000,6.610048828125,-0.002756647299975157,-0.026942487806081772,-0.018398098647594452
1772794230046093800,6.62009375,0.0034956559538841248,-0.03383288159966469,-0.02386929653584957
1772794230056139000,6.630138916015625,0.010099824517965317,-0.03482719510793686,-0.021361013874411583
1772794230066184000,6.640183837890625,0.0155305415391922,-0.02947903610765934,-0.009966414421796799
1772794230076227800,6.650227783203125,0.021925069391727448,-0.013813416473567486,0.002141534350812435
1772794230086273000,6.66027294921875,0.025178121402859688,0.00350645137950778,0.013741997070610523
1772794230096318000,6.67031787109375,0.02605704590678215,0.010871482081711292,0.025126101449131966
1772794230106363100,6.680363037109375,0.024809354916214943,0.02365199103951454,0.03605944290757179
1772794230116407000,6.690406982421875,0.02570931985974312,0.02751670591533184,0.03979736939072609
1772794230126452000,6.700451904296875,0.028494983911514282,0.023975234478712082,0.03365984931588173
1772794230136497000,6.710496826171875,0.01990768313407898,-0.0033260509371757507,0.018535343930125237
1772794230146541000,6.720541015625,0.015276712365448475,-0.014371777884662151,0.0034565250389277935
1772794230156586000,6.7305859375,0.01584683358669281,-0.017358090728521347,-0.0020022729877382517
1772794230166631000,6.740630859375,0.018713727593421936,-0.02495023049414158,0.010175297036767006
1772794230176676000,6.750676025390625,0.017091985791921616,-0.011796390637755394,0.03232184424996376
1772794230186720000,6.760719970703125,0.008662814274430275,-0.007456236518919468,0.05313045531511307
1772794230196765000,6.770764892578125,0.0023195731919258833,-0.0029037848580628633,0.06073780357837677
1772794230206810000,6.78081005859375,-0.0003316035436000675,-0.004711538553237915,0.057221632450819016
1772794230216855000,6.79085498046875,-0.0073508042842149734,-0.010053406469523907,0.049742192029953
1772794230226899000,6.80089892578125,-0.009530069306492805,-0.026736512780189514,0.032055072486400604
1772794230236944000,6.81094384765625,-0.010688831098377705,-0.030519748106598854,0.020353369414806366
1772794230246989000,6.820989013671875,-0.01258500199764967,-0.039615508168935776,0.0171264186501503
1772794230257034000,6.831033935546875,-0.006630163174122572,-0.033020615577697754,0.019033392891287804
1772794230267078000,6.841077880859375,-0.010399335995316505,-0.022507520392537117,0.027467358857393265
1772794230277123000,6.851123046875,-0.00962246023118496,-0.008554364554584026,0.033245544880628586
1772794230287168000,6.86116796875,-0.009056005626916885,0.00742673221975565,0.031802110373973846
1772794230297213200,6.871213134765625,-0.0058546303771436214,0.02892419509589672,0.03121153451502323
1772794230307256800,6.8812568359375,-0.006653578486293554,0.040014393627643585,0.016064541414380074
1772794230317302000,6.891302001953125,-0.018135614693164825,0.0359511524438858,-0.008003933355212212
1772794230327347000,6.901346923828125,-0.022087745368480682,0.03209516033530235,-0.031379830092191696
1772794230337390800,6.911390869140625,-0.019290616735816002,0.020862054079771042,-0.04751497134566307
1772794230347436000,6.92143603515625,-0.016602687537670135,0.0037568360567092896,-0.06170109659433365
1772794230357481000,6.93148095703125,-0.01317007839679718,-0.0002886601723730564,-0.07401704043149948
1772794230367526100,6.941526123046875,-0.002150982618331909,0.007836377248167992,-0.08372186124324799
1772794230377569800,6.95156982421875,0.0027613004203885794,0.010011972859501839,-0.08503811061382294
1772794230387615000,6.961614990234375,0.0010041468776762486,0.010949939489364624,-0.08220077306032181
1772794230397660000,6.971659912109375,-0.004039306193590164,0.013778377324342728,-0.06138542667031288
1772794230407705000,6.981705078125,-0.012144903652369976,0.018744107335805893,-0.041783496737480164
1772794230417749000,6.9917490234375,-0.0230863057076931,0.008816957473754883,-0.020799122750759125
1772794230427794000,7.0017939453125,-0.026787567883729935,0.006971919443458319,0.0017879443475976586
1772794230437839000,7.011839111328125,-0.02457546442747116,0.006807128898799419,0.02636162005364895
1772794230447884000,7.021884033203125,-0.015200871042907238,0.0026259664446115494,0.05139373615384102
1772794230457928000,7.031927978515625,-0.007814593613147736,0.0015545766800642014,0.07417494803667068
1772794230467972900,7.041972900390625,-0.006031873170286417,-0.00005583697929978371,0.0759241133928299
1772794230478017800,7.052017822265625,-0.0012031944934278727,-0.0014178957790136337,0.07321403175592422
1772794230488063000,7.06206298828125,-0.0034072266425937414,-0.001957718748599291,0.06527221947908401
1772794230498106600,7.072106689453125,-0.01112855039536953,-0.008480280637741089,0.04834406450390816
1772794230508151800,7.08215185546875,-0.01323457807302475,-0.02147624082863331,0.037443745881319046
1772794230518196700,7.09219677734375,-0.010364028625190258,-0.02196301892399788,0.03246230259537697
1772794230528241000,7.102240966796875,0.0002649136586114764,-0.023026686161756516,0.03721630945801735
1772794230538285800,7.112285888671875,0.008165017701685429,-0.03374803066253662,0.04391808435320854
1772794230548330800,7.122330810546875,0.011664677411317825,-0.05150465667247772,0.05294407159090042
1772794230558376000,7.1323759765625,0.01389274001121521,-0.041250042617321014,0.06827414035797119
1772794230568419800,7.142419921875,0.01636015810072422,-0.027658071368932724,0.08678364008665085
1772794230578464800,7.15246484375,0.019322145730257034,-0.022858573123812675,0.09905419498682022
1772794230588509700,7.162509765625,0.024820508435368538,-0.014325804077088833,0.11075186729431152
1772794230598555000,7.172554931640625,0.025163093581795692,-0.019772887229919434,0.11406292766332626
1772794230608599000,7.18259912109375,0.023985709995031357,-0.028191672638058662,0.09535155445337296
1772794230618643700,7.192643798828125,0.023962387815117836,-0.04695779085159302,0.06485045701265335
1772794230628689000,7.20268896484375,0.026543790474534035,-0.04610877484083176,0.04172462970018387
1772794230638733800,7.21273388671875,0.03039018251001835,-0.03752604126930237,0.033323269337415695
1772794230648777700,7.22277783203125,0.03378864377737045,-0.02208184078335762,0.03520772233605385
1772794230658822700,7.23282275390625,0.028377078473567963,-0.012021963484585285,0.03812624141573906
1772794230668867800,7.242867919921875,0.025736020877957344,0.0035127876326441765,0.035625800490379333
1772794230678912800,7.252912841796875,0.020578624680638313,0.015586022287607193,0.03135717660188675
1772794230688956700,7.262956787109375,0.014253352768719196,0.017326397821307182,0.026443377137184143
1772794230699001900,7.273001953125,0.010829838924109936,0.017182905226945877,0.012630052864551544
1772794230709046800,7.283046875,0.017716506496071815,0.03788498789072037,-0.002723336685448885
1772794230719091000,7.293091064453125,0.023446809500455856,0.05134065821766853,-0.0043822587467730045
1772794230729135900,7.303135986328125,0.025778673589229584,0.04274078086018562,-0.010999681428074837
1772794230739180800,7.313180908203125,0.03911321237683296,0.05744212493300438,-0.013192219659686089
1772794230749225700,7.323225830078125,0.03837418556213379,0.08435630053281784,-0.025249416008591652
1772794230759270000,7.333269775390625,0.02851741760969162,0.07535890489816666,-0.05016329512000084
1772794230769314800,7.343314697265625,0.011322184465825558,0.01937207207083702,-0.08860256522893906
1772794230779359700,7.35335986328125,-0.0022721048444509506,-0.009620372205972672,-0.11461616307497025
1772794230789405000,7.363405029296875,-0.0019482645438984036,0.011466803029179573,-0.12404428422451019
1772794230799448800,7.37344873046875,0.004308268893510103,0.03460828587412834,-0.11911363154649734
1772794230809493800,7.38349365234375,0.0016994362231343985,0.03394196182489395,-0.10281402617692947
1772794230819539000,7.3935390625,-0.006445585750043392,0.05567431449890137,-0.07141604274511337
1772794230829584000,7.403583984375,0.00155162054579705,0.0938776284456253,-0.023414958268404007
