time,seconds_elapsed,z,y,x
1772794352002057500,0.073057373046875,-0.5957517242312431,1.5223190187580882,-1.103421187318489
1772794352012102700,0.0831025390625,-0.4987468095064163,1.538731516637653,-0.8525133395396173
1772794352022147600,0.093147705078125,-0.4054021708548069,1.4160079310275613,-0.705828667301312
1772794352032191500,0.10319140625,-0.2782107921808958,1.2159664201982319,-0.5743044105222448
1772794352042236700,0.113236572265625,-0.290346051132679,1.0651591881372033,-0.13673594527905805
1772794352052281600,0.123281494140625,-0.03930266734063625,1.0547795406810938,0.27056447867881506
1772794352062326500,0.133326416015625,0.19064181432127952,1.0174917202942073,0.5693361571229993
1772794352072370400,0.143370361328125,0.38563714767694474,0.87144746485129,0.6804808024898171
1772794352082415600,0.15341552734375,0.6250380244702101,0.6485431109592318,0.645190804856643
1772794352092460500,0.16346044921875,0.8751338982790708,0.3816789115704596,0.5845133410539478
1772794352102504400,0.17350439453125,1.2045195819020271,0.14794000606164334,0.5541030782863497
1772794352112549600,0.183549560546875,1.4053823459863661,0.16123539483398197,0.6105751262884587
1772794352122594600,0.193594482421875,1.2922002034425735,0.1257940790966153,0.6153207864455879
1772794352132639700,0.2036396484375,0.9378080888569355,-0.37855712628811594,0.4011409332137555
1772794352142683400,0.213683349609375,0.5794195981115102,-0.7921556092105806,0.2491084702067077
1772794352152728600,0.223728515625,0.41951603640317914,-1.0071392531059682,0.2660841549269855
1772794352162773500,0.2337734375,0.21032208182513712,-1.2184124981760978,0.3862111481726169
1772794352172817400,0.2438173828125,-0.06654547905325889,-1.4339568446941673,0.5673075739048421
1772794352182862600,0.253862548828125,-0.3260772897273302,-1.5174534585483372,0.5346225711382925
1772794352192907500,0.263907470703125,-0.44607028132975096,-1.521016850118339,0.39856881770342584
1772794352202951400,0.273951416015625,-0.5217185197710991,-1.3659747569665313,0.2011285754136741
1772794352212996600,0.28399658203125,-0.6625929713606834,-1.1549361974351107,0.07596124991327524
1772794352223041500,0.29404150390625,-0.7019839015066623,-1.0793721301458776,-0.05477598467394709
1772794352233086500,0.30408642578125,-0.7743857053726911,-1.1575794784855098,-0.12920681014955043
1772794352243130400,0.31413037109375,-0.974146645694971,-1.0577630134712903,-0.3251951000653207
1772794352253175600,0.324175537109375,-1.0109048892498016,-0.9423115377560257,-0.46895898948609827
1772794352263220500,0.334220458984375,-1.1141010598301886,-0.9735645349580794,-0.5899908226169646
1772794352273264600,0.3442646484375,-1.2546557779461145,-1.3591143696777521,-1.009495899234712
1772794352283309600,0.3543095703125,-1.3884206897914408,-1.3220061436414718,-1.238541093969345
1772794352293354500,0.3643544921875,-1.5603841071277855,-1.1296499266177416,-1.1047019478440283
1772794352303399700,0.374399658203125,-1.7054034034371375,-1.1010726514309643,-0.993664854504913
1772794352313443300,0.384443359375,-1.6357535286277531,-0.8005937672100961,-1.0170517214417456
1772794352323488500,0.394488525390625,-1.3834908321738242,-0.5538340520866215,-1.008004199372232
1772794352333533400,0.404533447265625,-1.0188912118285893,-0.45639534905441104,-0.7794007570557295
1772794352343577600,0.41457763671875,-0.5754536170899868,-0.31624709284752606,-0.43120676645785566
1772794352353622500,0.42462255859375,-0.21866379371285438,-0.16754004793614147,-0.21616233228594064
1772794352363667500,0.43466748046875,0.053365094962716096,-0.09817191267758607,-0.11580693808943032
1772794352373712600,0.444712646484375,0.2411445055902004,-0.10277378044985234,-0.004199643646925688
1772794352383756500,0.454756591796875,0.26292262215614315,-0.0350850496456027,0.07625979446843266
1772794352393801500,0.464801513671875,0.14430267247259615,0.0232399327468127,0.16137173456475137
1772794352403846400,0.474846435546875,0.0562754294514656,0.08678411109223962,0.204123957837373
1772794352413890600,0.484890625,0.220247848033905,0.0911781813327223,0.18038754681050775
1772794352423935700,0.494935791015625,0.5556085144132376,-0.081384663201496,0.14998758624121547
1772794352433980400,0.50498046875,0.8456354165941476,-0.38232137419246137,-0.10331716661155223
1772794352444025600,0.515025634765625,1.0488824454665184,-0.2501769031558186,-0.1694175322458148
1772794352454069500,0.525069580078125,1.0035931049317122,-0.0851428466912359,-0.05959741348102689
1772794352464114400,0.535114501953125,0.7124427516788244,-0.1850521045554429,0.017286358104646207
1772794352474159400,0.545159423828125,0.4454600404769182,0.1191059065695852,-0.36212811566516756
1772794352484203500,0.55520361328125,0.10281623135209082,0.1519907427571714,-0.4806549071725458
1772794352494248700,0.565248779296875,-0.10237082567214965,0.058509033722430465,-0.4680264578763395
1772794352504293400,0.57529345703125,-0.18496318416297436,0.044142070195823904,-0.4340745039138943
1772794352514338600,0.585338623046875,-0.178673144108057,0.10316994016058742,-0.43020891452692445
1772794352524382500,0.595382568359375,-0.2289139695703983,0.19547442210949956,-0.46590888120047746
1772794352534427600,0.605427734375,-0.2866957119315863,0.3603833178244531,-0.42055305130071935
1772794352544472600,0.61547265625,-0.29019465996325017,0.4408280698273331,-0.2962040564458817
1772794352554516500,0.6255166015625,-0.3271405350446701,0.4240920390818268,-0.1623028048697859
1772794352564561700,0.635561767578125,-0.25092063419520855,0.3437076389640569,-0.17291056199334562
1772794352574606300,0.6456064453125,-0.1368371588975191,0.23702874083444475,-0.3042198243148625
1772794352584652000,0.655652099609375,-0.05743336731493473,0.16124861964173615,-0.2911145512871444
1772794352594696000,0.665696044921875,0.0017237550526857375,0.08975150953046977,-0.3475301929268986
1772794352604741000,0.6757412109375,-0.029372809478640554,0.13594897788614033,-0.4084738333851099
1772794352614785800,0.685785888671875,-0.11691197672188282,0.3184238523647189,-0.28081578704752025
1772794352624830000,0.695829833984375,-0.25593466296494005,0.4734226178314537,0.018778423293307422
1772794352634875100,0.705875244140625,-0.37192426414489743,0.46819962248615915,0.20584172154068944
1772794352644920000,0.715920166015625,-0.45625557525753974,0.4827150545727461,0.2839585420526564
1772794352654965000,0.725965087890625,-0.4762906475484371,0.4685571306869387,0.2947296730443835
1772794352665009000,0.7360087890625,-0.4387023829102516,0.39600203595533967,0.1962705409232527
1772794352675054000,0.74605419921875,-0.40936055309176445,0.3922898104991764,0.14238997071906923
1772794352685099000,0.75609912109375,-0.43385026670396326,0.36185419409461317,-0.005256020832061767
1772794352695143000,0.766142822265625,-0.4348620740950107,0.5128195393268019,-0.21746691207848487
1772794352705188000,0.77618798828125,-0.4342366356730461,0.45930363771654664,-0.2865955394927412
1772794352715233000,0.78623291015625,-0.3947428296744823,0.14823065957129,-0.4716092117339372
1772794352725278000,0.79627783203125,-0.210797882643342,0.060031494049355386,-0.93627021176517
1772794352735322000,0.806322021484375,0.061598670300841325,-0.033963498269766565,-1.2928025532498955
1772794352745367000,0.816366943359375,0.27443127364218234,0.08200411027409135,-1.484116713874787
1772794352755412200,0.826412109375,0.2814507970154285,0.20764051459096372,-1.5694018185809253
1772794352765456000,0.836455810546875,0.17353519669771195,0.6363133055917918,-1.329454413820803
1772794352775501000,0.8465009765625,0.2076099002569914,1.0133956831522286,-0.8806311074558645
1772794352785546000,0.8565458984375,0.2873474538385868,1.196560220395401,-0.40036183860003943
1772794352795590000,0.86658984375,0.18611001611053943,0.8261006219755858,-0.31750348611678925
1772794352805635000,0.876635009765625,0.27330080830752845,0.8486070528160781,0.29307668167296796
1772794352815680000,0.886679931640625,0.4939297646135091,1.0953387839540838,0.49310058378037064
1772794352825725200,0.89672509765625,0.32783845418095586,1.11056652902849,0.6103165118848904
1772794352835768800,0.906768798828125,-0.02567512400448322,0.8887797079242765,0.9433530096329749
1772794352845814000,0.91681396484375,-0.1462134745299816,0.6640381286676973,0.8309821834720671
1772794352855859000,0.92685888671875,-0.11523439889848232,0.6165471133701503,0.7120501721646636
1772794352865902800,0.93690283203125,-0.03636427580118179,0.41719628821872173,0.7868949122034012
1772794352875948000,0.946947998046875,-0.1330944652378559,0.113691699501127,0.7964774179324507
1772794352885993000,0.956992919921875,-0.28113047901988025,0.056808001958206296,0.7790005056917667
1772794352896038100,0.9670380859375,-0.3764823658406734,-0.08001227886974811,0.7915580086436123
1772794352906081800,0.977081787109375,-0.3690232820063829,0.07835472092106938,0.9153945969969034
1772794352916127000,0.987126953125,-0.35966800916194913,-0.012051380060613154,0.8974738865114747
1772794352926172000,0.997171875,-0.15639409228265286,-0.13819025400690735,0.638454117012769
1772794352936217000,1.007217041015625,0.1589408541560173,-0.37846075324155387,0.30844628290347753
1772794352946261000,1.017260986328125,0.34599838024973867,-0.76345653427504,0.00444397379681468
1772794352956306000,1.027305908203125,0.46896775731444357,-0.4485254924621433,0.17256927427500485
1772794352966351000,1.03735107421875,0.39042672004103657,-0.5042820856712759,0.24092479842491446
1772794352976395000,1.04739501953125,0.28519115258753297,-0.7759202214635909,0.18931078491322695
1772794352986440000,1.05743994140625,0.40291619925796984,-0.6902319427840411,0.05541515936031937
1772794352996485000,1.067485107421875,0.5039753578096627,-0.7899146984159946,-0.10341587774567305
1772794353006529000,1.077529052734375,0.43857437261641025,-0.8522897599168121,-0.1440949480060488
1772794353016574000,1.087573974609375,0.3184691528111696,-0.8536546185292303,-0.1382364312361926
1772794353026619000,1.097618896484375,0.14217209018468857,-0.833280961933732,-0.15360073523707687
1772794353036664000,1.1076640625,-0.043103228667378424,-0.9351010949205607,-0.34689774024225767
1772794353046708200,1.117708251953125,-0.1361181969732046,-0.5370620732448995,-0.2598749250233173
1772794353056753000,1.1277529296875,-0.140619600045681,0.003985416374355555,0.03470518348254263
1772794353066798000,1.137798095703125,-0.038671968221664424,0.17028832373097538,0.19468261414468288
1772794353076842000,1.147842041015625,0.09925824660956858,0.17322050472535191,0.224006762176007
1772794353086887000,1.157886962890625,0.1787169832497835,0.17926906417459249,0.19005356610454618
1772794353096931800,1.167931884765625,0.14942366874814034,0.17322466944381593,0.11046462721340358
1772794353106977000,1.17797705078125,0.07477905439138412,0.22325689365677534,0.0885810775116086
1772794353117021200,1.188021240234375,-0.08046645237803458,0.19228505148366093,0.08891198996640741
1772794353127065900,1.19806591796875,-0.18237082958221434,0.08766564316712319,0.10747114448584616
1772794353137111000,1.208111083984375,-0.19144144026637075,-0.0074039926461875434,0.05255370551459491
1772794353147156000,1.218156005859375,-0.05872165355980396,-0.05746361632272601,-0.01058357253037393
1772794353157200100,1.2282001953125,0.13823007456064224,-0.13638305845446883,0.001882525810971856
1772794353167244800,1.238244873046875,0.3177069362670183,-0.20439473760277033,0.007971198074892162
1772794353177290000,1.2482900390625,0.4501736249953508,-0.17906842703595757,-0.018511442920193074
1772794353187334100,1.258334228515625,0.503344658690691,-0.1510241627473384,-0.0447847520135343
1772794353197379000,1.268379150390625,0.5480670129925013,-0.15992891534529624,-0.0849545575775206
1772794353207424000,1.278424072265625,0.5228010543107986,-0.20711554086878894,-0.08430698038898408
1772794353217469000,1.288468994140625,0.42505788843929765,-0.20010193577967583,-0.07103343812227249
1772794353227513000,1.29851318359375,0.2306575983673334,-0.1609343660607934,-0.043357861015573144
1772794353237558000,1.30855810546875,0.013825111734867095,-0.10063267676793038,-0.05373020194806158
1772794353247603000,1.31860302734375,-0.18656009796559808,-0.05614990337565541,-0.07888502840548753
1772794353257647000,1.328647216796875,-0.4775064530789852,-0.05130670112818479,-0.09722542560771107
1772794353267692000,1.338692138671875,-0.7216226679563522,-0.1364767280872911,-0.11227978687658906
1772794353277737000,1.348737060546875,-0.7436375158876181,-0.17115100497491656,-0.17481953741982578
1772794353287782000,1.358781982421875,-0.5165852485358715,-0.18114779059328137,-0.1553001595661044
1772794353297826000,1.368825927734375,-0.14655483531355856,-0.14250745961889624,-0.08641571617126464
1772794353307871000,1.37887109375,0.1292255148500204,-0.08632942612729966,-0.009142506876587866
1772794353317916000,1.388916015625,0.3304255480647087,0.006604805092513561,0.0710503892570734
1772794353327960000,1.3989599609375,0.4190098404467106,0.14220175467059015,0.19951617178097367
1772794353338005000,1.4090048828125,0.4514250863611698,0.22559067036658523,0.24874752793982624
1772794353348050000,1.4190498046875,0.4463274709612131,0.24396986520923672,0.2979915974497795
1772794353358094800,1.4290947265625,0.43329847804009913,0.20865473313480615,0.29995361823774874
1772794353368139000,1.439138916015625,0.33827976869642734,0.14216887531429528,0.26880992662906644
1772794353378184200,1.44918408203125,0.1939583915233612,0.10994652162343263,0.2852306078150868
1772794353388228900,1.459228759765625,0.1052618709385395,0.138443132789433,0.20717947295047343
1772794353398273000,1.46927294921875,0.1293780750632286,0.1646563091933727,0.19064532145261764
1772794353408318000,1.47931787109375,0.12271043386757373,0.08502462713904678,0.19984343097396193
1772794353418363100,1.489363037109375,0.04040098397135734,-0.036580914226546885,0.13075162843875587
1772794353428407800,1.49940771484375,-0.11372925503253936,-0.07562726871855556,0.05826251161545515
1772794353438452000,1.509451904296875,-0.2995557780265808,-0.0736711662147194,0.024796441473811864
1772794353448497200,1.5194970703125,-0.3176110746771097,-0.05422010435685515,-0.011546572343632579
1772794353458542000,1.5295419921875,-0.2635837164133787,-0.01599251890182495,0.007790873071923852
1772794353468586000,1.5395859375,-0.17430384298264978,-0.0541859828915447,-0.03127740099094808
1772794353478631000,1.549630859375,-0.09180909964740276,-0.030558585197106,-0.10843246379867195
1772794353488676000,1.559676025390625,-0.05164192443192005,-0.010127133999764918,-0.07633892411924899
1772794353498720800,1.569720703125,-0.07435936767458916,0.021197759394720194,0.04690510516837239
1772794353508765000,1.579764892578125,-0.07548749492168426,0.06549735823981463,0.0906900324895978
1772794353518810000,1.58981005859375,-0.027924948757886883,0.06196933024413883,0.07230733051560818
1772794353528855000,1.59985498046875,0.02608428932726383,0.03149878865666687,0.06643325085043907
1772794353538899000,1.60989892578125,0.07114332823753357,-0.0101654932487756,0.07434380477927625
1772794353548944000,1.61994384765625,0.020434300741553304,-0.02005195036046207,0.08745938000530004
1772794353558989000,1.629989013671875,-0.07043722579479217,-0.013094167111814022,0.12124525668583809
1772794353569034000,1.640033935546875,-0.13252747900485992,0.043320378549396986,0.16499335912801324
1772794353579078000,1.650077880859375,-0.1576069752037525,0.09292955504469573,0.17137363474965095
1772794353589123600,1.66012353515625,-0.149433605620265,0.10451901668198406,0.18309746335633098
1772794353599168300,1.670168212890625,-0.15150515119731425,0.0585348988160491,0.20594372061043978
1772794353609212400,1.68021240234375,-0.16320727942883967,0.006063537822663783,0.17364406389966605
1772794353619257300,1.69025732421875,-0.09752046303153038,-0.013125804359093309,0.0769298026844859
1772794353629302300,1.70030224609375,0.018638064974546432,0.01078786293081939,-0.03866086230576038
1772794353639347200,1.71034716796875,0.15874328575730323,0.007889145814627409,-0.0629547610849142
1772794353649391400,1.720391357421875,0.22257658324241636,0.04213869448415935,-0.02543634681254625
1772794353659436500,1.7304365234375,0.23635551774799823,0.06719517513364553,-0.008661518426612018
1772794353669481200,1.740481201171875,0.26772973017692564,0.053281143006309865,-0.013198212008178233
1772794353679525400,1.750525390625,0.3592085749566555,0.03516344864405691,0.008681611366569995
1772794353689570300,1.7605703125,0.3776064014345407,0.021865977512486277,0.07741685554906726
1772794353699615500,1.770615478515625,0.24858605376780032,0.007978504598513245,0.15548545300513505
1772794353709660400,1.780660400390625,-0.06591887158751487,0.00638897038474679,0.15596205754093825
1772794353719704300,1.790704345703125,-0.25295769298076626,-0.011323248449154198,0.10650259171463548
1772794353729749500,1.80074951171875,-0.2508960842758417,-0.04385200120806694,0.13659531296566127
1772794353739794200,1.810794189453125,-0.15869009426534175,-0.01636759929191321,0.10310513129606842
1772794353749838300,1.82083837890625,-0.07764964139163494,0.03471409744136035,0.07297923842780292
1772794353759883500,1.830883544921875,-0.03356441594958305,0.06430873297713696,0.07316708915010094
1772794353769928400,1.840928466796875,-0.027807459858059883,0.05932367457356304,0.0788536834191531
1772794353779973400,1.850973388671875,-0.04610007239580154,0.06114405840113759,0.07272635964527725
1772794353790017300,1.861017333984375,-0.09634148238003254,0.04028897496424615,0.06140110190212726
1772794353800062500,1.8710625,-0.104777886813879,0.05067117970362305,0.05481865477189422
1772794353810107400,1.881107421875,-0.0074812956660985945,-0.004231975013948976,0.04162482667788863
1772794353820151300,1.8911513671875,0.12266191855072975,-0.03352444926537573,0.03407316918931901
1772794353830196500,1.901196533203125,0.19501929875314233,-0.010545797803252936,0.004385594673082232
1772794353840241400,1.911241455078125,0.18682254829406736,-0.0036252778250724076,0.031139380759745833
1772794353850286600,1.92128662109375,0.06967500925064087,-0.03569130844306201,0.07607735057361424
1772794353860330200,1.931330322265625,-0.01599251890182495,-0.018360709337890146,0.006066606562584638
1772794353870375400,1.94137548828125,-0.09498422255218028,0.0009656301617622375,-0.015074454208835958
1772794353880420400,1.95142041015625,-0.17720599416494368,0.00817687671482563,0.013182649112865328
1772794353890464300,1.96146435546875,-0.24799159500598905,0.04794522533845156,0.034176483433321116
1772794353900509400,1.971509521484375,-0.26871406503915785,0.09487864328585564,0.021817498728260398
1772794353910554400,1.981554443359375,-0.206454300481081,0.056155200605280696,-0.012565247866883874
1772794353920599600,1.991599609375,-0.1257014323771,0.016684337090887128,-0.0904369345113635
1772794353930643200,2.001643310546875,-0.04032265803813934,-0.06356620751414448,-0.14292422372624278
1772794353940688400,2.0116884765625,0.0008165770798921585,-0.13259594113118947,-0.13650471207275985
1772794353950733300,2.0217333984375,0.0485679238140583,-0.13681410681549458,-0.12634382193386554
1772794353960777200,2.031777099609375,0.14847265163362025,-0.09915822030119598,-0.13959573689065874
1772794353970822400,2.041822509765625,0.3101034755259752,-0.060426082857511935,-0.10183101970702409
1772794353980867300,2.051867431640625,0.4312649263858795,-0.021460027060098946,-0.04969064423367381
1772794353990912500,2.06191259765625,0.4694096558630466,0.004308218587934971,-0.008553162681311368
1772794354000956400,2.071956298828125,0.42183775734901424,0.019710735707357523,0.016212006871402264
1772794354011001300,2.08200146484375,0.2599140879899263,0.03760784612149,0.04684226906523108
1772794354021046500,2.092046630859375,0.1320142687857151,-0.014076127353869377,0.023225977286696432
1772794354031090200,2.102090087890625,0.013287351596355437,-0.059909767365828155,0.0007311638187617063
1772794354041135400,2.11213525390625,-0.0834726484566927,-0.09027549687195568,-0.025501228742301464
1772794354051180300,2.12218017578125,-0.12608370969295501,-0.08764281028080731,-0.08991196078918874
1772794354061225500,2.1322255859375,-0.16763386369943617,-0.07968224319778382,-0.05852474274821579
1772794354071269400,2.142269287109375,-0.18721885413527486,-0.04780070230122655,-0.005197203316912055
1772794354081314300,2.152314208984375,-0.17452888391017912,-0.018215565246157348,0.023288594194129108
1772794354091359500,2.162359375,-0.18654373135268687,-0.044243229015357786,0.054805722225084896
1772794354101403400,2.1724033203125,-0.17858488130271433,-0.060243383234366774,0.06744469291530548
1772794354111448300,2.1824482421875,-0.17098258960545062,-0.03653890171572566,0.009285495543852449
1772794354121493200,2.1924931640625,-0.16484627880752087,-0.020831410300359128,-0.016016703495010734
1772794354131538400,2.202538330078125,-0.14458148941397667,-0.01744180439468473,-0.009892594591528176
1772794354141582600,2.21258251953125,-0.07058627887666225,-0.019498042804747817,-0.019906039083749053
1772794354151627300,2.222627197265625,0.013921557846665381,-0.03932612128145992,-0.026158961998671293
1772794354161672400,2.23267236328125,0.05977496200501919,-0.028691987607628106,-0.03177862851135432
1772794354171716400,2.24271630859375,0.07412263630926609,0.022949571498110888,-0.040236075733229515
1772794354181761300,2.25276123046875,0.039212650969624514,0.0605459829101339,-0.04675765952169895
1772794354191806200,2.26280615234375,0.04341536335647106,0.05300247219540179,0.015877733415737748
1772794354201851400,2.272851318359375,0.0606412234455347,0.03824840904735029,0.04393829125203192
1772794354211895600,2.2828955078125,0.07214695232212542,-0.005206153808347881,0.09507935348972678
1772794354221940200,2.292940185546875,0.11006839443743228,-0.044187516772747036,0.14732297014184295
1772794354231985400,2.3029853515625,0.15585224049091337,-0.07054013817999512,0.2089973360273987
1772794354242029300,2.313029296875,0.22070026797652242,-0.05198401586785912,0.23521080469228325
1772794354252074500,2.323074462890625,0.21180326029360294,-0.01834500031210482,0.2178275620844215
1772794354262119200,2.333119140625,0.16312953801751137,0.018097089965641498,0.17901713524013757
1772794354272164400,2.343164306640625,0.0785311004012823,0.03130143945366144,0.08618139595873653
1772794354282208500,2.35320849609375,0.0262859493792057,0.01872205346357077,0.008938289541378618
1772794354292253200,2.363253173828125,0.004645195457339287,-0.011774718543700873,0.02075257291048765
1772794354302298400,2.37329833984375,0.054849196040630335,-0.012771437963470815,0.014837942039221525
1772794354312342500,2.383342529296875,0.102312373483181,0.006171199448220432,-0.0034761516779661175
1772794354322387500,2.393387451171875,0.11379589052796363,0.02063760476130992,-0.043095264556631444
1772794354332432400,2.403432373046875,0.12562076835632324,0.012235869782045482,-0.02122662016302347
1772794354342477300,2.413477294921875,0.133674310952425,0.029650018984824417,0.04641995199993253
1772794354352521500,2.423521484375,0.09111293407678604,0.025234979021549222,0.06814853033572435
1772794354362566400,2.43356640625,0.040051439881324764,0.04580795758143067,0.04369249979741871
1772794354372611300,2.443611328125,0.015259528452157974,0.04344521050546318,0.03592610357962549
1772794354382655500,2.453655517578125,-0.039757425370812415,0.047470995422825214,0.02052687439583242
1772794354392700400,2.463700439453125,-0.09454875374436378,0.048574974609352645,-0.036730990221723915
1772794354402745600,2.47374560546875,-0.11368950754404067,0.02635715145189315,-0.10204152065254747
1772794354412790300,2.483790283203125,-0.1002332291215658,0.006647950114496052,-0.12213723708949982
1772794354422834400,2.49383447265625,-0.06735153473913669,0.02858702939581126,-0.16905629771798847
1772794354432879400,2.50387939453125,-0.02354629528224468,0.03530515866968781,-0.14717369786426424
1772794354442924300,2.51392431640625,-0.012917933762073517,0.030951895363628863,-0.11186112307310103
1772794354452969200,2.52396923828125,-0.0224953249245882,0.04808532792888581,-0.09883110723868012
1772794354463013400,2.534013427734375,0.0201730194568634,0.01417030844334513,-0.06542246637269854
1772794354473058600,2.54405859375,0.05648410376608371,0.007925459237024188,-0.012763473852723837
1772794354483103200,2.554103271484375,0.10962824945449828,0.04458155759163201,0.04008051984533667
1772794354493147400,2.5641474609375,0.16870236971378325,0.10794632424954324,0.0909594970807433
1772794354503192300,2.5741923828125,0.15582418344020843,0.11966262713689356,0.13870346422605215
1772794354513237500,2.584237548828125,0.0430301634311676,0.11076540025826542,0.14594737093970178
1772794354523282200,2.5942822265625,-0.045645898887515066,0.08121376361399889,0.0993352573685348
1772794354533326300,2.604326416015625,-0.09402151499986648,0.07214640433285385,0.019254735568165777
1772794354543371500,2.61437158203125,-0.12621581164002418,0.06537080925069749,-0.0480892734516412
1772794354553416200,2.624416259765625,-0.15458032085895537,0.03119410662166774,-0.012679156570136546
1772794354563460400,2.63446044921875,-0.08921849863231182,0.04871694036331028,-0.08981785276494919
1772794354573505300,2.64450537109375,-0.028950200152397153,0.03325312151070684,-0.09316475204005836
1772794354583550500,2.654550537109375,-0.011057400587201118,0.07451740778051316,-0.0787964002739638
1772794354593594400,2.664594482421875,-0.008287351351976394,0.09878138634543865,-0.03190634654425084
1772794354603638500,2.674638427734375,-0.009992401704192161,0.06263221459966152,-0.028061726880073547
1772794354613683500,2.684683349609375,-0.016694529691338538,0.017426314564608036,-0.06337481312789023
1772794354623728600,2.694728759765625,0.00319850378036499,0.03062763184532523,-0.09542334462180734
1772794354633772300,2.704772216796875,0.06094049865305423,0.0169339279377833,-0.08314356263279915
1772794354643817500,2.7148173828125,0.08071955035626888,0.014676066008396446,-0.0038681466702371833
1772794354653862400,2.7248623046875,0.05482873777449131,0.020799517324753103,0.015992226640880108
1772794354663907600,2.734907470703125,0.048942017823457716,0.06155811909474432,0.016779650691524147
1772794354673951500,2.744951416015625,0.06852057851850986,0.10867726887259632,0.059477001971751445
1772794354683996400,2.754996337890625,0.06970657343268394,0.12507950108647345,0.04865348320566117
1772794354694041600,2.76504150390625,0.027384266009926793,0.15566910247635096,0.05094722016602754
1772794354704085200,2.775085205078125,-0.028707623568177222,0.12205262754596768,0.01684380196891725
1772794354714130400,2.78513037109375,-0.048880058503150935,0.10650149573609233,-0.02895487632751465
1772794354724175400,2.79517529296875,-0.01589841087758541,0.042558454266190524,-0.09027947892732918
1772794354734220500,2.805220458984375,0.05484276629984378,0.013001082000881433,-0.16416282658800482
1772794354744264400,2.815264404296875,0.10576689785122871,0.008437281216681003,-0.17469240390881896
1772794354754309400,2.825309326171875,0.136218150216341,0.045003765059076245,-0.1443030377987772
1772794354764354600,2.8353544921875,0.08767769893109797,0.07056077910922467,-0.06688683983683585
1772794354774398200,2.845398193359375,0.038891163930296895,0.06865867181494832,-0.027965280768275258
1772794354784443400,2.855443359375,0.034326632493734355,0.040612434764951466,-0.009991744117066263
1772794354794488300,2.86548828125,0.051365445578098294,-0.01393215230591595,0.014721549117937683
1772794354804533500,2.875533447265625,0.13234919982850551,-0.03529127627480775,0.04392828131467104
1772794354814577400,2.885577392578125,0.1850742433220148,-0.03324913945533335,0.09513159513361752
1772794354824622300,2.895622314453125,0.23197569522857664,0.003924772228300571,0.12521898262239992
1772794354834667500,2.90566748046875,0.22806758187413215,0.041734278401732446,0.2044837310604751
1772794354844711400,2.91571142578125,0.1523439401090145,0.062288661858998236,0.21646767190806565
1772794354854756400,2.92575634765625,0.01476210032403469,0.08262604156471788,0.1897586748111993
1772794354864801300,2.93580126953125,-0.0860164877206087,0.11881623944062739,0.1293632428202778
1772794354874846500,2.945846435546875,-0.1388508368074894,0.1467487869830802,0.03758855689913034
1772794354884890400,2.955890380859375,-0.17708908978700635,0.14733867916762827,-0.050449207516014574
1772794354894935300,2.965935302734375,-0.20571663385629652,0.13404343652576206,-0.08511880822852254
1772794354904980500,2.97598046875,-0.1735492252230644,0.09027969812303781,-0.13007796696089208
1772794354915024600,2.986024658203125,-0.05567161833941936,0.04009820163249969,-0.18391330978386103
1772794354925069300,2.9960693359375,0.07127426114082336,0.020517266317270695,-0.170755722047016
1772794354935114500,3.006114501953125,0.15459434938430786,-0.0183178565768525,-0.17713804349526763
1772794354945159400,3.016159423828125,0.19856033236086368,-0.018132453539967536,-0.17588219821527598
1772794354955203300,3.026203369140625,0.20465338853895662,0.006249123522639274,-0.13001030855216086
1772794354965248300,3.036248291015625,0.16939210554361342,0.049160884738527234,-0.0627967940442264
1772794354975293400,3.04629345703125,0.11297989796996116,0.062259837623313066,-0.006095321200415491
1772794354985338400,3.05633837890625,0.05645253958404064,0.024945238827355203,0.005546820472180843
1772794354995382300,3.06638232421875,0.019901801300048826,-0.019896796331368385,0.004019391709193587
1772794355005427500,3.076427490234375,-0.03569850536882877,-0.07324157915841788,-0.026936156916245818
1772794355015472400,3.086472412109375,-0.06536416031420231,-0.07820738487225025,-0.04970503808520734
1772794355025516500,3.0965166015625,-0.03383212697505951,-0.06877312850747257,-0.00548347291238606
1772794355035561200,3.106561279296875,0.00753682524561882,-0.051869266914390026,0.014432283847779035
1772794355045606400,3.1166064453125,-0.019178163200616834,0.0047479617120698096,0.0637851474944502
1772794355055651300,3.1266513671875,-0.040245501148700714,0.017146365112066266,0.10096702328883111
1772794355065695500,3.136695556640625,-0.032173838374018666,0.03340169966854155,0.1247111792307347
1772794355075740400,3.146740478515625,-0.025138532909750936,0.039887116165086625,0.13994089706651866
1772794355085785300,3.156785400390625,0.02388005728125572,0.044541992766223844,0.1913168640386313
1772794355095829500,3.16682958984375,0.17982114509940147,0.06470270073078573,0.2006472216375172
1772794355105874200,3.176874267578125,0.2554226217895746,0.060585072811506685,0.14389007308371365
1772794355115919400,3.18691943359375,0.28301439307034015,0.10439133518170565,0.057699470905214545
1772794355125964300,3.19696435546875,0.22185762131810188,0.06221764244940132,0.0693937080912292
1772794355136008400,3.207008544921875,0.09425999993085861,0.03959876421038061,0.013057415297999978
1772794355146053400,3.217053466796875,0.037543256452679634,0.03379994173850864,-0.0324218217857182
1772794355156098300,3.227098388671875,0.009036123892664909,0.010712605737522243,-0.09645392977856099
1772794355166142500,3.237142578125,-0.035007015973329544,-0.024518647445738315,-0.1894832919359207
1772794355176187400,3.2471875,-0.07860942633450031,-0.01738569029327482,-0.22518954221978782
1772794355186232300,3.257232421875,-0.12896072643399237,-0.0032987492844462393,-0.2573384653482586
1772794355196277500,3.267277587890625,-0.16678163078427313,0.020445223994366823,-0.2543651486258954
1772794355206321400,3.2773212890625,-0.18928513901531696,0.04400120042040944,-0.226050835224241
1772794355216366600,3.28736669921875,-0.19321546420156954,0.04209105595014989,-0.20165099185258148
1772794355226411300,3.297411376953125,-0.1471411107689142,0.0277785625571385,-0.15016791124418377
1772794355236455400,3.307455322265625,-0.12437690577507018,0.001760652996972203,-0.11829013320729136
1772794355246500600,3.31750048828125,-0.12473229508399962,-0.0052441477311775085,-0.08242445457801223
1772794355256545300,3.327545166015625,-0.13899696727991104,0.009922405207902192,-0.04622077616602182
1772794355266590500,3.337590576171875,-0.1142716913461685,0.0055501449404284356,-0.027014628979936242
1772794355276634400,3.34763427734375,-0.01533200916647911,0.015141418497823177,-0.00044299452714622017
1772794355286679600,3.357679443359375,0.06166062962114811,0.04456920956671238,0.02407696809284389
1772794355296724200,3.36772412109375,0.10963701728284359,0.06528619970716536,0.09157346426062285
1772794355306768400,3.377768310546875,0.1491068578839302,0.07885152799468487,0.12245521699748933
1772794355316813600,3.3878134765625,0.20926526624858377,0.052541065228730435,0.1693142910670489
1772794355326858500,3.3978583984375,0.2602081025004387,0.05053169816769659,0.17893544830605387
1772794355336903400,3.4079033203125,0.2691705766350031,0.08642744314167648,0.1645414506420493
1772794355346947300,3.417947265625,0.2787953140705824,0.09187949800249189,0.1458732097249478
1772794355356992500,3.427992431640625,0.2689695011049509,0.09170154761970042,0.15915193962343036
1772794355367037200,3.438037109375,0.16242460461854935,0.13122805031146853,0.15993885221742093
1772794355377081300,3.448081298828125,0.021266075390577316,0.1496665741259232,0.17379443215578794
1772794355387126500,3.45812646484375,-0.06969196038544177,0.1510302271619439,0.1346660254035145
1772794355397171500,3.46817138671875,-0.09066811291873454,0.16436437704209236,0.027170184867829083
1772794355407216400,3.47821630859375,-0.07983516873717307,0.13188077859915792,-0.012977189668640494
1772794355417260300,3.48826025390625,0.02063888340294361,0.1327630413264036,0.03244220698662102
1772794355427305500,3.498305419921875,0.12868775471150876,0.11366934153884649,0.13455189750455318
1772794355437350400,3.508350341796875,0.17643559431433678,0.10179087035972624,0.17689787806384263
1772794355447394300,3.518394287109375,0.14640578223168849,0.05551609898414463,0.16623627186119555
1772794355457439500,3.528439453125,0.06139876381456852,0.041771359009109436,0.0901648395717144
1772794355467484400,3.538484375,-0.033228900384902955,0.03402439814414829,-0.014192629873007534
1772794355477529600,3.548529541015625,-0.1194961479961872,-0.000790529323183,-0.0793344526734203
1772794355487573500,3.558573486328125,-0.16533727719485758,0.03807341780662536,-0.15912738970406354
1772794355497618400,3.568618408203125,-0.14872165795862674,0.07012976728081703,-0.16201353959962725
1772794355507663600,3.57866357421875,-0.12971592871546744,0.08030011936780065,-0.18134952371045945
1772794355517707300,3.588707275390625,-0.1367728614896536,0.05606733965873718,-0.1589158658452332
1772794355527752400,3.59875244140625,-0.14611702841818333,0.0067320116687566035,-0.1414332545161247
1772794355537797400,3.60879736328125,-0.13537585417330264,-0.050917774875834584,-0.09659056177027522
1772794355547842600,3.618842529296875,-0.09544073414802551,-0.11921071865092962,-0.004021218340098858
1772794355557886500,3.628886474609375,-0.06020224750638008,-0.054332880548946555,0.060984045533835886
1772794355567931400,3.638931396484375,-0.010431377643346786,-0.017931925999186932,0.1555263695374131
1772794355577976600,3.6489765625,0.034578561428189276,0.016380166512541473,0.19319259478263556
1772794355588020700,3.659020751953125,0.04179565320014953,0.054317756045050916,0.12512472846768796
1772794355598066000,3.66906591796875,-0.0033130700707435607,0.024599932521022855,0.04822758594378829
1772794355608110800,3.67911083984375,0.007642623707652092,-0.004027538483031094,0.0049479777961969375
1772794355618156000,3.689156005859375,0.03750175539851188,-0.05364858807921409,-0.07222666649483143
1772794355628200000,3.699199951171875,0.06685702922046184,-0.06831055249702185,-0.11085844883657991
1772794355638244900,3.709244873046875,0.03163257110416889,-0.040694925416633485,-0.06533939119912684
1772794355648289800,3.719289794921875,0.03796586577892303,-0.030422245466336605,-0.042121378023177385
1772794355658333700,3.729333740234375,0.07821779666841029,-0.003522694233432412,-0.007294102530926465
1772794355668379000,3.73937890625,0.13912263948619366,-0.050981816555373365,0.031397666369751095
1772794355678423800,3.749423828125,0.1717418835401535,-0.07145155393648893,-0.002808043158054352
1772794355688469000,3.759468994140625,0.16990180863142013,-0.057845966703817246,0.014123510159552096
1772794355698513000,3.769512939453125,0.14575462484657764,-0.035846572070010005,0.0370130950987339
1772794355708557800,3.779557861328125,0.10247311700284481,0.057306927923671896,0.06003456278927624
1772794355718603000,3.78960302734375,-0.025358313140273092,0.0761932320382446,0.08649404210448265
1772794355728648000,3.79964794921875,-0.14406594110727308,0.07473514218442141,0.08626505565419793
1772794355738691800,3.80969189453125,-0.2261573643386364,0.06450622831061482,0.03921645036190748
1772794355748736800,3.81973681640625,-0.2591395964860916,0.07191358195766806,0.0056211278174072505
1772794355758782000,3.829781982421875,-0.24698680187761782,0.015311477835103868,-0.0543101937931031
1772794355768825900,3.839825927734375,-0.16487082872688769,-0.0007455942029133438,-0.07445807880870997
1772794355778870800,3.849870849609375,-0.07274141108393668,0.010581928562559188,-0.07716010430902243
1772794355788916000,3.859916015625,0.03588262976408005,0.038928281070291997,-0.04013436892442405
1772794355798961000,3.8699609375,0.14803426021635532,0.06565514261741191,-0.021110738698393104
1772794355809004800,3.8800048828125,0.22704408404529094,0.0537991755310446,-0.0026813480384647844
1772794355819049700,3.8900498046875,0.216353763204813,0.02872450163774192,0.02044723328836262
1772794355829095000,3.900094970703125,0.1415869837731123,0.0358357218824327,0.028825185533240434
1772794355839139000,3.91013916015625,0.0628980624616146,0.04377382140532136,0.034510099301859734
1772794355849183700,3.920183837890625,0.012463175731897353,-0.0015201222393661736,0.02736804552748799
1772794355859229000,3.93022900390625,-0.006993219888210296,-0.00778228790666908,0.05105681802034378
1772794355869273900,3.94027392578125,0.019400866040587425,0.002066723271459341,0.046209597184881566
1772794355879317800,3.95031787109375,0.08185702995359898,0.00722790542691946,0.01582037720531225
1772794355889362700,3.96036279296875,0.1552320627659559,0.026334026304632423,0.02740881592929363
1772794355899408000,3.970407958984375,0.1588619437009096,0.08609302355553955,0.09260229585170746
1772794355909452000,3.9804521484375,0.10518296048343181,0.11149802538175135,0.16170418138951062
1772794355919496700,3.99049658203125,0.055664019554853436,0.1025257970381528,0.14804200513139365
1772794355929542000,4.0005419921875,-0.0106049806445837,0.07251443392764777,0.09657397596165537
1772794355939586800,4.0105869140625,-0.026903789016604424,0.01926883715875447,0.03236746124997735
1772794355949631000,4.020630859375,-0.029550504133105275,0.00892433408126235,-0.006623290597274899
1772794355959676000,4.030676025390625,-0.006720832687616348,-0.036714733206667,-0.03003989508524537
1772794355969720800,4.040720947265625,0.04571662603616714,-0.007307290806062519,-0.040187341220676895
1772794355979765000,4.050764892578125,0.05681845028698444,0.06538724892884493,-0.010398352156579494
1772794355989809700,4.0608095703125,0.018213117560744285,0.08402531390339135,0.02442512394338846
1772794355999854800,4.070854736328125,-0.024765607944130897,0.08368187076058238,0.037531419884413476
1772794356009899800,4.080899658203125,-0.03353635889887809,0.04060308241471648,0.029902313245460388
1772794356019944000,4.09094384765625,-0.007846037325263023,-0.003405862920731306,0.0358769306756556
1772794356029988900,4.10098876953125,0.054224926662445064,-0.013337547413632272,0.03312273659668863
1772794356040033800,4.11103369140625,0.11690203984975814,-0.03223002554066479,0.008940992955118417
1772794356050078000,4.121077880859375,0.14114742331206798,-0.0044145285066217186,0.004393047327175736
1772794356060123000,4.131122802734375,0.11143617565929889,0.0008533288937062025,0.05235621018111705
1772794356070167800,4.141167724609375,0.08804945485293865,0.0016317659202963112,0.0657948068164289
1772794356080212700,4.151212646484375,0.09421849887669086,0.037053646304830906,0.04533617535121739
1772794356090257000,4.1612568359375,0.02427051790356636,0.03960322118978947,0.0550244795423001
1772794356100302000,4.171302001953125,-0.10188274989426135,0.0353557563457638,0.03498860353380442
1772794356110346800,4.1813466796875,-0.14777122536599635,-0.014395349370874463,-0.010379209064692259
1772794356120391000,4.191390869140625,-0.11852584165930748,-0.014333499648422001,-0.04834332127794623
1772794356130435800,4.201435791015625,-0.0711596948504448,0.02403890110477805,-0.07121010986343025
1772794356140480800,4.211480712890625,-0.01637713430523872,0.04052497567720711,-0.02352123390622437
1772794356150525700,4.221525634765625,0.013563245928287506,0.03696282621622085,0.010067147440835833
1772794356160569900,4.23156982421875,0.02816168012320995,0.00888356367945671,0.0003374883260577917
1772794356170615000,4.241614990234375,0.06000467910766601,-0.0140425173452124,-0.03142820763848722
1772794356180659700,4.25165966796875,0.08967501022815703,-0.03326272958926856,-0.02046776461973786
1772794356190703900,4.261703857421875,0.11850362982749939,-0.03327339711375534,-0.020232859885320066
1772794356200748800,4.271748779296875,0.16414368349611758,-0.02993369476441294,-0.015450594044849275
1772794356210794000,4.2817939453125,0.16468085911273955,-0.037353104175440965,0.021780162392556666
1772794356220839000,4.2918388671875,0.12411679353415965,-0.024665618168376386,0.02980813215598464
1772794356230882800,4.3018828125,0.0450344889909029,0.008602152922190725,0.047415173582360144
1772794356240928000,4.311927978515625,-0.04156301348805427,0.002737316009402275,0.05901106496043503
1772794356250973000,4.321972900390625,-0.10669453409016132,-0.00592917085327208,0.03895107742398977
1772794356261017900,4.332017822265625,-0.0871931302845478,-0.009425744264759122,0.025307021344453094
1772794356271062000,4.34206201171875,-0.05184299996197223,-0.03537391305696219,0.0021260522432625293
1772794356281107000,4.35210693359375,0.016204115825891492,-0.041776692771352826,-0.0043599487751722335
1772794356291152000,4.36215185546875,0.08049918560385703,-0.06193429546337574,0.007076148931309581
1772794356301195800,4.37219580078125,0.12556874590814113,-0.045602096278406674,-0.007227613165974617
1772794356311241000,4.382240966796875,0.1069610760718584,-0.04438409879077226,-0.008495660340413451
1772794356321286000,4.392285888671875,0.0629986002266407,-0.031408224296383555,0.0025504882004112003
1772794356331330800,4.402330810546875,0.010354220753908157,-0.03205737238749862,0.011882526299729943
1772794356341375000,4.412375,-0.01610883875787258,-0.02793550668451935,0.01071136362850666
1772794356351420000,4.422419921875,-0.009911737683415413,-0.0171553521361202,0.02870945019908249
1772794356361465000,4.432465087890625,-0.00009995324313640594,-0.01051295497957617,-0.0068204206045717
1772794356371508700,4.4425087890625,0.00610942279100418,-0.00939264571275562,-0.024461802691966295
1772794356381554000,4.452553955078125,0.0009422492861747741,-0.012379041112400591,-0.040090456717461344
1772794356391598800,4.462598876953125,-0.01889876173734665,-0.010640161555819212,-0.06167604638598859
1772794356401643800,4.472643798828125,-0.025607903987169264,-0.010131079522520302,-0.029649872854351996
1772794356411688000,4.48268798828125,-0.012182605224847792,-0.006388239732384681,0.009403276704624295
1772794356421732900,4.49273291015625,0.019418401697278022,-0.010562200948782265,0.05198547717258334
1772794356431778000,4.502778076171875,0.06238719033002853,-0.028350919084995985,0.07549553209766745
1772794356441821700,4.51282177734375,0.06530044742822647,-0.0630790085190907,0.04434782190099358
1772794356451867000,4.522866943359375,0.11704349414706229,-0.08267364356610923,-0.010483107830584048
1772794356461911800,4.532911865234375,0.1585351959645748,-0.08189407402835785,-0.005714285993576049
1772794356471957000,4.54295703125,0.17589257347881793,-0.09454089923147112,-0.03928454716205597
1772794356482001000,4.5530009765625,0.15247604205608367,-0.0835355210924521,-0.056025692474097014
1772794356492045800,4.5630458984375,0.09726911861896514,-0.07303096861504017,-0.04173515518456697
1772794356502091000,4.573091064453125,0.01217091478705406,-0.048440059650689364,-0.006765694742649793
1772794356512135000,4.583135009765625,-0.019049568384885786,-0.019639789362996814,0.010676876837015152
1772794356522179800,4.593179931640625,-0.02188800668120384,-0.026148915528692303,0.02354629528224468
1772794356532224800,4.603224853515625,-0.020673370194435117,-0.025629092905670402,0.009636427873373031
1772794356542270000,4.61327001953125,-0.0045054947257041926,-0.021041874713264404,-0.02767418886721134
1772794356552313900,4.62331396484375,0.025120412731170653,-0.041382103963196276,-0.010677022967487572
1772794356562358800,4.63335888671875,0.04941080437898636,-0.05196947588585317,-0.01353431209474802
1772794356572404000,4.643404052734375,0.05899930145740509,-0.04060750286150724,-0.011998480829596519
1772794356582449000,4.653448974609375,0.051824295261502264,-0.03574588817451149,0.010617401734739542
1772794356592492800,4.663492919921875,0.11584814688265323,-0.015167539319768547,0.013790186551958322
1772794356602538000,4.6735380859375,0.15002747986018658,0.007692527263984084,0.03952142465785145
1772794356612583000,4.6835830078125,0.13269172965586185,0.041311815205961465,0.06926642844974994
1772794356622627000,4.693626953125,0.11469780780375004,0.07327898855935781,0.11719970762208104
1772794356632671700,4.703671630859375,0.11289631133973597,0.09539050179813056,0.16927330146953462
1772794356642717000,4.713717041015625,0.08446224401593208,0.08810739558525382,0.16452011559307575
1772794356652761900,4.723761962890625,0.0510603251516819,0.057222446244303136,0.11501432640701531
1772794356662805800,4.7338056640625,0.012638532298803328,0.028496410236600784,0.10936916012689471
1772794356672851000,4.743850830078125,-0.05535831460654735,0.03236620087465271,0.1042107544504106
1772794356682896000,4.753895751953125,-0.09908230552077293,0.047973611182719464,0.10882935416176914
1772794356692940000,4.76393994140625,-0.08366144902706146,0.05592077079489827,0.09126505589857697
1772794356702984700,4.773984619140625,-0.06394318760037422,0.08256375345084815,0.0383497505299747
1772794356713030000,4.78402978515625,-0.05664776989519596,0.10273832554398105,-0.0031100948445498943
1772794356723074800,4.79407470703125,-0.06395780064761639,0.09343102002711966,-0.05257365232408046
1772794356733119000,4.804118896484375,-0.08303074990808963,0.06309139307662845,-0.11011895558089017
1772794356743164000,4.814163818359375,-0.06919453225731849,0.050845020166877655,-0.20138795700222253
1772794356753208800,4.824208740234375,0.006086626437306404,0.06820082677854225,-0.24459376926124093
1772794356763253000,4.8342529296875,0.0398538714826107,0.06792148011419921,-0.1763034923672676
1772794356773298000,4.8442978515625,0.06306757380962372,0.07200379925807937,-0.10705269987806677
1772794356783342800,4.8543427734375,0.05872340712547302,0.057701754193846135,-0.07425020821169018
1772794356793387800,4.8643876953125,0.014049568140506744,0.036271665614284576,-0.08379574293121696
1772794356803432000,4.874431884765625,-0.0414747506827116,0.016647530478145926,-0.10265051939636469
1772794356813476900,4.884476806640625,-0.10105506689846515,0.03356260758498683,-0.0014037293180823324
1772794356823521800,4.894521728515625,-0.06894084975719451,0.07340924560921266,0.06199059222787618
1772794356833567000,4.90456689453125,-0.007557868033647537,0.04965000169603154,0.07581409652754664
1772794356843611000,4.91461083984375,0.04188216243982315,0.031116292145103214,0.07845628159940242
1772794356853655800,4.92465576171875,0.06891746888160705,0.018081472271401434,0.05790054643526673
1772794356863701000,4.934700927734375,0.04742985969483852,0.02982860868843272,0.019554449167102573
1772794356873745000,4.944744873046875,0.017709844213724135,0.06006629136810079,0.009368716847896575
1772794356883790000,4.9547900390625,-0.040243747583031654,0.05021874149469659,-0.009204173935949802
1772794356893834800,4.964834716796875,-0.022179683104157445,0.05940941662825644,-0.016311960114538667
1772794356903880000,4.9748798828125,0.045827100673317904,0.045621074973512435,-0.06042261225879192
1772794356913924000,4.984924072265625,0.13065700895786284,0.003722472855541855,-0.0769777334794402
1772794356923969000,4.994968994140625,0.1453863760560751,0.02143291985746473,-0.07968392369821667
1772794356934014000,5.005013916015625,0.12098843238055705,0.0661586716927588,-0.06666530604064465
1772794356944057900,5.015057861328125,0.05241115523874759,0.06680299747828394,-0.030902211003005504
1772794356954103000,5.02510302734375,-0.0000935235023498535,0.06165124073829502,-0.010296353086829186
1772794356964147700,5.035147705078125,0.017666589593887328,0.060786513667739926,-0.022165508448332545
1772794356974193000,5.04519287109375,0.08355331247746944,0.0590635258000344,-0.026279811899363993
1772794356984237000,5.055237060546875,0.19694003768265247,0.030370789273735134,-0.02758373410478234
1772794356994282000,5.065281982421875,0.23193536321818828,0.017376429274585097,0.0010877952367067335
1772794357004327000,5.075326904296875,0.20362521453499793,0.026065000104904174,0.017788024016469717
1772794357014370800,5.085370849609375,0.13424538883864878,0.03428147817775607,0.06481237165033817
1772794357024416000,5.095416015625,0.044569794088602066,0.059663026063144206,0.09761296362057327
1772794357034461000,5.1054609375,-0.03374795582294464,0.049632319908868516,0.10608312419354915
1772794357044505900,5.115505859375,-0.0576350273668766,0.007822218058258295,0.09838365573212504
1772794357054550000,5.125550048828125,0.0018926818788051604,0.0011689159152097998,0.10395210351422428
1772794357064595000,5.135594970703125,0.1345318045645952,0.04365337336342782,0.14613368729203938
1772794357074640000,5.145639892578125,0.2134422596722841,0.042210371480882164,0.21105346483960746
1772794357084683800,5.155683837890625,0.2299164246112108,0.0660692215773277,0.24851883375048636
1772794357094729000,5.16572900390625,0.13141981002390385,0.06139319259030744,0.22592311719134447
1772794357104774000,5.17577392578125,-0.03218026811480522,0.06969548578308894,0.16327201522812246
1772794357114818800,5.18581884765625,-0.17416648033857343,0.011869593752920626,0.04779752396345138
1772794357124863000,5.195863037109375,-0.24341186600029466,-0.0238127459323965,-0.04439472978264093
1772794357134908000,5.205907958984375,-0.20059914471209048,0.016286551678646354,-0.10431348417252302
1772794357144953000,5.215953125,-0.15856383753716946,0.01192923325197771,-0.1190019347384572
1772794357154997000,5.2259970703125,-0.12268296133875846,0.032669933061581106,-0.173527597913146
1772794357165042000,5.2360419921875,-0.08694178587198256,0.03885656754095107,-0.21240312588289378
1772794357175086800,5.2460869140625,-0.05367196895480156,-0.0019868081693537533,-0.17078765155524014
1772794357185132000,5.256132080078125,-0.02049216840863228,0.005424089141655713,-0.1317496265001595
1772794357195176000,5.266176025390625,0.005045592951774597,0.015138258426357059,-0.1281076167359948
1772794357205220900,5.276220947265625,0.010130933392047882,0.050970327046979215,-0.05822320251837373
1772794357215266000,5.28626611328125,-0.0012064531803131103,0.059548861631564795,-0.032236528346687554
1772794357225310000,5.29631005859375,-0.039430093112587924,0.08298102901484816,-0.016765987492352724
1772794357235355000,5.30635498046875,-0.04492226078808308,0.06655806454019621,0.07338380064070224
1772794357245400000,5.316400146484375,-0.06775368579924106,0.041219552078936246,0.12001447278186678
1772794357255445000,5.326445068359375,-0.02589607327878475,0.009038608110696077,0.12650310414880514
1772794357265489000,5.336489013671875,0.059554012730717656,-0.013934179866220801,0.09863689984083175
1772794357275533800,5.346533935546875,0.14489479314684867,-0.019312018713355063,0.10164660305082797
1772794357285579000,5.3565791015625,0.17459201227426527,-0.01266176704391837,0.09410042545497417
1772794357295624000,5.3666240234375,0.24252047011852262,-0.018526019434817135,0.0908000687353313
1772794357305667800,5.376667724609375,0.24812252790927886,-0.026884792055189607,0.0850726309992373
1772794357315713000,5.386713134765625,0.22210253598988056,0.04208983210744336,0.05248597404062748
1772794357325758000,5.396758056640625,0.15560381868779657,0.05121127792969346,0.05245543277189135
1772794357335801900,5.4068017578125,0.030922961530089377,0.009415807392634451,0.026046733795851467
1772794357345846800,5.4168466796875,-0.08337970947623252,0.016944887723214924,-0.006884206555783748
1772794357355892000,5.42689208984375,-0.14771803387403487,0.014904906328208744,-0.022944383866339922
1772794357365937000,5.43693701171875,-0.1897147626042366,0.018092340725287794,-0.0182537418320775
1772794357375980800,5.446980712890625,-0.1780892067402601,0.06306119886776432,-0.04057546375542879
1772794357386026000,5.45702587890625,-0.1286672964453697,0.017730631273426115,-0.044484453892707825
1772794357396071000,5.46707080078125,-0.026288871988654136,0.0007254829966463148,-0.08278641975820064
1772794357406114800,5.47711474609375,0.07350245858430862,-0.009697017220500856,-0.12006021161973476
1772794357416159700,5.48715966796875,0.10497487069070338,-0.02012432147692889,-0.10239800594002008
1772794357426205000,5.497204833984375,0.1293219609618187,-0.01945646868534386,-0.10604293831363319
1772794357436249900,5.507249755859375,0.09094517629444598,-0.021214253871794788,-0.08423311143517494
1772794357446293800,5.517293701171875,0.044946226185560226,-0.04123874996975064,-0.06481310230270028
1772794357456339000,5.5273388671875,0.030947511449456212,-0.02052957780957222,-0.038446196641772984
1772794357466384000,5.5373837890625,-0.007508183673024177,0.0025672018731944263,0.000550838815793395
1772794357476427800,5.547427734375,-0.014689619609713553,0.023344251637812702,0.021180004542320965
1772794357486473000,5.557472900390625,0.011592238116264343,0.0486215719637461,0.06239259715750813
1772794357496518000,5.567517822265625,-0.007018938851356506,0.03739402070771903,0.0910181684654206
1772794357506563000,5.57756298828125,0.0029787235498428344,0.015636033614352344,0.09792670574486255
1772794357516606700,5.587606689453125,0.028505378994345663,-0.014457016430236398,0.1400849086470902
1772794357526652000,5.59765185546875,0.06439969919621943,0.017125870313309133,0.13324307992830872
1772794357536696800,5.60769677734375,0.060012862414121626,0.03452045629909262,0.13466222601123154
1772794357546741000,5.617740966796875,0.05160100789964199,0.01193975464599207,0.11586677851788699
1772794357556786000,5.627785888671875,0.046349078720808026,0.034696561784669754,0.08651223534829915
1772794357566830800,5.637830810546875,0.01584521938562393,0.049869380067754536,0.05590170076824724
1772794357576876000,5.6478759765625,-0.001270166066288948,0.07909585814457386,0.04452668559923768
1772794357586919700,5.657919677734375,-0.005761047744750976,0.01739966401970014,0.019853870505094528
1772794357596964900,5.66796484375,0.02414192308783531,0.03750518946461379,-0.020288097203895447
1772794357607009800,5.678009765625,0.014072949016094207,0.0227717489794828,-0.03836341372914612
1772794357617054000,5.688053955078125,-0.005692658683657646,-0.014479867582861333,-0.05029978910796344
1772794357627099000,5.698098876953125,0.04749006544947624,0.012663904202077537,-0.024808716433495283
1772794357637143800,5.708143798828125,0.07022562887072563,0.017509280140325427,-0.02199000575095415
1772794357647189000,5.71818896484375,0.006891513079404831,0.0399429745381698,-0.02435220483765006
1772794357657232600,5.728232666015625,-0.08722118733525276,0.017272000785730778,-0.021606413260847328
1772794357667277800,5.73827783203125,-0.11569149501621723,-0.022991419612150638,-0.034121684506163
1772794357677322800,5.74832275390625,-0.1105032787233591,0.001941635587066412,-0.06400280883312225
1772794357687368000,5.758367919921875,-0.06584405278563499,0.011614376882836222,-0.012359130835533142
1772794357697411800,5.768411865234375,-0.001974514943361282,0.06209971515815705,0.005646189193427562
1772794357707456800,5.778456787109375,0.03344166635274887,0.07799724925290792,0.011412789896130562
1772794357717502000,5.788501953125,0.07714695256650447,0.05575789011707529,0.01692015514075756
1772794357727545900,5.7985458984375,0.0812111332654953,0.04309610480684787,0.011899696630239485
1772794357737590800,5.8085908203125,0.02349193474650383,0.045496772740408774,0.031512890247255565
1772794357747636000,5.818635986328125,-0.06703180126547813,0.024141448163799942,0.05550634477511048
1772794357757681000,5.828680908203125,-0.1286029990375042,0.014824845095630734,0.04433452402800321
1772794357767724800,5.838724853515625,-0.14337445171177388,0.001753839663695544,0.04932429513931274
1772794357777769700,5.848769775390625,-0.060196986809372896,0.0255403003773652,0.010953501821309327
1772794357787815000,5.85881494140625,0.02042377934753895,0.0016756598609499631,-0.02283069435879588
1772794357797859000,5.868859130859375,0.13086217614114284,-0.03061643459787592,-0.053297728814929723
1772794357807903700,5.87890380859375,0.16678221530616283,-0.012299272140767424,-0.040439416285604234
1772794357817949000,5.888948974609375,0.15605331602096556,0.0027287673767656087,-0.011720394540578126
1772794357827993900,5.898993896484375,0.13393325414955615,0.005800722168013453,0.026094518460333345
1772794357838038000,5.9090380859375,0.15342530560493467,-0.012382566510047762,-0.0054661564514040945
1772794357848082700,5.919082763671875,0.1652764869183302,0.0027536826223134993,-0.018836656286567447
1772794357858128000,5.9291279296875,0.1632055258631706,0.0017647446502000092,-0.01926394178792834
1772794357868172000,5.939172119140625,0.13207973523736,0.007019815634191036,-0.01281710373610258
1772794357878217000,5.949217041015625,0.05419160891473293,0.0330382001183927,0.017325813332200048
1772794357888262000,5.959261962890625,-0.0021498715102672575,0.0450966309743002,0.03738733523860573
1772794357898306800,5.969306884765625,-0.044701311513781546,0.06109146969737485,0.0483849684625864
1772794357908351000,5.97935107421875,-0.10002806193828583,0.05362811154676601,0.04227759149819612
1772794357918395600,5.989395751953125,-0.15326222399771214,0.015837565802130846,0.0730371791601181
1772794357928440800,5.99944091796875,-0.16909516842365263,-0.025107388852816073,0.05764934815317392
1772794357938485800,6.00948583984375,-0.05257248328030109,-0.03258757027406245,0.053302404990047215
1772794357948530000,6.019530029296875,0.10606558853685855,-0.011639237329456955,0.027679741825163362
1772794357958574800,6.029574951171875,0.21066227356493472,0.01510342457499355,0.03667041914090514
1772794357968619800,6.039619873046875,0.22962182557880878,0.02231207731217146,0.028335136993974445
1772794357978664000,6.049663818359375,0.15943419063091277,0.01934981170678511,0.02181786405444145
1772794357988708900,6.059708984375,0.05091244111359119,0.037238537885062394,0.020233663602918384
1772794357998753800,6.06975390625,-0.06402092901170253,0.030334822911210358,0.040703474049270154
1772794358008798700,6.079798828125,-0.09116963270008563,0.037019963230937716,0.010368979931622743
1772794358018843000,6.0898427734375,-0.06587094079256058,0.05363318958068266,0.014147913948446512
1772794358028888000,6.09988818359375,0.004224339696764946,0.03821907335501164,-0.020008038153499365
1772794358038932700,6.1099326171875,0.02955518030822277,0.04068940899129957,-0.0499045792452991
1772794358048977000,6.119976806640625,0.04292494949102402,0.03196357489051297,-0.03442775478065014
1772794358059021800,6.130021728515625,0.04976151751279831,0.01029551283661276,-0.027800007203966377
1772794358069066800,6.140066650390625,0.07858955259025097,0.00976071184016764,-0.04020604592114687
1772794358079112000,6.15011181640625,0.0952665466248989,0.00218890661271289,-0.03276902778819203
1772794358089155800,6.16015576171875,0.10701192947626113,0.008439162646513431,-0.023253011424094437
1772794358099201000,6.170200927734375,0.06509995642006397,0.01724231803352013,0.005271072270721197
1772794358109245700,6.18024560546875,-0.017367898908257483,0.045134624897129834,0.03083440646380186
1772794358119289900,6.190289794921875,-0.1694108102440834,0.08832803433230146,0.041010786432772874
1772794358129335000,6.2003349609375,-0.23368249914646147,0.07051250125439837,0.04842573886439204
1772794358139380000,6.2103798828125,-0.2060357828080654,0.01572922832313925,0.05691577318161726
1772794358149425000,6.2204248046875,-0.08118833691179751,-0.02392581438543275,0.02034764537140727
1772794358159468800,6.23046875,0.04556640391051769,-0.015458740818686782,0.03211041774898767
1772794358169514000,6.240513916015625,0.12898936800658703,-0.011126136708166449,0.08000394943282008
1772794358179558700,6.25055859375,0.189766200530529,-0.011526662066765128,0.08491159521862864
1772794358189602800,6.260602783203125,0.20689736807346343,-0.024124661425780503,0.08215878937914967
1772794358199648000,6.27064794921875,0.14530512751340866,0.004532492330484092,0.053804070901870726
1772794358209693000,6.28069287109375,0.057574237090349194,0.04548318260647356,0.04382511320114135
1772794358219737900,6.29073779296875,-0.027308862686157225,0.04454893396366388,0.044199353341013194
1772794358229781800,6.30078173828125,-0.09796119253635406,0.07812847441714256,0.008419599429517984
1772794358239827000,6.310826904296875,-0.10660042606592178,0.0796797772460617,-0.037112171559035775
1772794358249872000,6.320871826171875,-0.07472586289942264,0.05515126599343493,-0.06263283565416931
1772794358259915800,6.330915771484375,0.0004664484679698944,0.03996405385881662,-0.10114625231325626
1772794358269961000,6.3409609375,0.08001520147919654,0.03532072156500071,-0.0998969829045236
1772794358280006000,6.351005859375,0.11433598875403403,0.021935974008776248,-0.06932648807391524
1772794358290051000,6.361051025390625,0.12258183905184268,0.01998202692940831,-0.05816533485129475
1772794358300094700,6.3710947265625,0.07274608725905418,0.05479056118857115,-0.00738148855343461
1772794358310140000,6.381139892578125,0.028636311897635457,0.02666789790149778,0.012763035461306572
1772794358320184800,6.391184814453125,0.0264560452491045,0.022390512843243775,-0.01921761842817068
1772794358330229800,6.401229736328125,0.055687984952330585,0.018094130823574958,-0.021080928082019088
1772794358340274000,6.41127392578125,0.03277297331094742,0.01455167244374752,-0.00889057794213295
1772794358350318800,6.42131884765625,-0.029635844328999517,0.0008669555602595209,0.03831161047667265
1772794358360364000,6.431364013671875,-0.05929623857736587,0.033754531694203616,0.04370967012792826
1772794358370408000,6.441407958984375,-0.06417699635624885,0.05052925048228353,0.04744491113349795
1772794358380452900,6.451452880859375,-0.06218202314674854,0.04920231272745877,0.042893677569925785
1772794358390498000,6.461498046875,-0.05135083253085613,0.0622398177485913,0.027701953656971454
1772794358400543000,6.47154296875,-0.03177519444525242,0.04038333871681243,-0.01506385974958539
1772794358410587000,6.4815869140625,-0.002101356193423271,0.05130761444363743,-0.046006402762979265
1772794358420631800,6.4916318359375,0.05486205552220344,0.06401745841298252,-0.017000819161534307
1772794358430677000,6.501677001953125,0.10051438415050507,0.06796404061429202,-0.016408990748226642
1772794358440721000,6.511720947265625,0.12245675136744975,0.06310132994875312,-0.022923633339256046
1772794358450765800,6.521765869140625,0.134418407317996,0.07190872311946005,-0.06120104928538203
1772794358460811000,6.53181103515625,0.15343056630194185,0.06761380240451544,-0.07482844649106264
1772794358470856000,6.54185595703125,0.14327040681540965,0.049665180998854336,-0.06886500804200768
1772794358480899800,6.55189990234375,0.08140870166420935,0.050704132125154136,-0.06286182210445404
1772794358490944800,6.56194482421875,0.018359832555055616,0.08343213378321379,-0.040866263395547865
1772794358500990000,6.571989990234375,-0.04261047671437263,0.09178056767266243,0.004286299017071724
1772794358511033900,6.582033935546875,-0.07957622554004191,0.058531464749947186,0.018137714236974717
1772794358521078800,6.592078857421875,-0.07924246354103089,0.06368800726290792,0.01178819907978177
1772794358531124000,6.6021240234375,-0.027201310658454894,0.04344236096125096,0.061400078988820314
1772794358541169000,6.6121689453125,0.06491933915615082,0.014755159126594662,0.06774594088420272
1772794358551212800,6.622212890625,0.15908289297521114,0.0028321181533858177,0.03528583291471004
1772794358561257700,6.6322578125,0.16792729368805884,-0.008517506846040487,0.01998553406074643
1772794358571303000,6.642302978515625,0.09762100079655647,-0.004250716247037053,0.019349428114295006
1772794358581347000,6.65234716796875,0.040218028619885444,0.012216909353248774,0.02247472052797675
1772794358591391500,6.6623916015625,-0.015200491741299628,0.02844977634958923,0.04791837386414408
1772794358601436700,6.672436767578125,-0.06184475401639938,0.07054974625855684,0.05104878084436059
1772794358611481300,6.6824814453125,-0.0925046806961298,0.08124240518659352,0.07060834457799792
1772794358621525500,6.692525390625,-0.11904548161923885,0.04617668129596859,0.028664661209285257
1772794358631570700,6.70257080078125,-0.11851122861206531,0.02308412113059312,-0.0008994330577552319
1772794358641615600,6.71261572265625,-0.10072072037756442,0.013030783019401132,-0.0364750426992774
1772794358651659500,6.722659423828125,-0.07833236295878887,0.016271043582260607,-0.04721753211840987
1772794358661704400,6.732704345703125,-0.05332534747421741,0.014078830767609178,-0.05245587116330862
1772794358671749600,6.74274951171875,-0.02117839710712433,-0.003794898770935833,-0.07081599597930907
1772794358681794600,6.752794677734375,0.010713701716065406,0.007657346352748572,-0.08007277688533067
1772794358691838500,6.76283837890625,0.02832125459909439,0.008825659479759633,-0.05740121861100197
1772794358701883600,6.772883544921875,0.056852352556586265,-0.004046206650882959,-0.05267798948138952
1772794358711928600,6.782928466796875,0.06689210053384304,0.03751954678352922,-0.05736687794998288
1772794358721973500,6.792973388671875,0.039512510699033734,0.04113963697683066,-0.016229834789037705
1772794358732017400,6.803017333984375,0.05239128149449825,0.03951375280804932,0.0159489720210433
1772794358742062600,6.8130625,0.07036123794913292,0.06321454453226179,0.018047990126907824
1772794358752107500,6.823107421875,0.09192541950345039,0.07786485504489392,0.05239961093142628
1772794358762151400,6.8331513671875,0.10773322948813438,0.06609141514282674,0.07716083496138453
1772794358772196600,6.843196533203125,0.11301847641468048,0.09555829611308872,0.10415040256530046
1772794358782241500,6.853241455078125,0.11721592810451983,0.060096704772673544,0.1303764384508133
1772794358792286700,6.86328662109375,0.10379179838597774,0.056166927575692534,0.1251771162420511
1772794358802330400,6.873330322265625,0.10744447567462921,0.03440262033939361,0.10322013597786427
1772794358812375600,6.88337548828125,0.08249415881335735,0.03115907184090465,0.05715601167827844
1772794358822420500,6.89342041015625,0.03578618365228176,0.00328727804236114,0.01460062615200877
1772794358832464400,6.90346435546875,-0.038187399575114245,-0.006669650489650666,-0.0025074527762830256
1772794358842509600,6.913509521484375,-0.07013152084648609,0.025578824023157358,-0.03188362325578928
1772794358852554500,6.923554443359375,-0.07750117283165454,0.027881657605431973,-0.0282173558332026
1772794358862599700,6.933599609375,-0.04262333619594574,0.025794914459250865,-0.053252866759896274
1772794358872643600,6.9436435546875,0.04386018451452255,0.025686083789914844,-0.06136252345740795
1772794358882688500,6.9536884765625,0.06045476096272468,0.00492470651846379,-0.04770721533149481
1772794358892733700,6.963733642578125,0.06459259141981602,-0.00870148511081934,-0.09276771554648876
1772794358902777300,6.97377734375,0.03604804945886135,0.024098485804907976,-0.05629983324036002
1772794358912822500,6.983822509765625,-0.004339490509033203,0.04801324907336384,-0.014699410351365804
1772794358922867500,6.993867431640625,0.002229366487264633,0.04873005557321012,-0.0031160861939191816
1772794358932912600,7.00391259765625,0.021947043392062184,0.004160553745552897,-0.00999488592222333
1772794358942956500,7.01395654296875,0.025472879430651664,0.00017637948021292685,-0.015316665466874838
1772794358953001500,7.02400146484375,0.04512041370868682,0.012246171980351208,0.011881576451659203
1772794358963046700,7.034046630859375,0.041398178315162654,0.033021248983591794,0.0352551455155015
1772794358973090600,7.044090576171875,0.05182838691473007,0.061988802129589016,0.0606175503090024
1772794358983135500,7.054135498046875,0.03182604784965515,0.0639970001468435,0.08379603519216179
1772794358993180400,7.064180419921875,-0.021027590459585188,0.06730316555276512,0.08490618839114904
1772794359003225600,7.0742255859375,-0.08347557106614112,0.05908011160865426,0.04394903184175491
1772794359013269500,7.08426953125,-0.07328034026622772,0.02723517639543861,-0.0019761223785579205
1772794359023314400,7.094314453125,-0.018137129715085028,-0.006045856035500764,-0.05483443686291575
1772794359033359600,7.104359619140625,0.0776952340990305,-0.019263211135566234,-0.09391863914728164
1772794359043403500,7.114403564453125,0.15555822598040103,-0.03313720351345837,-0.11074614756852388
1772794359053448400,7.124448486328125,0.20791969685852527,-0.028802754505723713,-0.10386544814407825
1772794359063493400,7.134493408203125,0.15903379313647747,0.023815686808153984,-0.04973521402776241
1772794359073538600,7.14453857421875,0.06960603566765784,0.03691964466162026,0.01839110447615385
1772794359083582700,7.154582763671875,0.041427404409646984,0.011020904501713811,0.020932605652511118
1772794359093627400,7.16462744140625,-0.015692659172415732,0.028945633575133977,0.020217881511896848
1772794359103672600,7.174672607421875,-0.0775946963340044,0.014436594696715474,0.04395633836537599
1772794359113717500,7.184717529296875,-0.0933101518601179,-0.009181852506287395,0.03888122705817222
1772794359123761700,7.19476171875,-0.06573299362659454,-0.030649697546660897,-0.010985212133824824
1772794359133806600,7.204806640625,-0.05673077200353145,-0.02641001415029168,-0.07296323714107275
1772794359143851500,7.2148515625,-0.11180033279657363,-0.06897066037356853,-0.06572641775533557
1772794359153895700,7.224895751953125,-0.11692717429101467,-0.06829232272058725,-0.07835296735540032
1772794359163940400,7.2349404296875,-0.05585632725656032,-0.06844298323765396,-0.10862769410982727
1772794359173985500,7.244985595703125,0.03079378219246864,-0.06562047316282987,-0.14903919947519897
1772794359184030500,7.255030517578125,0.03890285436809063,-0.03955627677552402,-0.17498261902704834
1772794359194074600,7.26507470703125,-0.009223170897364616,-0.008077179200015962,-0.11305252481475472
1772794359204119600,7.27511962890625,0.02540975106656551,0.041698732164315876,-0.04826777182370424
1772794359214164500,7.28516455078125,0.09597849428653717,0.05586801769435405,0.006436316657811403
1772794359224208600,7.295208740234375,0.14688684374690056,0.03898132643178105,0.042859190778434274
1772794359234253600,7.305253662109375,0.13886603437662123,-0.00044964346364140506,0.06962883202135563
1772794359244298500,7.315298583984375,0.09115209704339504,0.007979198718257249,0.139392396338284
1772794359254343400,7.325343505859375,0.05472235479056835,0.02384940641466528,0.1536272579178214
1772794359264387600,7.3353876953125,0.042784079715609546,0.021921908950805664,0.15300912601947783
1772794359274432500,7.3454326171875,0.04787760346233844,0.04218275282159448,0.14729469389542937
1772794359284477400,7.3554775390625,0.03342939139306545,0.04948167765811085,0.16588395129218697
1772794359294521600,7.365521484375,0.015348375779390334,0.07079824112690984,0.16321882373616098
1772794359304566500,7.37556640625,0.03855389479994774,0.0362475175537169,0.1251405836239457
1772794359314611500,7.385611572265625,0.07520517084896564,-0.014704817178845404,0.05524374831616878
1772794359324656400,7.395656494140625,0.1115706156939268,-0.013890249392949043,-0.013822042994946241
1772794359334700500,7.405700439453125,0.14838672691583632,-0.019794103141874075,-0.020492022278159855
1772794359344745700,7.415745849609375,0.17474924866259098,-0.015004128918983041,0.03659676938280463
1772794359354790400,7.425790283203125,0.10597498764395713,0.03416720414832234,-0.010181786796450614
1772794359364834600,7.43583447265625,0.07622808415591717,0.08803608391471207,-0.07354439802989363
1772794359374879500,7.44587939453125,0.012019523617625236,0.027937515978515147,-0.015555296528339386
1772794359384924700,7.455924560546875,-0.04498538915216922,0.0029527488583698867,-0.06132394501268863
1772794359394969300,7.46596923828125,-0.10274433515965938,-0.0326351357428357,-0.09091273532956838
1772794359405013500,7.476013427734375,-0.0707324093490839,-0.056875441171228884,-0.06776596075892448
1772794359415058700,7.48605859375,0.0540536617487669,-0.08108465734161437,-0.05805237599611282
1772794359425103400,7.496103271484375,0.17353402765393255,-0.017380539194121955,-0.007747399256378412
1772794359435147500,7.5061474609375,0.23295769200325012,0.045747897957265374,-0.031559359737485644
1772794359445192400,7.5161923828125,0.13656126456558704,0.038803814440406856,0.09023454380705952
1772794359455237600,7.526237548828125,-0.0015349544823169707,0.00938252617754042,0.12581409897133708
1772794359465282600,7.536282470703125,-0.04383972624838352,-0.07404675806146115,0.054959086155891415
1772794359475326500,7.546326416015625,-0.024845687443017957,-0.0853412918727845,-0.0009299743264913558
1772794359485371600,7.55637158203125,-0.004749824875593185,-0.05821593252737075,0.0005349836595356464
1772794359495416600,7.56641650390625,0.058114335316419595,-0.018095920921862123,-0.005959200665354728
1772794359505460500,7.57646044921875,0.10477028802931308,0.0004683481641113758,0.0024501696310937405
1772794359515505700,7.586505615234375,0.1045253733575344,-0.008497742699645459,0.035674686101824046
1772794359525550600,7.596550537109375,0.05619476543068885,-0.011013269184529781,-0.009910276378691196
1772794359535595800,7.606595703125,0.06504442684054375,0.01647182685136795,-0.04499167276248336
1772794359545639400,7.616639404296875,0.06319967575669289,-0.08534604111313819,0.03813333130031824
1772794359555684600,7.6266845703125,0.11272621546983719,-0.010062800059281288,-0.07690919828787446
1772794359565729500,7.6367294921875,0.04304477647840976,-0.00578267505466938,-0.000032440964877605434
1772794359575774500,7.6467744140625,-0.027507015606760978,0.03937017961889505,-0.07149535654559731
1772794359585818600,7.656818603515625,-0.12429507271051406,0.0762634111976251,-0.043150136549025775
1772794359595863800,7.66686376953125,-0.20286592060029504,0.06150065328646451,-0.017359861732274294
1772794359605909000,7.676908935546875,-0.1617038891285658,0.06749989370126276,-0.023137568350881335
1772794359615952600,7.68695263671875,-0.002035305219888687,0.08083064604792743,-0.015927344711124895
1772794359625997800,7.696997802734375,0.08974456833302974,0.0837650189993903,-0.014349574000388382
1772794359636042800,7.707042724609375,0.10612988594472407,0.039430787232331926,0.00465352489426732
1772794359646088000,7.717087890625,0.07559855408072472,0.051458348025940355,0.011967647299915552
1772794359656131800,7.7271318359375,0.04246609980762005,0.004580130864493549,-0.05015943078920245
1772794359666176800,7.7371767578125,0.08807984999120234,-0.04050221585612744,-0.12291297070235013
1772794359676222000,7.747221923828125,0.06025485447645187,0.0002815203551203012,-0.148562668004632
1772794359686265600,7.757265625,-0.029209143349528312,0.036138833014853294,-0.11623188550323248
