time,seconds_elapsed,z,y,x
1772794352002057500,0.073057373046875,1.5201753377914429,-0.10194016993045807,-0.18044523894786835
1772794352012102700,0.0831025390625,1.4725476503372192,-0.1833982765674591,-0.01743979938328266
1772794352022147600,0.093147705078125,1.4652602672576904,-0.28768861293792725,0.13628727197647095
1772794352032191500,0.10319140625,1.469955325126648,-0.37577521800994873,0.2711859345436096
1772794352042236700,0.113236572265625,1.496299386024475,-0.5053103566169739,0.3732167184352875
1772794352052281600,0.123281494140625,1.5270962715148926,-0.6177608966827393,0.4453003704547882
1772794352062326500,0.133326416015625,1.5686335563659668,-0.7294629216194153,0.4765879809856415
1772794352072370400,0.143370361328125,1.6009433269500732,-0.8168533444404602,0.4587121605873108
1772794352082415600,0.15341552734375,1.6183973550796509,-0.8667921423912048,0.39280930161476135
1772794352092460500,0.16346044921875,1.6254736185073853,-0.9011699557304382,0.2656632363796234
1772794352102504400,0.17350439453125,1.5978305339813232,-0.9243128299713135,0.09766490757465363
1772794352112549600,0.183549560546875,1.509499192237854,-0.8737868070602417,-0.04956424981355667
1772794352122594600,0.193594482421875,1.44114089012146,-0.8747471570968628,-0.1412571519613266
1772794352132639700,0.2036396484375,1.3976672887802124,-0.8987716436386108,-0.1869240552186966
1772794352142683400,0.213683349609375,1.360190987586975,-0.8946112394332886,-0.21538712084293365
1772794352152728600,0.223728515625,1.3296082019805908,-0.8935805559158325,-0.23169966042041779
1772794352162773500,0.2337734375,1.3174830675125122,-0.910274088382721,-0.24142739176750183
1772794352172817400,0.2438173828125,1.3058078289031982,-0.9006664752960205,-0.233571857213974
1772794352182862600,0.253862548828125,1.2977951765060425,-0.8463390469551086,-0.21364529430866241
1772794352192907500,0.263907470703125,1.2675279378890991,-0.755314826965332,-0.18880099058151245
1772794352202951400,0.273951416015625,1.2011866569519043,-0.6363897919654846,-0.15098357200622559
1772794352212996600,0.28399658203125,1.1183865070343018,-0.5529519319534302,-0.12803444266319275
1772794352223041500,0.29404150390625,1.059640645980835,-0.5302183628082275,-0.13911691308021545
1772794352233086500,0.30408642578125,0.9936801791191101,-0.3799200654029846,-0.1440306156873703
1772794352243130400,0.31413037109375,0.9399634599685669,-0.15329304337501526,-0.15182648599147797
1772794352253175600,0.324175537109375,0.9124603271484375,0.01949722319841385,-0.15692341327667236
1772794352263220500,0.334220458984375,0.8540952801704407,0.30233025550842285,-0.2357790768146515
1772794352273264600,0.3442646484375,0.7442575693130493,0.6550747752189636,-0.38104569911956787
1772794352283309600,0.3543095703125,0.6404014825820923,0.6935443878173828,-0.37296727299690247
1772794352293354500,0.3643544921875,0.5604521632194519,0.5561732053756714,-0.2260417342185974
1772794352303399700,0.374399658203125,0.467976838350296,0.552175760269165,-0.025555774569511414
1772794352313443300,0.384443359375,0.3723037838935852,0.5459667444229126,0.14550431072711945
1772794352323488500,0.394488525390625,0.29420390725135803,0.5073602199554443,0.24952499568462372
1772794352333533400,0.404533447265625,0.257840096950531,0.4538964629173279,0.28857728838920593
1772794352343577600,0.41457763671875,0.25889232754707336,0.4088003635406494,0.2859748601913452
1772794352353622500,0.42462255859375,0.28065624833106995,0.3628307580947876,0.2503643035888672
1772794352363667500,0.43466748046875,0.30172663927078247,0.30966153740882874,0.19684834778308868
1772794352373712600,0.444712646484375,0.31329604983329773,0.252743661403656,0.14510829746723175
1772794352383756500,0.454756591796875,0.2958502173423767,0.23281285166740417,0.12412630766630173
1772794352393801500,0.464801513671875,0.2665519714355469,0.2964293658733368,0.13900940120220184
1772794352403846400,0.474846435546875,0.22650150954723358,0.39877304434776306,0.17222407460212708
1772794352413890600,0.484890625,0.20070190727710724,0.46484872698783875,0.17452871799468994
1772794352423935700,0.494935791015625,0.14073790609836578,0.4677608907222748,0.14382541179656982
1772794352433980400,0.50498046875,0.09446381777524948,0.4123277962207794,0.05161159113049507
1772794352444025600,0.515025634765625,0.04992884397506714,0.30815210938453674,-0.050230082124471664
1772794352454069500,0.525069580078125,0.03157120198011398,0.26297757029533386,-0.13978567719459534
1772794352464114400,0.535114501953125,-0.0008621051674708724,0.2367832362651825,-0.21960727870464325
1772794352474159400,0.545159423828125,-0.031937651336193085,0.27991506457328796,-0.2704492509365082
1772794352484203500,0.55520361328125,-0.051791783422231674,0.3756149709224701,-0.280252605676651
1772794352494248700,0.565248779296875,-0.06208620220422745,0.41749534010887146,-0.25906112790107727
1772794352504293400,0.57529345703125,-0.06240658089518547,0.4260760545730591,-0.2491898536682129
1772794352514338600,0.585338623046875,-0.09026709198951721,0.41653692722320557,-0.24265575408935547
1772794352524382500,0.595382568359375,-0.12367404997348785,0.37390103936195374,-0.21333648264408112
1772794352534427600,0.605427734375,-0.1307356208562851,0.3321407437324524,-0.18558821082115173
1772794352544472600,0.61547265625,-0.13321448862552643,0.29692044854164124,-0.16602276265621185
1772794352554516500,0.6255166015625,-0.11652527749538422,0.28163689374923706,-0.13445395231246948
1772794352564561700,0.635561767578125,-0.10229946672916412,0.24472576379776,-0.12177225202322006
1772794352574606300,0.6456064453125,-0.09887126088142395,0.2648645043373108,-0.11800988763570786
1772794352584652000,0.655652099609375,-0.08587929606437683,0.2719820737838745,-0.1267583668231964
1772794352594696000,0.665696044921875,-0.0750029981136322,0.2543739080429077,-0.13470984995365143
1772794352604741000,0.6757412109375,-0.07418646663427353,0.21235774457454681,-0.13609282672405243
1772794352614785800,0.685785888671875,-0.06738907843828201,0.19319936633110046,-0.12074409425258636
1772794352624830000,0.695829833984375,-0.04666755348443985,0.15277577936649323,-0.08923409879207611
1772794352634875100,0.705875244140625,-0.02639249712228775,0.10837733745574951,-0.05949403718113899
1772794352644920000,0.715920166015625,-0.006709608249366283,0.06988614052534103,-0.022192737087607384
1772794352654965000,0.725965087890625,0.004371036775410175,-0.0007296535186469555,0.0035881847143173218
1772794352665009000,0.7360087890625,0.039731428027153015,-0.06760269403457642,0.039176005870103836
1772794352675054000,0.74605419921875,0.031257256865501404,-0.06826970726251602,0.07032555341720581
1772794352685099000,0.75609912109375,0.03241386637091637,-0.0646004006266594,0.11671701818704605
1772794352695143000,0.766142822265625,0.05696035921573639,-0.05390867590904236,0.16215576231479645
1772794352705188000,0.77618798828125,0.07548317313194275,-0.035962168127298355,0.2053258717060089
1772794352715233000,0.78623291015625,0.05719747766852379,0.01048630103468895,0.23094245791435242
1772794352725278000,0.79627783203125,0.009351127780973911,0.029106857255101204,0.24616137146949768
1772794352735322000,0.806322021484375,-0.06853201985359192,0.06024139001965523,0.21383033692836761
1772794352745367000,0.816366943359375,-0.14616557955741882,0.053902797400951385,0.19849291443824768
1772794352755412200,0.826412109375,-0.1686791032552719,0.16996383666992188,0.16312751173973083
1772794352765456000,0.836455810546875,-0.1294877678155899,0.2955363988876343,0.1041715145111084
1772794352775501000,0.8465009765625,-0.022377271205186844,0.39422327280044556,0.005768549628555775
1772794352785546000,0.8565458984375,0.040550827980041504,0.5087152123451233,-0.05755236744880676
1772794352795590000,0.86658984375,0.13150951266288757,0.6225354075431824,-0.07556743174791336
1772794352805635000,0.876635009765625,0.2432357668876648,0.6170351505279541,-0.11709650605916977
1772794352815680000,0.886679931640625,0.3592608571052551,0.33351874351501465,-0.14473572373390198
1772794352825725200,0.89672509765625,0.44598188996315,0.1581679731607437,-0.12446880340576172
1772794352835768800,0.906768798828125,0.4576048254966736,0.06833814829587936,-0.018502509221434593
1772794352845814000,0.91681396484375,0.38253191113471985,-0.013119425624608994,0.050869107246398926
1772794352855859000,0.92685888671875,0.28351035714149475,-0.1445145606994629,0.08827564865350723
1772794352865902800,0.93690283203125,0.19782258570194244,-0.2792319059371948,0.08752197027206421
1772794352875948000,0.946947998046875,0.15008586645126343,-0.33310994505882263,0.07059274613857269
1772794352885993000,0.956992919921875,0.11259949207305908,-0.3131769895553589,0.10891110450029373
1772794352896038100,0.9670380859375,0.12855908274650574,-0.2732762098312378,0.14970754086971283
1772794352906081800,0.977081787109375,0.18124227225780487,-0.22927254438400269,0.21408945322036743
1772794352916127000,0.987126953125,0.2269442230463028,-0.24390938878059387,0.29468294978141785
1772794352926172000,0.997171875,0.21623565256595612,-0.29855796694755554,0.3529185652732849
1772794352936217000,1.007217041015625,0.12085817009210587,-0.35185688734054565,0.3695988059043884
1772794352946261000,1.017260986328125,0.028607338666915894,-0.3787761330604553,0.32708117365837097
1772794352956306000,1.027305908203125,0.03398721292614937,-0.4380224645137787,0.2575828433036804
1772794352966351000,1.03735107421875,0.050450876355171204,-0.41603222489356995,0.1862889528274536
1772794352976395000,1.04739501953125,0.03788214549422264,-0.3527796268463135,0.12549042701721191
1772794352986440000,1.05743994140625,-0.005232567898929119,-0.31216615438461304,0.05050726234912872
1772794352996485000,1.067485107421875,-0.05602438747882843,-0.2958623766899109,-0.029107024893164635
1772794353006529000,1.077529052734375,-0.10899093002080917,-0.29220667481422424,-0.100296251475811
1772794353016574000,1.087573974609375,-0.16021569073200226,-0.2975365221500397,-0.14913085103034973
1772794353026619000,1.097618896484375,-0.23194153606891632,-0.29793867468833923,-0.1581118404865265
1772794353036664000,1.1076640625,-0.28900662064552307,-0.3000609874725342,-0.14451439678668976
1772794353046708200,1.117708251953125,-0.28158944845199585,-0.25972050428390503,-0.1336098164319992
1772794353056753000,1.1277529296875,-0.2474132925271988,-0.21010397374629974,-0.10647832602262497
1772794353066798000,1.137798095703125,-0.21312323212623596,-0.16634078323841095,-0.0881483182311058
1772794353076842000,1.147842041015625,-0.17263858020305634,-0.15402652323246002,-0.09240176528692245
1772794353086887000,1.157886962890625,-0.14532120525836945,-0.15996964275836945,-0.09646788239479065
1772794353096931800,1.167931884765625,-0.13028697669506073,-0.1700374037027359,-0.08587512373924255
1772794353106977000,1.17797705078125,-0.13204173743724823,-0.18127115070819855,-0.07167834788560867
1772794353117021200,1.188021240234375,-0.1312522441148758,-0.1738700568675995,-0.0485469214618206
1772794353127065900,1.19806591796875,-0.12566065788269043,-0.141331285238266,-0.016707763075828552
1772794353137111000,1.208111083984375,-0.12637127935886383,-0.1147972121834755,0.009676817804574966
1772794353147156000,1.218156005859375,-0.12660136818885803,-0.09258537739515305,0.01975288800895214
1772794353157200100,1.2282001953125,-0.1243891641497612,-0.06660816818475723,0.0005550669739022851
1772794353167244800,1.238244873046875,-0.1169394999742508,-0.053392231464385986,-0.03749777749180794
1772794353177290000,1.2482900390625,-0.11068488657474518,-0.02863328903913498,-0.07076536864042282
1772794353187334100,1.258334228515625,-0.10308156162500381,-0.011695584282279015,-0.1048535630106926
1772794353197379000,1.268379150390625,-0.10269173979759216,-0.023214932531118393,-0.14713215827941895
1772794353207424000,1.278424072265625,-0.11236433684825897,-0.04395642876625061,-0.1958741396665573
1772794353217469000,1.288468994140625,-0.1295471042394638,-0.06780051440000534,-0.22468525171279907
1772794353227513000,1.29851318359375,-0.14613807201385498,-0.07224133610725403,-0.23708891868591309
1772794353237558000,1.30855810546875,-0.1703299582004547,-0.07941466569900513,-0.22905537486076355
1772794353247603000,1.31860302734375,-0.18092960119247437,-0.10448779910802841,-0.1940891295671463
1772794353257647000,1.328647216796875,-0.1806270182132721,-0.10015402734279633,-0.12017819285392761
1772794353267692000,1.338692138671875,-0.17857478559017181,-0.055557265877723694,-0.01912188157439232
1772794353277737000,1.348737060546875,-0.17921878397464752,-0.014690425246953964,0.05890679359436035
1772794353287782000,1.358781982421875,-0.17637266218662262,0.011336646974086761,0.094536691904068
1772794353297826000,1.368825927734375,-0.16728879511356354,0.03000914305448532,0.10237164050340652
1772794353307871000,1.37887109375,-0.15392771363258362,0.036348532885313034,0.09197332710027695
1772794353317916000,1.388916015625,-0.1356416642665863,0.023383518680930138,0.06882323324680328
1772794353327960000,1.3989599609375,-0.11431294679641724,0.018116051331162453,0.0457535982131958
1772794353338005000,1.4090048828125,-0.09460055083036423,0.021280571818351746,0.014238698408007622
1772794353348050000,1.4190498046875,-0.07993558794260025,0.04344180226325989,-0.033211905509233475
1772794353358094800,1.4290947265625,-0.07611357420682907,0.06588970869779587,-0.08696213364601135
1772794353368139000,1.439138916015625,-0.07108020037412643,0.10025593638420105,-0.12285009771585464
1772794353378184200,1.44918408203125,-0.065760038793087,0.14584296941757202,-0.13295261561870575
1772794353388228900,1.459228759765625,-0.06299461424350739,0.1761510670185089,-0.12765558063983917
1772794353398273000,1.46927294921875,-0.05313095077872276,0.18556532263755798,-0.14933361113071442
1772794353408318000,1.47931787109375,-0.05750253051519394,0.16308797895908356,-0.17270071804523468
1772794353418363100,1.489363037109375,-0.0709979459643364,0.1232774630188942,-0.1893218755722046
1772794353428407800,1.49940771484375,-0.08264794200658798,0.08692451566457748,-0.17764844000339508
1772794353438452000,1.509451904296875,-0.10581285506486893,0.062142424285411835,-0.1458556354045868
1772794353448497200,1.5194970703125,-0.09109941869974136,0.03295444697141647,-0.1117304116487503
1772794353458542000,1.5295419921875,-0.07564631849527359,0.02065185271203518,-0.09196314215660095
1772794353468586000,1.5395859375,-0.07246756553649902,0.006785039324313402,-0.08595265448093414
1772794353478631000,1.549630859375,-0.07470247894525528,-0.006668769288808107,-0.0865587592124939
1772794353488676000,1.559676025390625,-0.06566610932350159,-0.02208341285586357,-0.0871523767709732
1772794353498720800,1.569720703125,-0.04045539349317551,-0.026515856385231018,-0.07187989354133606
1772794353508765000,1.579764892578125,-0.020223358646035194,-0.02839711308479309,-0.06151993200182915
1772794353518810000,1.58981005859375,-0.01285293698310852,-0.03542456775903702,-0.06978984922170639
1772794353528855000,1.59985498046875,-0.008061643689870834,-0.04685299098491669,-0.08901574462652206
1772794353538899000,1.60989892578125,-0.010231699794530869,-0.052118975669145584,-0.10959433764219284
1772794353548944000,1.61994384765625,-0.013234147801995277,-0.05968767777085304,-0.11408922076225281
1772794353558989000,1.629989013671875,-0.013188249431550503,-0.05434441193938255,-0.09766040742397308
1772794353569034000,1.640033935546875,-0.020797166973352432,-0.054668255150318146,-0.08277759701013565
1772794353579078000,1.650077880859375,-0.027898402884602547,-0.060649383813142776,-0.0751485526561737
1772794353589123600,1.66012353515625,-0.028747951611876488,-0.060407571494579315,-0.06669008731842041
1772794353599168300,1.670168212890625,-0.026269368827342987,-0.05661624297499657,-0.05269148200750351
1772794353609212400,1.68021240234375,-0.028713617473840714,-0.05025927722454071,-0.030999768525362015
1772794353619257300,1.69025732421875,-0.040947627276182175,-0.051088105887174606,-0.011870509944856167
1772794353629302300,1.70030224609375,-0.06374455243349075,-0.059978533536195755,-0.014180002734065056
1772794353639347200,1.71034716796875,-0.07185980677604675,-0.061316993087530136,-0.031993623822927475
1772794353649391400,1.720391357421875,-0.07260122895240784,-0.045488230884075165,-0.05346056818962097
1772794353659436500,1.7304365234375,-0.06871654093265533,-0.020961958914995193,-0.07243756949901581
1772794353669481200,1.740481201171875,-0.06604858487844467,-0.005819492042064667,-0.10241410881280899
1772794353679525400,1.750525390625,-0.06545379757881165,-0.008549755439162254,-0.1330498605966568
1772794353689570300,1.7605703125,-0.059743717312812805,-0.02211643010377884,-0.16033022105693817
1772794353699615500,1.770615478515625,-0.05365787819027901,-0.014901874586939812,-0.14837133884429932
1772794353709660400,1.780660400390625,-0.04667746648192406,0.02169581688940525,-0.10332049429416656
1772794353719704300,1.790704345703125,-0.04131516441702843,0.051100365817546844,-0.06318966299295425
1772794353729749500,1.80074951171875,-0.032702501863241196,0.06911532580852509,-0.04313685745000839
1772794353739794200,1.810794189453125,-0.02608180046081543,0.07860755175352097,-0.03105977736413479
1772794353749838300,1.82083837890625,-0.01814771071076393,0.08825752139091492,-0.02301197126507759
1772794353759883500,1.830883544921875,-0.008319150656461716,0.09212588518857956,-0.019376175478100777
1772794353769928400,1.840928466796875,0.0010684918379411101,0.08622991293668747,-0.015044809319078922
1772794353779973400,1.850973388671875,0.004660266451537609,0.07875756174325943,-0.011675570160150528
1772794353790017300,1.861017333984375,0.012292619794607162,0.08410704880952835,0.008923981338739395
1772794353800062500,1.8710625,0.020499693229794502,0.08312125504016876,0.018312042579054832
1772794353810107400,1.881107421875,0.02638820931315422,0.07366090267896652,0.011536428704857826
1772794353820151300,1.8911513671875,0.023674938827753067,0.05496135726571083,-0.012659002095460892
1772794353830196500,1.901196533203125,0.018438365310430527,0.03840821608901024,-0.043550871312618256
1772794353840241400,1.911241455078125,0.02476534992456436,0.02635779231786728,-0.06339346617460251
1772794353850286600,1.92128662109375,0.027857013046741486,0.02087780460715294,-0.06445181369781494
1772794353860330200,1.931330322265625,0.026414554566144943,0.018410485237836838,-0.05135602504014969
1772794353870375400,1.94137548828125,0.028874516487121582,0.019939672201871872,-0.03488517180085182
1772794353880420400,1.95142041015625,0.03217152878642082,0.029081720858812332,-0.01236437726765871
1772794353890464300,1.96146435546875,0.030692677944898605,0.0271352156996727,0.018094463273882866
1772794353900509400,1.971509521484375,0.029541075229644775,0.014172272756695747,0.03401460498571396
1772794353910554400,1.981554443359375,0.01166087668389082,-0.0003536716103553772,0.044644080102443695
1772794353920599600,1.991599609375,-0.010856631211936474,-0.025429192930459976,0.036798909306526184
1772794353930643200,2.001643310546875,-0.020334821194410324,-0.0320705845952034,0.030171632766723633
1772794353940688400,2.0116884765625,-0.023951373994350433,-0.017604876309633255,0.032201532274484634
1772794353950733300,2.0217333984375,-0.019448233768343925,0.002285207621753216,0.03597336634993553
1772794353960777200,2.031777099609375,-0.014526722952723503,0.018896302208304405,0.02523002214729786
1772794353970822400,2.041822509765625,-0.008153513073921204,0.028172891587018967,-0.0012553808046504855
1772794353980867300,2.051867431640625,-0.011065811850130558,0.026494896039366722,-0.04298033565282822
1772794353990912500,2.06191259765625,-0.014680520631372929,0.012514101341366768,-0.08963146060705185
1772794354000956400,2.071956298828125,-0.020509740337729454,-0.010562891140580177,-0.12682174146175385
1772794354011001300,2.08200146484375,-0.01735788956284523,-0.02273699827492237,-0.14529955387115479
1772794354021046500,2.092046630859375,-0.014371112920343876,-0.029919913038611412,-0.15200212597846985
1772794354031090200,2.102090087890625,-0.0037517582532018423,-0.03418443351984024,-0.14459028840065002
1772794354041135400,2.11213525390625,-0.0076948245987296104,-0.023698128759860992,-0.13112863898277283
1772794354051180300,2.12218017578125,-0.014766315929591656,-0.022997185587882996,-0.1115964949131012
1772794354061225500,2.1322255859375,-0.024942593649029732,-0.027145810425281525,-0.0902579203248024
1772794354071269400,2.142269287109375,-0.03294352814555168,-0.03531612083315849,-0.06325293332338333
1772794354081314300,2.152314208984375,-0.03658056631684303,-0.041483305394649506,-0.04138803854584694
1772794354091359500,2.162359375,-0.04135587811470032,-0.04750471189618111,-0.017052602022886276
1772794354101403400,2.1724033203125,-0.04755721241235733,-0.06262773275375366,0.006003643851727247
1772794354111448300,2.1824482421875,-0.054506998509168625,-0.06381230801343918,0.029110027477145195
1772794354121493200,2.1924931640625,-0.06098213791847229,-0.0635344460606575,0.05466495081782341
1772794354131538400,2.202538330078125,-0.06533587723970413,-0.059602290391922,0.06870833039283752
1772794354141582600,2.21258251953125,-0.06608900427818298,-0.05610092729330063,0.07286567986011505
1772794354151627300,2.222627197265625,-0.06434383243322372,-0.047118883579969406,0.072899229824543
1772794354161672400,2.23267236328125,-0.065559022128582,-0.042084600776433945,0.06673283874988556
1772794354171716400,2.24271630859375,-0.06872659176588058,-0.032288964837789536,0.06897655129432678
1772794354181761300,2.25276123046875,-0.06605159491300583,-0.0219696294516325,0.06551851332187653
1772794354191806200,2.26280615234375,-0.06051302328705788,-0.021406903862953186,0.06961605697870255
1772794354201851400,2.272851318359375,-0.05917460843920708,-0.01884404569864273,0.06592540442943573
1772794354211895600,2.2828955078125,-0.05373590439558029,-0.005475509911775589,0.05805470049381256
1772794354221940200,2.292940185546875,-0.040312495082616806,0.011585606262087822,0.04120343178510666
1772794354231985400,2.3029853515625,-0.029610581696033478,0.015294324606657028,0.025602372363209724
1772794354242029300,2.313029296875,-0.020975487306714058,0.008049573749303818,0.004402927588671446
1772794354252074500,2.323074462890625,-0.01750432327389717,-0.0004315292462706566,-0.01385384052991867
1772794354262119200,2.333119140625,-0.017570439726114273,0.00216003879904747,-0.027626115828752518
1772794354272164400,2.343164306640625,-0.02357693389058113,0.014280617237091064,-0.033093053847551346
1772794354282208500,2.35320849609375,-0.024129969999194145,0.034379374235868454,-0.02758621610701084
1772794354292253200,2.363253173828125,-0.020994896069169044,0.0560937225818634,-0.02306656539440155
1772794354302298400,2.37329833984375,-0.0191664919257164,0.0695180892944336,-0.024206921458244324
1772794354312342500,2.383342529296875,-0.021835247054696083,0.07567398995161057,-0.022580528631806374
1772794354322387500,2.393387451171875,-0.027629127725958824,0.08178504556417465,-0.02455388940870762
1772794354332432400,2.403432373046875,-0.02652311697602272,0.07861775159835815,-0.03332341089844704
1772794354342477300,2.413477294921875,-0.020732656121253967,0.07128579914569855,-0.04136745631694794
1772794354352521500,2.423521484375,-0.015317385084927082,0.06524229049682617,-0.04668498784303665
1772794354362566400,2.43356640625,-0.012760167010128498,0.04925160109996796,-0.043352074921131134
1772794354372611300,2.443611328125,-0.011415270157158375,0.03213227540254593,-0.04854870215058327
1772794354382655500,2.453655517578125,-0.009099293500185013,0.020348887890577316,-0.044284917414188385
1772794354392700400,2.463700439453125,-0.005848105996847153,0.02572820708155632,-0.034940946847200394
1772794354402745600,2.47374560546875,-0.0061427028849720955,0.02970283478498459,-0.02828703075647354
1772794354412790300,2.483790283203125,-0.009598687291145325,0.03146930783987045,-0.023200659081339836
1772794354422834400,2.49383447265625,-0.012751408852636814,0.027947857975959778,-0.011639613658189774
1772794354432879400,2.50387939453125,-0.023627225309610367,0.013499677181243896,-0.007732223719358444
1772794354442924300,2.51392431640625,-0.0336957648396492,0.011765378527343273,-0.0057066199369728565
1772794354452969200,2.52396923828125,-0.039741940796375275,0.013520135544240475,0.0003597948234528303
1772794354463013400,2.534013427734375,-0.03866779804229736,0.016788937151432037,-0.001550423912703991
1772794354473058600,2.54405859375,-0.035911690443754196,0.025781897827982903,-0.008685831911861897
1772794354483103200,2.554103271484375,-0.03526953235268593,0.019922632724046707,-0.020479103550314903
1772794354493147400,2.5641474609375,-0.030562128871679306,0.007015089504420757,-0.03344789892435074
1772794354503192300,2.5741923828125,-0.022501148283481598,-0.01075688935816288,-0.044276054948568344
1772794354513237500,2.584237548828125,-0.020027337595820427,-0.021634837612509727,-0.044634781777858734
1772794354523282200,2.5942822265625,-0.018215743824839592,-0.0294798593968153,-0.041061535477638245
1772794354533326300,2.604326416015625,-0.02572878822684288,-0.03981558978557587,-0.0365980789065361
1772794354543371500,2.61437158203125,-0.0195376668125391,-0.04463302716612816,-0.026179255917668343
1772794354553416200,2.624416259765625,-0.021986443549394608,-0.042417012155056,-0.009306265972554684
1772794354563460400,2.63446044921875,-0.021527130156755447,-0.058309219777584076,-0.007255788426846266
1772794354573505300,2.64450537109375,-0.027821242809295654,-0.06564649194478989,-0.00946434773504734
1772794354583550500,2.654550537109375,-0.018207233399152756,-0.06785611808300018,-0.007435818202793598
1772794354593594400,2.664594482421875,-0.009082832373678684,-0.05969948321580887,-0.004552672151476145
1772794354603638500,2.674638427734375,-0.005470050033181906,-0.06162106618285179,0.0029288288205862045
1772794354613683500,2.684683349609375,-0.013018514029681683,-0.06786404550075531,0.0007170735625550151
1772794354623728600,2.694728759765625,-0.023560360074043274,-0.07161980122327805,-0.004029325675219297
1772794354633772300,2.704772216796875,-0.027222739532589912,-0.07186667621135712,-0.013003911823034286
1772794354643817500,2.7148173828125,-0.025853168219327927,-0.06512477993965149,-0.011166639626026154
1772794354653862400,2.7248623046875,-0.02424222230911255,-0.048914119601249695,-0.006398516707122326
1772794354663907600,2.734907470703125,-0.028500236570835114,-0.0445147268474102,-0.00459653977304697
1772794354673951500,2.744951416015625,-0.028527667745947838,-0.04203612357378006,-0.004672439768910408
1772794354683996400,2.754996337890625,-0.03059282712638378,-0.0413084514439106,-0.0015749250305816531
1772794354694041600,2.76504150390625,-0.029776567593216896,-0.033884093165397644,0.0020624203607439995
1772794354704085200,2.775085205078125,-0.027077915146946907,-0.031597815454006195,0.014430411159992218
1772794354714130400,2.78513037109375,-0.029544269666075706,-0.02615964040160179,0.02454722672700882
1772794354724175400,2.79517529296875,-0.034732721745967865,-0.02281424030661583,0.025982780382037163
1772794354734220500,2.805220458984375,-0.0439150333404541,-0.015348333865404129,0.023579811677336693
1772794354744264400,2.815264404296875,-0.05376622825860977,-0.01466895267367363,0.015252035111188889
1772794354754309400,2.825309326171875,-0.05863635241985321,-0.016464456915855408,0.011231993325054646
1772794354764354600,2.8353544921875,-0.0530075766146183,-0.012102257460355759,0.011087493970990181
1772794354774398200,2.845398193359375,-0.05300704389810562,-0.006306686904281378,0.013317091390490532
1772794354784443400,2.855443359375,-0.04757034406065941,0.005584285594522953,0.013747693970799446
1772794354794488300,2.86548828125,-0.04077262431383133,0.02431056834757328,0.0023826537653803825
1772794354804533500,2.875533447265625,-0.03009721264243126,0.025992022827267647,-0.00975881889462471
1772794354814577400,2.885577392578125,-0.025554126128554344,0.041337691247463226,-0.030618026852607727
1772794354824622300,2.895622314453125,-0.018364042043685913,0.038466062396764755,-0.05763670429587364
1772794354834667500,2.90566748046875,-0.003064447548240423,0.031123997643589973,-0.08113989979028702
1772794354844711400,2.91571142578125,0.01636493019759655,0.025178704410791397,-0.09307003021240234
1772794354854756400,2.92575634765625,0.025847915560007095,0.021907009184360504,-0.08474551886320114
1772794354864801300,2.93580126953125,0.030557584017515182,0.009660398587584496,-0.07085085660219193
1772794354874846500,2.945846435546875,0.030995141714811325,-0.004148891195654869,-0.05308198556303978
1772794354884890400,2.955890380859375,0.02827979065477848,-0.009251931682229042,-0.030701689422130585
1772794354894935300,2.965935302734375,0.030370371416211128,-0.012543332763016224,-0.008608639240264893
1772794354904980500,2.97598046875,0.026638854295015335,-0.014655476436018944,0.0007387198274955153
1772794354915024600,2.986024658203125,0.02142252027988434,-0.01956288330256939,-0.0006498523871414363
1772794354925069300,2.9960693359375,0.021054459735751152,-0.024328984320163727,-0.006476202979683876
1772794354935114500,3.006114501953125,0.01640085130929947,-0.015252132900059223,-0.016107525676488876
1772794354945159400,3.016159423828125,0.009869594126939774,-0.0061291661113500595,-0.02544107474386692
1772794354955203300,3.026203369140625,0.007640262600034475,0.0033969609066843987,-0.03607800602912903
1772794354965248300,3.036248291015625,0.007913102395832539,0.009476758539676666,-0.03440675139427185
1772794354975293400,3.04629345703125,0.008372497744858265,0.016437727957963943,-0.03357451409101486
1772794354985338400,3.05633837890625,0.00233957776799798,0.01692284271121025,-0.03398049622774124
1772794354995382300,3.06638232421875,-0.0008002892136573792,0.010843911208212376,-0.02915910817682743
1772794355005427500,3.076427490234375,-0.012468161061406136,0.014500642195343971,-0.02005608379840851
1772794355015472400,3.086472412109375,-0.021535957232117653,0.023660583421587944,-0.011095878668129444
1772794355025516500,3.0965166015625,-0.021709544584155083,0.021950041875243187,-0.006603693589568138
1772794355035561200,3.106561279296875,-0.02675596997141838,0.016456471756100655,-0.003749317489564419
1772794355045606400,3.1166064453125,-0.025180278345942497,0.025153549388051033,0.002006908878684044
1772794355055651300,3.1266513671875,-0.02471289411187172,0.03565812110900879,0.005340121686458588
1772794355065695500,3.136695556640625,-0.026890765875577927,0.049444619566202164,0.012350743636488914
1772794355075740400,3.146740478515625,-0.0238512996584177,0.07163727283477783,0.023117639124393463
1772794355085785300,3.156785400390625,-0.016138693317770958,0.09608792513608932,0.026969144120812416
1772794355095829500,3.16682958984375,-0.00769567396491766,0.11334813386201859,0.011486858129501343
1772794355105874200,3.176874267578125,-0.008167555555701256,0.11110527813434601,-0.010169243440032005
1772794355115919400,3.18691943359375,-0.007638651877641678,0.10598481446504593,-0.03217334672808647
1772794355125964300,3.19696435546875,0.0004069728311151266,0.1026846244931221,-0.040238961577415466
1772794355136008400,3.207008544921875,0.0035479050129652023,0.09718120098114014,-0.04779195412993431
1772794355146053400,3.217053466796875,0.008984492160379887,0.09238842129707336,-0.049471721053123474
1772794355156098300,3.227098388671875,0.003639794187620282,0.08593824505805969,-0.050245366990566254
1772794355166142500,3.237142578125,0.0009422374423593283,0.06835030019283295,-0.04802277311682701
1772794355176187400,3.2471875,-0.008595340885221958,0.059238821268081665,-0.04260909929871559
1772794355186232300,3.257232421875,-0.01757689192891121,0.046321529895067215,-0.02715272270143032
1772794355196277500,3.267277587890625,-0.028625549748539925,0.033394280821084976,-0.012604407034814358
1772794355206321400,3.2773212890625,-0.038536667823791504,0.012935886159539223,0.005026448518037796
1772794355216366600,3.28736669921875,-0.05132090672850609,-0.011099942028522491,0.021493306383490562
1772794355226411300,3.297411376953125,-0.06088465452194214,-0.035796985030174255,0.024023305624723434
1772794355236455400,3.307455322265625,-0.07402469217777252,-0.05810229107737541,0.028548814356327057
1772794355246500600,3.31750048828125,-0.07771579176187515,-0.07354473322629929,0.036423858255147934
1772794355256545300,3.327545166015625,-0.08006230741739273,-0.07451625913381577,0.05314025282859802
1772794355266590500,3.337590576171875,-0.08110221475362778,-0.07618232816457748,0.06157844513654709
1772794355276634400,3.34763427734375,-0.08028329163789749,-0.07263366132974625,0.0607006698846817
1772794355286679600,3.357679443359375,-0.07413070648908615,-0.06492020189762115,0.05470713973045349
1772794355296724200,3.36772412109375,-0.06882941722869873,-0.04702988266944885,0.05415799841284752
1772794355306768400,3.377768310546875,-0.0537567138671875,-0.03656168654561043,0.03818104788661003
1772794355316813600,3.3878134765625,-0.04101908206939697,-0.023960407823324203,0.02157597430050373
1772794355326858500,3.3978583984375,-0.029637008905410767,-0.013939039781689644,-0.0024304459802806377
1772794355336903400,3.4079033203125,-0.01629110798239708,-0.0020397701300680637,-0.02412482164800167
1772794355346947300,3.417947265625,-0.009781277738511562,0.007809930946677923,-0.05125071853399277
1772794355356992500,3.427992431640625,-0.004754028283059597,0.007471443619579077,-0.07401727885007858
1772794355367037200,3.438037109375,0.0056293499656021595,0.01608641818165779,-0.0776086151599884
1772794355377081300,3.448081298828125,0.012939194217324257,0.02974550612270832,-0.07227004319429398
1772794355387126500,3.45812646484375,0.020844491198658943,0.03591080382466316,-0.05971633642911911
1772794355397171500,3.46817138671875,0.017442835494875908,0.0622452013194561,-0.045302510261535645
1772794355407216400,3.47821630859375,0.019843952730298042,0.08761085569858551,-0.0370287150144577
1772794355417260300,3.48826025390625,0.023650674149394035,0.0986400693655014,-0.03971904143691063
1772794355427305500,3.498305419921875,0.03355897590517998,0.09835176169872284,-0.05412498861551285
1772794355437350400,3.508350341796875,0.039388105273246765,0.09130370616912842,-0.06708340346813202
1772794355447394300,3.518394287109375,0.04456223547458649,0.0704001858830452,-0.08166659623384476
1772794355457439500,3.528439453125,0.042513731867074966,0.049413684755563736,-0.08227246254682541
1772794355467484400,3.538484375,0.042855825275182724,0.03311997652053833,-0.07976746559143066
1772794355477529600,3.548529541015625,0.03837372362613678,0.024305175989866257,-0.06337730586528778
1772794355487573500,3.558573486328125,0.03136283904314041,0.01611170917749405,-0.056142665445804596
1772794355497618400,3.568618408203125,0.020504599437117577,0.007338458206504583,-0.046988315880298615
1772794355507663600,3.57866357421875,0.01688414439558983,-0.0057547204196453094,-0.04048903286457062
1772794355517707300,3.588707275390625,0.008848588913679123,-0.02020183764398098,-0.029447568580508232
1772794355527752400,3.59875244140625,-0.0016596196219325066,-0.0325869657099247,-0.016469942405819893
1772794355537797400,3.60879736328125,-0.0033382102847099304,-0.039480291306972504,-0.0032446838449686766
1772794355547842600,3.618842529296875,-0.012012730352580547,-0.055193960666656494,0.008097715675830841
1772794355557886500,3.628886474609375,-0.018179012462496758,-0.0687534436583519,0.018999632447957993
1772794355567931400,3.638931396484375,-0.01833602786064148,-0.07826187461614609,0.01533946581184864
1772794355577976600,3.6489765625,-0.011861615814268589,-0.09756020456552505,0.009143088012933731
1772794355588020700,3.659020751953125,-0.010721690952777863,-0.09356782585382462,0.012489949353039265
1772794355598066000,3.66906591796875,-0.011675368994474411,-0.08143286406993866,0.02074521593749523
1772794355608110800,3.67911083984375,-0.01641622558236122,-0.06866433471441269,0.02819853462278843
1772794355618156000,3.689156005859375,-0.02645714208483696,-0.06406611949205399,0.027745796367526054
1772794355628200000,3.699199951171875,-0.027885232120752335,-0.05840184912085533,0.02375219203531742
1772794355638244900,3.709244873046875,-0.026076145470142365,-0.04660138487815857,0.03335634991526604
1772794355648289800,3.719289794921875,-0.025387924164533615,-0.036192040890455246,0.031902115792036057
1772794355658333700,3.729333740234375,-0.021518351510167122,-0.026138871908187866,0.02319224551320076
1772794355668379000,3.73937890625,-0.020285101607441902,-0.019247394055128098,0.0037726000882685184
1772794355678423800,3.749423828125,-0.02489822916686535,-0.012412924319505692,-0.010993562638759613
1772794355688469000,3.759468994140625,-0.02696111425757408,-0.006988064385950565,-0.02572537027299404
1772794355698513000,3.769512939453125,-0.027752872556447983,-0.024996891617774963,-0.03491540625691414
1772794355708557800,3.779557861328125,-0.02711833454668522,-0.03612134978175163,-0.03576606139540672
1772794355718603000,3.78960302734375,-0.021486280485987663,-0.043839991092681885,-0.022981557995080948
1772794355728648000,3.79964794921875,-0.019597813487052917,-0.056593652814626694,-0.007962089963257313
1772794355738691800,3.80969189453125,-0.021456699818372726,-0.0650545135140419,0.019007476046681404
1772794355748736800,3.81973681640625,-0.022671982645988464,-0.06183987110853195,0.044194962829351425
1772794355758782000,3.829781982421875,-0.028507500886917114,-0.06320767104625702,0.06537827849388123
1772794355768825900,3.839825927734375,-0.03439628332853317,-0.060609228909015656,0.07644131779670715
1772794355778870800,3.849870849609375,-0.03884056583046913,-0.05787336081266403,0.08069704473018646
1772794355788916000,3.859916015625,-0.04303789138793945,-0.05500560998916626,0.07583001255989075
1772794355798961000,3.8699609375,-0.04207036644220352,-0.05048942193388939,0.052751325070858
1772794355809004800,3.8800048828125,-0.04172744229435921,-0.053338371217250824,0.029896564781665802
1772794355819049700,3.8900498046875,-0.041000135242938995,-0.049198225140571594,0.011739400215446949
1772794355829095000,3.900094970703125,-0.040688253939151764,-0.04088202118873596,0.0067854272201657295
1772794355839139000,3.91013916015625,-0.04110690578818321,-0.03124883398413658,0.006436286494135857
1772794355849183700,3.920183837890625,-0.03652495890855789,-0.013812003657221794,0.012323964387178421
1772794355859229000,3.93022900390625,-0.0412166491150856,-0.005709601566195488,0.017703017219901085
1772794355869273900,3.94027392578125,-0.04018603637814522,0.007417063694447279,0.02123044803738594
1772794355879317800,3.95031787109375,-0.043049998581409454,0.012404898181557655,0.011593800038099289
1772794355889362700,3.96036279296875,-0.04843224585056305,0.0025165812112390995,0.00009027519263327122
1772794355899408000,3.970407958984375,-0.04060202091932297,0.003240961115807295,-0.00801825150847435
1772794355909452000,3.9804521484375,-0.029078491032123566,-0.0007228325121104717,-0.009362689219415188
1772794355919496700,3.99049658203125,-0.017774438485503197,-0.00387281971052289,-0.012005077674984932
1772794355929542000,4.0005419921875,-0.014057043939828873,-0.002008190844208002,-0.011005409993231297
1772794355939586800,4.0105869140625,-0.009784800931811333,-0.0010212231427431107,-0.00535551318898797
1772794355949631000,4.020630859375,-0.006082986481487751,0.0043228911235928535,-0.003137593623250723
1772794355959676000,4.030676025390625,-0.011591468937695026,0.007195110432803631,-0.00501379044726491
1772794355969720800,4.040720947265625,-0.01974225789308548,-0.003717131447046995,-0.015769874677062035
1772794355979765000,4.050764892578125,-0.020326290279626846,-0.007797360420227051,-0.01863144151866436
1772794355989809700,4.0608095703125,-0.015551661141216755,-0.009792485274374485,-0.01583104580640793
1772794355999854800,4.070854736328125,-0.011762782000005245,-0.0046022506430745125,-0.010144663974642754
1772794356009899800,4.080899658203125,-0.0011322831269353628,0.007756251376122236,-0.0020244980696588755
1772794356019944000,4.09094384765625,0.003847295418381691,0.009007405489683151,0.0004900586791336536
1772794356029988900,4.10098876953125,0.0007442932110279799,0.01245458610355854,-0.005296351853758097
1772794356040033800,4.11103369140625,-0.004591083619743586,0.010367734357714653,-0.011860511265695095
1772794356050078000,4.121077880859375,-0.0032414142042398453,0.011317201890051365,-0.017349859699606895
1772794356060123000,4.131122802734375,0.007066084537655115,0.012522283010184765,-0.027503427118062973
1772794356070167800,4.141167724609375,0.0072683002799749374,0.006558460649102926,-0.041320547461509705
1772794356080212700,4.151212646484375,0.006754309870302677,-0.005454792641103268,-0.04844583570957184
1772794356090257000,4.1612568359375,0.006417420227080584,-0.012592596933245659,-0.04615791514515877
1772794356100302000,4.171302001953125,0.002394182840362191,-0.013523904606699944,-0.031461261212825775
1772794356110346800,4.1813466796875,-0.0018176987068727612,-0.018726959824562073,-0.015543079935014248
1772794356120391000,4.191390869140625,-0.010104124434292316,-0.02791513130068779,0.0021429727785289288
1772794356130435800,4.201435791015625,-0.018535066395998,-0.031812895089387894,0.012851344421505928
1772794356140480800,4.211480712890625,-0.020176108926534653,-0.03461667150259018,0.017031975090503693
1772794356150525700,4.221525634765625,-0.02147933468222618,-0.03077683225274086,0.015615696087479591
1772794356160569900,4.23156982421875,-0.022028744220733643,-0.02657543122768402,0.014562683179974556
1772794356170615000,4.241614990234375,-0.024764735251665115,-0.02288864366710186,0.006339915096759796
1772794356180659700,4.25165966796875,-0.02605077251791954,-0.019964227452874184,-0.0003723158733919263
1772794356190703900,4.261703857421875,-0.024764221161603928,-0.017083168029785156,-0.009407129138708115
1772794356200748800,4.271748779296875,-0.02856561914086342,-0.014612819999456406,-0.02292826399207115
1772794356210794000,4.2817939453125,-0.020651696249842644,-0.012079667299985886,-0.03650665283203125
1772794356220839000,4.2918388671875,-0.01769185997545719,-0.018448084592819214,-0.0464216023683548
1772794356230882800,4.3018828125,-0.014644639566540718,-0.02178097516298294,-0.042381927371025085
1772794356240928000,4.311927978515625,-0.010234978049993515,-0.019883738830685616,-0.02682879939675331
1772794356250973000,4.321972900390625,-0.011574885807931423,-0.02286057360470295,-0.011660236865282059
1772794356261017900,4.332017822265625,-0.0092656584456563,-0.023257650434970856,-0.0009841574355959892
1772794356271062000,4.34206201171875,-0.00682279234752059,-0.01619788259267807,0.004195192828774452
1772794356281107000,4.35210693359375,-0.0019505390664562583,-0.014585338532924652,-0.00008823501411825418
1772794356291152000,4.36215185546875,-0.0026133591309189796,-0.021847082301974297,-0.0091303875669837
1772794356301195800,4.37219580078125,-0.0015765903517603874,-0.031045906245708466,-0.018997132778167725
1772794356311241000,4.382240966796875,-0.002288105199113488,-0.04253365844488144,-0.024005316197872162
1772794356321286000,4.392285888671875,0.0009993008570745587,-0.04041111841797829,-0.0212918221950531
1772794356331330800,4.402330810546875,0.0019947290420532227,-0.04252737760543823,-0.01568491943180561
1772794356341375000,4.412375,0.004591843578964472,-0.03655071184039116,-0.007391836494207382
1772794356351420000,4.422419921875,0.007379394955933094,-0.03353499993681908,-0.006116409786045551
1772794356361465000,4.432465087890625,0.0032166079618036747,-0.02987661585211754,-0.0054245200008153915
1772794356371508700,4.4425087890625,0.0058136917650699615,-0.033490050584077835,-0.004444935359060764
1772794356381554000,4.452553955078125,0.002992338966578245,-0.03139174357056618,0.0023338748142123222
1772794356391598800,4.462598876953125,-0.0018632696010172367,-0.02889523282647133,0.005409414414316416
1772794356401643800,4.472643798828125,-0.007310232613235712,-0.032367728650569916,0.01955612562596798
1772794356411688000,4.48268798828125,-0.011309665627777576,-0.03846488893032074,0.021877823397517204
1772794356421732900,4.49273291015625,-0.01208091713488102,-0.04147319868206978,0.029118692502379417
1772794356431778000,4.502778076171875,-0.011570102535188198,-0.036328818649053574,0.02845693565905094
1772794356441821700,4.51282177734375,-0.009448095224797726,-0.034289903938770294,0.02454129047691822
1772794356451867000,4.522866943359375,-0.010222327895462513,-0.03441561013460159,0.012939529493451118
1772794356461911800,4.532911865234375,-0.011817561462521553,-0.026108143851161003,-0.0012804187135770917
1772794356471957000,4.54295703125,-0.01710749976336956,-0.023004375398159027,-0.014318942092359066
1772794356482001000,4.5530009765625,-0.016069401055574417,-0.022639788687229156,-0.02700011618435383
1772794356492045800,4.5630458984375,-0.016017653048038483,-0.017136169597506523,-0.028922470286488533
1772794356502091000,4.573091064453125,-0.020064858719706535,-0.013773929327726364,-0.02073032036423683
1772794356512135000,4.583135009765625,-0.017202194780111313,-0.01318371668457985,-0.013768627308309078
1772794356522179800,4.593179931640625,-0.016058102250099182,-0.02005840092897415,-0.00899730809032917
1772794356532224800,4.603224853515625,-0.014207431115210056,-0.02380317449569702,-0.0032264254987239838
1772794356542270000,4.61327001953125,-0.010059291496872902,-0.022991176694631577,-0.00039468647446483374
1772794356552313900,4.62331396484375,-0.008215256966650486,-0.02279878407716751,-0.00500529957935214
1772794356562358800,4.63335888671875,-0.0029517854563891888,-0.018785400316119194,-0.010147064924240112
1772794356572404000,4.643404052734375,0.004605159629136324,-0.007000276353210211,-0.011701629497110844
1772794356582449000,4.653448974609375,0.015577116049826145,0.002577515784651041,-0.014265988022089005
1772794356592492800,4.663492919921875,0.02311287820339203,0.005391205660998821,-0.025871088728308678
1772794356602538000,4.6735380859375,0.030182238668203354,0.011894378811120987,-0.03804519400000572
1772794356612583000,4.6835830078125,0.03850748762488365,0.01687171496450901,-0.04120462387800217
1772794356622627000,4.693626953125,0.05325314402580261,0.023279281333088875,-0.050398655235767365
1772794356632671700,4.703671630859375,0.06602349877357483,0.021325422450900078,-0.05675063654780388
1772794356642717000,4.713717041015625,0.07477996498346329,0.0203256718814373,-0.06436142325401306
1772794356652761900,4.723761962890625,0.07988957315683365,0.01292177103459835,-0.06646718084812164
1772794356662805800,4.7338056640625,0.07729965448379517,0.011340918019413948,-0.06318696588277817
1772794356672851000,4.743850830078125,0.08344621956348419,0.02222035638988018,-0.05471267178654671
1772794356682896000,4.753895751953125,0.08742924779653549,0.019100196659564972,-0.05049395561218262
1772794356692940000,4.76393994140625,0.08631207793951035,0.008678771555423737,-0.04737440124154091
1772794356702984700,4.773984619140625,0.08345077931880951,-0.01128428429365158,-0.03402956947684288
1772794356713030000,4.78402978515625,0.0806867852807045,-0.03287864848971367,-0.03288472071290016
1772794356723074800,4.79407470703125,0.07263817638158798,-0.04484556242823601,-0.02438204735517502
1772794356733119000,4.804118896484375,0.06095666438341141,-0.04318404942750931,-0.014224552549421787
1772794356743164000,4.814163818359375,0.046141501516103745,-0.04579448699951172,-0.01363386306911707
1772794356753208800,4.824208740234375,0.030338987708091736,-0.05028495565056801,-0.013278679922223091
1772794356763253000,4.8342529296875,0.022704770788550377,-0.05710184946656227,-0.011804886162281036
1772794356773298000,4.8442978515625,0.02154870331287384,-0.06019473820924759,-0.010075543075799942
1772794356783342800,4.8543427734375,0.014016217552125454,-0.0639527216553688,-0.015639418736100197
1772794356793387800,4.8643876953125,0.006627349182963371,-0.07285918295383453,-0.01762586645781994
1772794356803432000,4.874431884765625,-0.0013099364005029202,-0.07029534876346588,-0.004182496573776007
1772794356813476900,4.884476806640625,-0.0007453360012732446,-0.06994956731796265,0.009532935917377472
1772794356823521800,4.894521728515625,0.0007345826597884297,-0.07152056694030762,0.01722707413136959
1772794356833567000,4.90456689453125,0.001661219634115696,-0.07339933514595032,0.008900693617761135
1772794356843611000,4.91461083984375,0.0027280820067971945,-0.07092951983213425,0.003809794783592224
1772794356853655800,4.92465576171875,-0.003110847668722272,-0.07362303882837296,-0.008068472146987915
1772794356863701000,4.934700927734375,-0.01497309934347868,-0.07680391520261765,-0.006420773919671774
1772794356873745000,4.944744873046875,-0.014179334044456482,-0.07286758720874786,0.0020092041231691837
1772794356883790000,4.9547900390625,-0.019412977620959282,-0.06136699393391609,0.01497453823685646
1772794356893834800,4.964834716796875,-0.023811321705579758,-0.048613980412483215,0.015528354793787003
1772794356903880000,4.9748798828125,-0.029260151088237762,-0.045600347220897675,0.00877271220088005
1772794356913924000,4.984924072265625,-0.03903842344880104,-0.04097030311822891,-0.006469103507697582
1772794356923969000,4.994968994140625,-0.05028921365737915,-0.03982061520218849,-0.017687136307358742
1772794356934014000,5.005013916015625,-0.056421831250190735,-0.03265206888318062,-0.02078058198094368
1772794356944057900,5.015057861328125,-0.06280143558979034,-0.02001670002937317,-0.009489577263593674
1772794356954103000,5.02510302734375,-0.06160112842917442,-0.0021983403712511063,0.002206798642873764
1772794356964147700,5.035147705078125,-0.06253456324338913,0.01756924018263817,0.005027086474001408
1772794356974193000,5.04519287109375,-0.0635678693652153,0.031505826860666275,-0.005981090012937784
1772794356984237000,5.055237060546875,-0.0670723244547844,0.04296114668250084,-0.023524664342403412
1772794356994282000,5.065281982421875,-0.06384285539388657,0.052149541676044464,-0.04566541686654091
1772794357004327000,5.075326904296875,-0.06536272168159485,0.05627451092004776,-0.05536092445254326
1772794357014370800,5.085370849609375,-0.061807263642549515,0.06209372729063034,-0.0569315068423748
1772794357024416000,5.095416015625,-0.054402876645326614,0.06865042448043823,-0.05281665921211243
1772794357034461000,5.1054609375,-0.04882451891899109,0.0857444703578949,-0.04234464466571808
1772794357044505900,5.115505859375,-0.0429900661110878,0.10762713104486465,-0.034613221883773804
1772794357054550000,5.125550048828125,-0.036376722157001495,0.11892074346542358,-0.034165967255830765
1772794357064595000,5.135594970703125,-0.02465854585170746,0.12301294505596161,-0.048546239733695984
1772794357074640000,5.145639892578125,-0.011635913513600826,0.11374397575855255,-0.06788763403892517
1772794357084683800,5.155683837890625,0.002511597704142332,0.0934794545173645,-0.0852477177977562
1772794357094729000,5.16572900390625,0.0169416181743145,0.08144941926002502,-0.08723306655883789
1772794357104774000,5.17577392578125,0.02548796869814396,0.07441068440675735,-0.07962042093276978
1772794357114818800,5.18581884765625,0.024216359481215477,0.0697360411286354,-0.05944221839308739
1772794357124863000,5.195863037109375,0.021927906200289726,0.06293991953134537,-0.04128238931298256
1772794357134908000,5.205907958984375,0.018386200070381165,0.04918501526117325,-0.021025128662586212
1772794357144953000,5.215953125,0.013732857070863247,0.039715614169836044,-0.005790517199784517
1772794357154997000,5.2259970703125,0.00105141696985811,0.02663975954055786,0.0020788575056940317
1772794357165042000,5.2360419921875,-0.005251435562968254,0.020007429644465446,0.005572889931499958
1772794357175086800,5.2460869140625,-0.005343816243112087,0.013778616674244404,0.0032566641457378864
1772794357185132000,5.256132080078125,-0.013915732502937317,0.002522500231862068,0.0015074998373165727
1772794357195176000,5.266176025390625,-0.0125068798661232,-0.007555270567536354,-0.0007537119672633708
1772794357205220900,5.276220947265625,-0.014237401075661182,-0.018449995666742325,0.00007639534305781126
1772794357215266000,5.28626611328125,-0.018633686006069183,-0.026903953403234482,0.00035030918661504984
1772794357225310000,5.29631005859375,-0.01981319859623909,-0.0295490063726902,0.011323331855237484
1772794357235355000,5.30635498046875,-0.015729611739516258,-0.03007512539625168,0.02024177275598049
1772794357245400000,5.316400146484375,-0.01065043080598116,-0.023801516741514206,0.02822752669453621
1772794357255445000,5.326445068359375,-0.005745984613895416,-0.018920529633760452,0.03527326136827469
1772794357265489000,5.336489013671875,-0.007100468501448631,-0.016757244244217873,0.030920322984457016
1772794357275533800,5.346533935546875,-0.004526287317276001,-0.009938541799783707,0.025999942794442177
1772794357285579000,5.3565791015625,-0.001441281521692872,0.003165808040648699,0.009582620114088058
1772794357295624000,5.3666240234375,0.004152320325374603,0.01937725767493248,-0.01463982556015253
1772794357305667800,5.376667724609375,0.003997057676315308,0.0299723781645298,-0.035832729190588
1772794357315713000,5.386713134765625,0.005835826974362135,0.027538741007447243,-0.04851526767015457
1772794357325758000,5.396758056640625,0.004932749085128307,0.018222203478217125,-0.04915362596511841
1772794357335801900,5.4068017578125,0.00010894460137933493,0.01025567576289177,-0.039720747619867325
1772794357345846800,5.4168466796875,-0.008276018314063549,0.00678424583747983,-0.020590195432305336
1772794357355892000,5.42689208984375,-0.012378822080790997,0.013905116356909275,0.000048620160669088364
1772794357365937000,5.43693701171875,-0.01604839228093624,0.020323868840932846,0.020183183252811432
1772794357375980800,5.446980712890625,-0.01917194202542305,0.027893193066120148,0.03604899346828461
1772794357386026000,5.45702587890625,-0.02176586166024208,0.036542873829603195,0.04501212760806084
1772794357396071000,5.46707080078125,-0.02755201980471611,0.028904831036925316,0.04487714543938637
1772794357406114800,5.47711474609375,-0.031960614025592804,0.02539079077541828,0.03563757613301277
1772794357416159700,5.48715966796875,-0.036912702023983,0.015651188790798187,0.02623433992266655
1772794357426205000,5.497204833984375,-0.04155512526631355,0.009149347431957722,0.018576154485344887
1772794357436249900,5.507249755859375,-0.04219827800989151,0.010843383148312569,0.011593878269195557
1772794357446293800,5.517293701171875,-0.041383352130651474,0.00784626230597496,0.009754965081810951
1772794357456339000,5.5273388671875,-0.04150927811861038,0.009687735699117184,0.007320115342736244
1772794357466384000,5.5373837890625,-0.03432353585958481,0.016509953886270523,0.009760103188455105
1772794357476427800,5.547427734375,-0.032847121357917786,0.015711110085248947,0.01842355541884899
1772794357486473000,5.557472900390625,-0.025133540853857994,0.0101911760866642,0.02124464139342308
1772794357496518000,5.567517822265625,-0.018846064805984497,0.014128873124718666,0.020123222842812538
1772794357506563000,5.57756298828125,-0.008567326702177525,0.014541929587721825,0.01682995818555355
1772794357516606700,5.587606689453125,-0.001237600576132536,0.006327508483082056,0.008911804296076298
1772794357526652000,5.59765185546875,0.011624934151768684,-0.0025107241235673428,0.0036049233749508858
1772794357536696800,5.60769677734375,0.02028476446866989,-0.0028696623630821705,-0.003907129634171724
1772794357546741000,5.617740966796875,0.03473667427897453,-0.0009623062796890736,-0.002266356023028493
1772794357556786000,5.627785888671875,0.04223797097802162,-0.00041934382170438766,-0.0027312696911394596
1772794357566830800,5.637830810546875,0.04784232750535011,0.005194600205868483,0.004717325791716576
1772794357576876000,5.6478759765625,0.05668671429157257,0.010471709072589874,0.011674759909510612
1772794357586919700,5.657919677734375,0.05122510343790054,0.014129294082522392,0.01599973440170288
1772794357596964900,5.66796484375,0.05162787809967995,0.008328938856720924,0.009687438607215881
1772794357607009800,5.678009765625,0.05001480132341385,0.008355038240551949,0.004086011555045843
1772794357617054000,5.688053955078125,0.0506579615175724,0.009777006693184376,0.004562071058899164
1772794357627099000,5.698098876953125,0.046100493520498276,-0.0047830273397266865,-0.0032058372162282467
1772794357637143800,5.708143798828125,0.03351824730634689,-0.024686601012945175,-0.00891299918293953
1772794357647189000,5.71818896484375,0.025054190307855606,-0.03236555680632591,-0.002295310143381357
1772794357657232600,5.728232666015625,0.017615018412470818,-0.037648994475603104,0.008022504858672619
1772794357667277800,5.73827783203125,0.009333653375506401,-0.03644471615552902,0.023052586242556572
1772794357677322800,5.74832275390625,0.0026809745468199253,-0.03317489102482796,0.03315749019384384
1772794357687368000,5.758367919921875,-0.0014711598632857203,-0.04215027764439583,0.03951258957386017
1772794357697411800,5.768411865234375,0.0009677731432020664,-0.04347829148173332,0.03900540992617607
1772794357707456800,5.778456787109375,0.0016972129233181477,-0.04970929026603699,0.03470893204212189
1772794357717502000,5.788501953125,0.0002520280540920794,-0.05857722833752632,0.028717968612909317
1772794357727545900,5.7985458984375,0.0001990311429835856,-0.07171087712049484,0.023880869150161743
1772794357737590800,5.8085908203125,0.0012786355800926685,-0.07766266912221909,0.026413191109895706
1772794357747636000,5.818635986328125,0.00200887443497777,-0.07222769409418106,0.043018266558647156
1772794357757681000,5.828680908203125,0.00636559072881937,-0.0587955042719841,0.059665385633707047
1772794357767724800,5.838724853515625,0.012054103426635265,-0.05101481080055237,0.07602598518133163
1772794357777769700,5.848769775390625,0.009168393909931183,-0.0395759642124176,0.07687240093946457
1772794357787815000,5.85881494140625,0.005471393465995789,-0.03000456467270851,0.07331415265798569
1772794357797859000,5.868859130859375,-0.0013650332111865282,-0.034147679805755615,0.05470364913344383
1772794357807903700,5.87890380859375,-0.007745168171823025,-0.03472904860973358,0.04411012679338455
1772794357817949000,5.888948974609375,-0.009567630477249622,-0.03146306052803993,0.03732294216752052
1772794357827993900,5.898993896484375,-0.008417411707341671,-0.02162933722138405,0.025423940271139145
1772794357838038000,5.9090380859375,-0.011533309705555439,-0.012128245085477829,0.012445823289453983
1772794357848082700,5.919082763671875,-0.012317877262830734,-0.0023320727050304413,-0.0006390862399712205
1772794357858128000,5.9291279296875,-0.014266563579440117,0.0043154386803507805,-0.008436519652605057
1772794357868172000,5.939172119140625,-0.013762160204350948,0.01206976454705,-0.012180658057332039
1772794357878217000,5.949217041015625,-0.009762420319020748,0.01604495197534561,-0.009463819675147533
1772794357888262000,5.959261962890625,-0.011900406330823898,0.013300564140081406,-0.00741052208468318
1772794357898306800,5.969306884765625,-0.014155826531350613,0.00026023853570222855,-0.0007841581827960908
1772794357908351000,5.97935107421875,-0.01682298257946968,-0.012613481841981411,0.014803589321672916
1772794357918395600,5.989395751953125,-0.016044508665800095,-0.01647261157631874,0.029017338529229164
1772794357928440800,5.99944091796875,-0.01159862894564867,-0.008571546524763107,0.040576789528131485
1772794357938485800,6.00948583984375,-0.005602255463600159,-0.0020212349481880665,0.032868269830942154
1772794357948530000,6.019530029296875,-0.0037947678938508034,-0.005053776782006025,0.013362744823098183
1772794357958574800,6.029574951171875,-0.0006515206187032163,-0.014859597198665142,-0.008930199779570103
1772794357968619800,6.039619873046875,0.0022728964686393738,-0.025310639292001724,-0.025045521557331085
1772794357978664000,6.049663818359375,0.00003841181751340628,-0.03258137404918671,-0.0291505828499794
1772794357988708900,6.059708984375,-0.0020255381241440773,-0.03291932865977287,-0.022151529788970947
1772794357998753800,6.06975390625,0.0014583480078727007,-0.024678554385900497,-0.012272650375962257
1772794358008798700,6.079798828125,-0.00026072253240272403,-0.013417378067970276,0.0009177192114293575
1772794358018843000,6.0898427734375,-0.000001965381670743227,-0.006959221791476011,0.006456365343183279
1772794358028888000,6.09988818359375,-0.0003638889465946704,-0.005664659198373556,0.00041445204988121986
1772794358038932700,6.1099326171875,-0.0046010809019207954,-0.008845684118568897,0.004346657078713179
1772794358048977000,6.119976806640625,-0.0020079612731933594,-0.0034415980335325003,0.001186549779959023
1772794358059021800,6.130021728515625,-0.0024322131648659706,-0.005181547719985247,-0.001145999296568334
1772794358069066800,6.140066650390625,-0.002589605748653412,-0.006084625609219074,-0.0052198367193341255
1772794358079112000,6.15011181640625,-0.008611463941633701,-0.010825791396200657,-0.01620868220925331
1772794358089155800,6.16015576171875,-0.007711315061897039,-0.011191976256668568,-0.025358503684401512
1772794358099201000,6.170200927734375,-0.008617916144430637,-0.024060748517513275,-0.027648141607642174
1772794358109245700,6.18024560546875,-0.004540883470326662,-0.03137538582086563,-0.015457521192729473
1772794358119289900,6.190289794921875,0.0005576463881880045,-0.03449970856308937,0.010734891518950462
1772794358129335000,6.2003349609375,0.006525790318846703,-0.03211138769984245,0.033488672226667404
1772794358139380000,6.2103798828125,0.009788470342755318,-0.024442648515105247,0.05139025300741196
1772794358149425000,6.2204248046875,0.00826434325426817,-0.03311976045370102,0.05327017605304718
1772794358159468800,6.23046875,0.012326226569712162,-0.03088691085577011,0.04514506831765175
1772794358169514000,6.240513916015625,0.02210242487490177,-0.027427198365330696,0.03280690684914589
1772794358179558700,6.25055859375,0.02459506131708622,-0.026505272835493088,0.011461247690021992
1772794358189602800,6.260602783203125,0.026544762775301933,-0.0323711521923542,-0.010001166723668575
1772794358199648000,6.27064794921875,0.027093976736068726,-0.0328950434923172,-0.01636292226612568
1772794358209693000,6.28069287109375,0.028173089027404785,-0.0260403323918581,-0.010616086423397064
1772794358219737900,6.29073779296875,0.02668536826968193,-0.025559160858392715,0.0004848772659897804
1772794358229781800,6.30078173828125,0.021963050588965416,-0.019976109266281128,0.014572200365364552
1772794358239827000,6.310826904296875,0.018445033580064774,-0.010183184407651424,0.029842805117368698
1772794358249872000,6.320871826171875,0.012880891561508179,-0.0007547950372099876,0.03755345568060875
1772794358259915800,6.330915771484375,0.006906192284077406,0.0006391126662492752,0.03354319557547569
1772794358269961000,6.3409609375,0.0010813261615112424,-0.0007931352593004704,0.027437102049589157
1772794358280006000,6.351005859375,-0.005700270179659128,-0.004966532811522484,0.017033761367201805
1772794358290051000,6.361051025390625,-0.006863804999738932,-0.010059562511742115,0.008283411152660847
1772794358300094700,6.3710947265625,-0.003379233181476593,-0.010807208716869354,0.00853538978844881
1772794358310140000,6.381139892578125,-0.0015781372785568237,-0.004472347907721996,0.005372886545956135
1772794358320184800,6.391184814453125,0.0008703321218490601,-0.0033598432783037424,0.005802375730127096
1772794358330229800,6.401229736328125,-0.0006023959722369909,-0.010092314332723618,-0.001894425950013101
1772794358340274000,6.41127392578125,-0.0008269617101177573,-0.012209638953208923,-0.0023744453210383654
1772794358350318800,6.42131884765625,0.0028050574474036694,-0.00851397030055523,0.008031589910387993
1772794358360364000,6.431364013671875,0.004661792889237404,-0.01155231986194849,0.014257489703595638
1772794358370408000,6.441407958984375,0.004885764792561531,-0.012712659314274788,0.021232841536402702
1772794358380452900,6.451452880859375,0.007945501245558262,-0.014067353680729866,0.026107417419552803
1772794358390498000,6.461498046875,0.01054900698363781,-0.009343437850475311,0.027216622605919838
1772794358400543000,6.47154296875,0.007925824262201786,-0.0017453832551836967,0.03070954978466034
1772794358410587000,6.4815869140625,0.00413002073764801,-0.0006135399453341961,0.03400947526097298
1772794358420631800,6.4916318359375,0.0030477531254291534,0.006543868221342564,0.026076260954141617
1772794358430677000,6.501677001953125,0.003416334744542837,0.006470099091529846,0.017284367233514786
1772794358440721000,6.511720947265625,-0.0006503736367449164,0.009561916813254356,0.012458069249987602
1772794358450765800,6.521765869140625,-0.00607549911364913,0.011964354664087296,0.001326056313700974
1772794358460811000,6.53181103515625,-0.010311123915016651,0.007645837962627411,-0.006302713416516781
1772794358470856000,6.54185595703125,-0.013097322545945644,0.01053190603852272,-0.016032040119171143
1772794358480899800,6.55189990234375,-0.020442545413970947,0.016642030328512192,-0.017836496233940125
1772794358490944800,6.56194482421875,-0.01949658989906311,0.014249179512262344,-0.008462435565888882
1772794358500990000,6.571989990234375,-0.018585195764899254,0.017887435853481293,-0.0032257442362606525
1772794358511033900,6.582033935546875,-0.021672332659363747,0.02472217194736004,0.007071367464959621
1772794358521078800,6.592078857421875,-0.017860231921076775,0.03326746076345444,0.01916954107582569
1772794358531124000,6.6021240234375,-0.011564520187675953,0.0372060090303421,0.02402874454855919
1772794358541169000,6.6121689453125,-0.010390639305114746,0.029739942401647568,0.009240132756531239
1772794358551212800,6.622212890625,-0.008728560991585255,0.02524186298251152,-0.005973973777145147
1772794358561257700,6.6322578125,-0.008385719731450081,0.01843472383916378,-0.018969090655446053
1772794358571303000,6.642302978515625,-0.0047209435142576694,0.023649459704756737,-0.023073021322488785
1772794358581347000,6.65234716796875,0.0007675137603655457,0.016342807561159134,-0.02843925543129444
1772794358591391500,6.6623916015625,-0.0018415851518511772,0.00494793988764286,-0.029251253232359886
1772794358601436700,6.672436767578125,-0.00041518587386235595,-0.00856829434633255,-0.019467446953058243
1772794358611481300,6.6824814453125,-0.0009755149949342012,-0.019726406782865524,-0.008123446255922318
1772794358621525500,6.692525390625,0.0007289591012522578,-0.02943442203104496,0.009303712286055088
1772794358631570700,6.70257080078125,-0.004194959066808224,-0.037526972591876984,0.022661328315734863
1772794358641615600,6.71261572265625,-0.005830529145896435,-0.038625482469797134,0.0321134515106678
1772794358651659500,6.722659423828125,-0.004277906380593777,-0.042726483196020126,0.035513509064912796
1772794358661704400,6.732704345703125,-0.006483792327344418,-0.0465695858001709,0.039667658507823944
1772794358671749600,6.74274951171875,-0.0096534863114357,-0.05101360008120537,0.0396314412355423
1772794358681794600,6.752794677734375,-0.013237507082521915,-0.0541677363216877,0.04094502702355385
1772794358691838500,6.76283837890625,-0.013454022817313671,-0.0477878674864769,0.044353075325489044
1772794358701883600,6.772883544921875,-0.018229642882943153,-0.04804183170199394,0.04034653678536415
1772794358711928600,6.782928466796875,-0.01700991578400135,-0.03868801146745682,0.03842799738049507
1772794358721973500,6.792973388671875,-0.015063401311635971,-0.026663998141884804,0.04020128399133682
1772794358732017400,6.803017333984375,-0.012075068429112434,-0.017942145466804504,0.03398466855287552
1772794358742062600,6.8130625,-0.010780741460621357,-0.00782101135700941,0.027026019990444183
1772794358752107500,6.823107421875,-0.0066533745266497135,0.001219088677316904,0.025835586711764336
1772794358762151400,6.8331513671875,-0.004177474416792393,0.005995836574584246,0.022098293527960777
1772794358772196600,6.843196533203125,0.00030009832698851824,0.012581834569573402,0.01760074868798256
1772794358782241500,6.853241455078125,0.0068685393780469894,0.01658557914197445,0.01150481030344963
1772794358792286700,6.86328662109375,0.010956491343677044,0.01713685505092144,0.0004660080885514617
1772794358802330400,6.873330322265625,0.016380807384848595,0.014979319646954536,0.0021252711303532124
1772794358812375600,6.88337548828125,0.014840967953205109,0.010679379105567932,-0.005897235125303268
1772794358822420500,6.89342041015625,0.015570192597806454,0.006236966233700514,-0.005153449717909098
1772794358832464400,6.90346435546875,0.01052483357489109,0.004149579908698797,0.00020269991364330053
1772794358842509600,6.913509521484375,0.010329327546060085,0.009066252037882805,0.012459173798561096
1772794358852554500,6.923554443359375,0.008705331943929195,0.014504958875477314,0.015927143394947052
1772794358862599700,6.933599609375,0.009229380637407303,0.015515515580773354,0.01671212539076805
1772794358872643600,6.9436435546875,0.004247404634952545,0.012587903067469597,0.012459589168429375
1772794358882688500,6.9536884765625,0.0009803411085158587,0.00908372551202774,0.0057494184002280235
1772794358892733700,6.963733642578125,-0.0018846875755116343,0.007225638255476952,0.0031624233815819025
1772794358902777300,6.97377734375,0.00205328781157732,0.002248026430606842,0.005910993553698063
1772794358912822500,6.983822509765625,0.003682876005768776,0.0028472384437918663,0.011300433427095413
1772794358922867500,6.993867431640625,0.00595753313973546,-0.0006822445429861546,0.004670457914471626
1772794358932912600,7.00391259765625,0.0036110221408307552,-0.002566697308793664,0.0036302271764725447
1772794358942956500,7.01395654296875,0.003984213341027498,-0.005452835001051426,0.0023217294365167618
1772794358953001500,7.02400146484375,-0.0006667310954071581,-0.00752663891762495,0.0010396838188171387
1772794358963046700,7.034046630859375,-0.00016919139306992292,-0.010548681952059269,-0.0007969806320033967
1772794358973090600,7.044090576171875,-0.00014602189185097814,-0.013644340448081493,-0.001725891255773604
1772794358983135500,7.054135498046875,0.0016126063419505954,-0.02014174871146679,0.003871016204357147
1772794358993180400,7.064180419921875,0.006170606706291437,-0.021780390292406082,0.013672780245542526
1772794359003225600,7.0742255859375,0.009278535842895508,-0.016162771731615067,0.023086028173565865
1772794359013269500,7.08426953125,0.007004995364695787,-0.009585294872522354,0.032052356749773026
1772794359023314400,7.094314453125,0.002933667739853263,-0.0037620412185788155,0.03387726470828056
1772794359033359600,7.104359619140625,-0.0020829287823289633,0.005142770241945982,0.02223712019622326
1772794359043403500,7.114403564453125,-0.010023031383752823,0.007556510157883167,0.0012032885570079088
1772794359053448400,7.124448486328125,-0.014088346622884274,0.005433971062302589,-0.014344511553645134
1772794359063493400,7.134493408203125,-0.01612008363008499,0.009599579498171806,-0.01740729995071888
1772794359073538600,7.14453857421875,-0.01373069453984499,0.007752411067485809,-0.01759372092783451
1772794359083582700,7.154582763671875,-0.01723710261285305,-0.005501776933670044,-0.01492767408490181
1772794359093627400,7.16462744140625,-0.022626008838415146,-0.015059329569339752,-0.0032265433110296726
1772794359103672600,7.174672607421875,-0.02079561911523342,-0.016852967441082,0.008109734393656254
1772794359113717500,7.184717529296875,-0.024012451991438866,-0.015792764723300934,0.01984255760908127
1772794359123761700,7.19476171875,-0.02969297394156456,-0.027422254905104637,0.02327537164092064
1772794359133806600,7.204806640625,-0.03992057591676712,-0.03532811626791954,0.03333785757422447
1772794359143851500,7.2148515625,-0.04719526693224907,-0.0285266675055027,0.04784835875034332
1772794359153895700,7.224895751953125,-0.049100492149591446,-0.03226388245820999,0.058324702084064484
1772794359163940400,7.2349404296875,-0.05446171388030052,-0.04130116105079651,0.055118635296821594
1772794359173985500,7.244985595703125,-0.06934372335672379,-0.054748792201280594,0.046994663774967194
1772794359184030500,7.255030517578125,-0.06740109622478485,-0.04257765784859657,0.04466862604022026
1772794359194074600,7.26507470703125,-0.06165825203061104,-0.027231188490986824,0.046499282121658325
1772794359204119600,7.27511962890625,-0.05075983703136444,-0.023848872631788254,0.0436706617474556
1772794359214164500,7.28516455078125,-0.0380493700504303,-0.026985809206962585,0.03323826193809509
1772794359224208600,7.295208740234375,-0.03837326169013977,-0.03835431486368179,0.020169366151094437
1772794359234253600,7.305253662109375,-0.029894288629293442,-0.04746285825967789,0.01480282936245203
1772794359244298500,7.315298583984375,-0.023615876212716103,-0.04481636732816696,0.013394436798989773
1772794359254343400,7.325343505859375,-0.013149919919669628,-0.03654991835355759,0.021610289812088013
1772794359264387600,7.3353876953125,-0.007757325656712055,-0.027275623753666878,0.021899430081248283
1772794359274432500,7.3454326171875,-0.001377457519993186,-0.0208536759018898,0.02163604460656643
1772794359284477400,7.3554775390625,0.011746600270271301,-0.016140680760145187,0.02332768402993679
1772794359294521600,7.365521484375,0.023690611124038696,-0.0034674955531954765,0.028533365577459335
1772794359304566500,7.37556640625,0.03152301907539368,0.0023962571285665035,0.03327268734574318
1772794359314611500,7.385611572265625,0.03797958791255951,0.011797482147812843,0.023165196180343628
1772794359324656400,7.395656494140625,0.03941497951745987,0.021167010068893433,0.013454812578856945
1772794359334700500,7.405700439453125,0.043656863272190094,0.02104290761053562,-0.0018045678734779358
1772794359344745700,7.415745849609375,0.051306821405887604,0.023735685274004936,-0.012737184762954712
1772794359354790400,7.425790283203125,0.039518341422080994,0.011971969157457352,-0.017761237919330597
1772794359364834600,7.43583447265625,0.03393232822418213,-0.0023311246186494827,-0.017619216814637184
1772794359374879500,7.44587939453125,0.030580740422010422,-0.012346208095550537,-0.019232293590903282
1772794359384924700,7.455924560546875,0.02385343424975872,-0.016605257987976074,-0.009117656387388706
1772794359394969300,7.46596923828125,0.021552730351686478,-0.0024822482373565435,0.009789988398551941
1772794359405013500,7.476013427734375,0.028542840853333473,0.012376977130770683,0.02124299481511116
1772794359415058700,7.48605859375,0.031445153057575226,0.018213560804724693,0.013810912147164345
1772794359425103400,7.496103271484375,0.017515305429697037,0.010197238996624947,-0.009939800947904587
1772794359435147500,7.5061474609375,0.015864944085478783,0.00018029194325208664,-0.024415144696831703
1772794359445192400,7.5161923828125,0.027602016925811768,0.002469705417752266,-0.02623157389461994
1772794359455237600,7.526237548828125,0.037276748567819595,0.010156920179724693,-0.016910776495933533
1772794359465282600,7.536282470703125,0.040163103491067886,0.008430873975157738,-0.013765279203653336
1772794359475326500,7.546326416015625,0.0362250842154026,0.0067517501302063465,-0.014639061875641346
1772794359485371600,7.55637158203125,0.040572986006736755,0.014812287874519825,-0.013465633615851402
1772794359495416600,7.56641650390625,0.0425860658288002,0.022655032575130463,-0.014792686328291893
1772794359505460500,7.57646044921875,0.049248773604631424,0.024007758125662804,-0.024577787145972252
1772794359515505700,7.586505615234375,0.061050038784742355,0.03680397942662239,-0.02564278431236744
1772794359525550600,7.596550537109375,0.062342479825019836,0.04850655049085617,-0.02544182911515236
1772794359535595800,7.606595703125,0.06960119307041168,0.041308823972940445,-0.02719791792333126
1772794359545639400,7.616639404296875,0.055019769817590714,0.03288278728723526,-0.03520753234624863
1772794359555684600,7.6266845703125,0.044374316930770874,0.033458828926086426,-0.03466610983014107
1772794359565729500,7.6367294921875,0.02896146848797798,0.010820676572620869,-0.0364467054605484
1772794359575774500,7.6467744140625,0.019879290834069252,0.0028945766389369965,-0.03830000013113022
1772794359585818600,7.656818603515625,0.018221892416477203,0.009615611284971237,-0.011693260632455349
1772794359595863800,7.66686376953125,0.023701878264546394,0.03383466228842735,0.019894227385520935
1772794359605909000,7.676908935546875,0.024386117234826088,0.04398991912603378,0.03250858187675476
1772794359615952600,7.68695263671875,0.020651832222938538,0.04071236774325371,0.034167200326919556
1772794359625997800,7.696997802734375,0.01541215367615223,0.028453735634684563,0.023602215573191643
1772794359636042800,7.707042724609375,0.011801440268754959,0.015011964365839958,0.00881554652005434
1772794359646088000,7.717087890625,0.01116444356739521,0.007784999907016754,-0.003393523395061493
1772794359656131800,7.7271318359375,-0.0033319410867989063,-0.002603458473458886,-0.012863458134233952
1772794359666176800,7.7371767578125,-0.014492460526525974,-0.010991191491484642,-0.024557549506425858
1772794359676222000,7.747221923828125,-0.013530260883271694,-0.0015763849951326847,-0.01476271077990532
1772794359686265600,7.757265625,-0.015211350284516811,-0.0015070214867591858,0.0030091428197920322
