time,seconds_elapsed,z,y,x
1772794831539143000,0.067142822265625,0.2054962691038847,0.04901069914549589,-0.22466056817593053
1772794831549187800,0.077187744140625,0.15911328811347483,0.03647971887439489,-0.15910452028512953
1772794831559231700,0.087231689453125,0.09203530961871147,0.072002283154428,-0.13381452314071357
1772794831569277000,0.09727685546875,0.02797346407473087,0.12797843739837408,-0.10864965021330862
1772794831579320800,0.10732080078125,-0.05007599028944969,0.13792641543895007,-0.04084448995515704
1772794831589366000,0.117365966796875,-0.10257190120220183,0.14073942703306674,-0.031852059073746206
1772794831599410000,0.127409912109375,-0.08231880224645137,0.1295543084129691,-0.16947649589143693
1772794831609454800,0.137454833984375,-0.05117021526694297,0.10946779819577931,-0.21764486246127634
1772794831619500000,0.1475,-0.14951310059726236,0.08290478544086217,-0.08918675178717822
1772794831629543700,0.157543701171875,-0.3347597778767347,0.166097447912395,0.10034326536729932
1772794831639588900,0.1675888671875,-0.3760217625916004,0.29014760595113037,0.14768869818169622
1772794831649633000,0.177633056640625,-0.2609960380077362,0.3941071621194482,0.14749832670874893
1772794831659678000,0.187677978515625,0.021774609434604644,0.33153175574094057,0.12380517030172049
1772794831669721900,0.197721923828125,0.20835691923201083,0.1336135206758976,0.15048216482512652
1772794831679766800,0.207766845703125,0.17392624184191227,0.031155308981239794,0.13590835361480713
1772794831689810700,0.217810791015625,-0.007682371196150779,0.08264379641711711,0.03425203288756311
1772794831699856000,0.22785595703125,-0.12730302235484123,0.17882804240882397,0.05397862375117838
1772794831709900800,0.23790087890625,-0.09487550148069858,0.2522869541123509,0.12395341966599226
1772794831719945000,0.247945068359375,0.025129765081405638,0.29011779533475635,0.20937683686427772
1772794831729990000,0.257989990234375,0.022539164066314697,0.19714052869081497,0.23879567744173108
1772794831740033800,0.26803369140625,-0.07350713475942611,0.19279168583154677,0.10622487075179815
1772794831750079000,0.278078857421875,-0.03766074535250664,0.4543868587762117,0.3221941646836698
1772794831760123000,0.288122802734375,0.03617781331837177,0.36165056128129364,0.39450587911345064
1772794831770167800,0.298167724609375,-0.011655366480350494,-0.06672273531630635,0.24567834962755442
1772794831780212000,0.3082119140625,0.18777824158370493,-0.2736386619597673,0.3328358971420675
1772794831790257000,0.3182568359375,0.43657004705667496,-0.15496069847866892,0.6223885328747332
1772794831800300800,0.32830078125,0.47146074317395686,-0.13681889258846638,0.8216394778482615
1772794831810346000,0.338345947265625,0.2913818239212036,-0.1471668297320604,0.9054611589383333
1772794831820391000,0.348390869140625,-0.05570668965280055,-0.17080913273468612,0.7316798785250633
1772794831830434800,0.358434814453125,-0.32843174389898777,-0.3286453866496682,0.7017836296942085
1772794831840479700,0.368479736328125,-0.3064852850288152,-0.24853359292820096,0.8582976950947194
1772794831850524000,0.37852392578125,-0.25605273638665677,0.012849398570507764,0.9465811778992413
1772794831860568800,0.38856884765625,-0.235712543669343,0.19605200280174612,0.9815349293153732
1772794831870612700,0.39861279296875,-0.3760223471134901,0.14541238728016614,1.0135358222752808
1772794831880658000,0.408657958984375,-0.6599333967626094,-0.14425050389394165,0.9505826686255633
1772794831890701800,0.418701904296875,-0.8889303684413432,-0.33745997674614187,0.9428376805219799
1772794831900746800,0.428746826171875,-1.006788101580739,-0.298349763237685,0.8013140443086624
1772794831910792000,0.4387919921875,-1.0787485914200543,-0.13761530366316438,0.41308841450847683
1772794831920836000,0.448836181640625,-1.1025684429466724,-0.13295286481007934,0.19724501197859642
1772794831930880800,0.458880859375,-1.0738695872068404,-0.21582404024228452,0.16377908796742557
1772794831940925000,0.468925048828125,-0.9831219793111086,-0.21891981430053709,0.19586787840649483
1772794831950969900,0.478969970703125,-0.887690597513318,-0.14796514050289988,0.14731822090148924
1772794831961013800,0.489013671875,-0.7004021852731704,0.03873874984756112,-0.08915858513861893
1772794831971059000,0.499058837890625,-0.5129425081193447,-0.09781155493259429,-0.1037847841233015
1772794831981102800,0.509102783203125,-0.287421688118577,-0.32751229096651074,0.1147935232631862
1772794831991147800,0.519147705078125,0.040623686811327935,-0.4257334496133029,0.24656959937885403
1772794832001192700,0.529192626953125,0.4418330821514129,-0.4769710310280323,0.2227760513372719
1772794832011236900,0.53923681640625,0.9744979433506726,-0.4972292445503175,0.1424559486273676
1772794832021282000,0.549281982421875,1.3494652284532784,-0.4995771228507161,0.17372005174532532
1772794832031325700,0.55932568359375,1.3810147974491118,-0.5517579764649272,0.31375125744380056
1772794832041371000,0.569370849609375,1.302773619905114,-0.6672964728765189,0.4192025865398347
1772794832051415000,0.5794150390625,1.266648998078704,-0.7094353865563869,0.48061355224885044
1772794832061459700,0.589459716796875,1.1989829905629157,-0.6621762072533368,0.4902211924191564
1772794832071504000,0.59950390625,1.1975251929700375,-0.6082623923666775,0.44514184137322005
1772794832081549000,0.609549072265625,1.2101496967434882,-0.5420777094498277,0.3866659062027931
1772794832091594000,0.619593994140625,1.1600924111545086,-0.6121349960163235,0.46467217901237307
1772794832101638000,0.629637939453125,0.9827484698235988,-0.5586148566223681,0.395838589021936
1772794832111682800,0.639682861328125,0.46615094632804394,-0.6924642318807542,0.4039671696156263
1772794832121726700,0.649726806640625,-0.04153787904679775,-0.8403313188366591,0.4627995900735259
1772794832131772000,0.65977197265625,-0.38490240366160866,-0.8457261636175215,0.3454651501558721
1772794832141815800,0.66981591796875,-0.6088502752572298,-0.8109203693047166,0.22823723935261367
1772794832151861000,0.679861083984375,-0.7412433142274618,-0.8094459859032184,0.1917744716130197
1772794832161905000,0.68990478515625,-0.8816320281267166,-0.8588755680479109,0.30548268385753036
1772794832171949800,0.69994970703125,-1.027362687575817,-0.887480900285393,0.43414223538786173
1772794832181995000,0.7099951171875,-1.102078613603115,-0.8144931862901896,0.42477118045240636
1772794832192038700,0.72003857421875,-1.1106079570174217,-0.7530190191518515,0.3931035380348563
1772794832202083800,0.730083740234375,-1.0698469075620174,-0.6849396815948188,0.4417753606148064
1772794832212128000,0.7401279296875,-0.910456556072831,-0.5857231552351265,0.4658471410758793
1772794832222173000,0.7501728515625,-0.6704004302412271,-0.48847960944883523,0.4411331171885133
1772794832232216800,0.760216796875,-0.4644792137235403,-0.44102392119299616,0.4190627396777272
1772794832242261800,0.77026171875,-0.25499299820065496,-0.39132834505587816,0.30907968543618913
1772794832252305700,0.7803056640625,0.006655950757861137,-0.3430008789341897,0.14768223190829158
1772794832262350800,0.790350830078125,0.27425357898771763,-0.384385430582799,-0.032250703002512454
1772794832272395800,0.800395751953125,0.43235213710069653,-0.47308301061354574,-0.13269713648334144
1772794832282440000,0.81043994140625,0.3791670748800039,-0.5573386261414737,-0.17965382570847868
1772794832292484900,0.82048486328125,0.1812520546853542,-0.5583509449891746,-0.18333806717917323
1772794832302528800,0.83052880859375,-0.0634165333777666,-0.4974168760769069,-0.2161823521606624
1772794832312574000,0.840573974609375,-0.2461690557539463,-0.4114971632616594,-0.2841935198523104
1772794832322617900,0.850617919921875,-0.3357411901295185,-0.35317711277268826,-0.31043314587175846
1772794832332662800,0.860662841796875,-0.34517420438528057,-0.29585597366057337,-0.24708763190358876
1772794832342707000,0.87070703125,-0.3694616734236479,-0.25751329219220204,-0.1670183621495962
1772794832352751900,0.880751953125,-0.4506055866718292,-0.15377684072265402,-0.0683634882606566
1772794832362796800,0.890796875,-0.5038245511621237,-0.08522910020258277,0.013847908088564872
1772794832372841000,0.900841064453125,-0.46289457488059993,-0.0034128406507894396,0.1733520952157676
1772794832382886000,0.910885986328125,-0.4555991571754217,-0.015279036870226264,0.37047143498808144
1772794832392929800,0.9209296875,-0.45816871540248394,-0.04027585975434631,0.49567061693146824
1772794832402974700,0.930974609375,-0.5393640665769577,-0.07739906416404992,0.47034795962646603
1772794832413019000,0.941018798828125,-0.7086316689580678,-0.10798329525906591,0.36791298267692324
1772794832423063800,0.951063720703125,-0.8797311629414558,-0.07850596596002578,0.23393925038650631
1772794832433108000,0.96110791015625,-0.9764625214219093,0.040722324880212546,0.12086743634939193
1772794832443153000,0.97115283203125,-1.0362842451781034,0.09322561538182199,0.048640112267434595
1772794832453198000,0.981197998046875,-1.1244254699677227,0.12978263727612793,0.023895400980859995
1772794832463241700,0.99124169921875,-1.1985656419336794,0.15942480174805967,0.018023805533722043
1772794832473287000,1.001286865234375,-1.2763555685788393,0.16376663034465164,0.020865750961378216
1772794832483331000,1.0113310546875,-1.2902385479807852,0.06052453826330602,0.19212109309360384
1772794832493375700,1.021375732421875,-1.2902163361489771,-0.0633732422253117,0.16232421298399566
1772794832503420000,1.031419921875,-1.3234031509578228,-0.05848393581379205,0.04245981619730591
1772794832513464800,1.04146484375,-1.4868009845227002,-0.04679536118358373,0.01974507636837661
1772794832523508700,1.0515087890625,-1.7030138779520987,-0.05891045413017273,-0.012935031027346848
1772794832533554000,1.061553955078125,-1.716631484416127,0.23798651648331431,-0.1373475195724517
1772794832543597800,1.071597900390625,-1.5952239498406648,0.2547407404726371,0.14887155129071325
1772794832553642800,1.081642822265625,-1.3482792335391043,0.33097218562942,0.2728520781593397
1772794832563687700,1.091687744140625,-1.0788543898820877,0.2684757993038744,0.1355750848061405
1772794832573731800,1.10173193359375,-0.6739262662798166,0.6031175768241286,0.17223558534123
1772794832583777000,1.111777099609375,-0.20883213552832602,0.7032717493601143,0.27507885083071887
1772794832593821000,1.121821044921875,-0.03369476433098316,0.3961069576345384,0.2943097671318799
1772794832603865900,1.131865966796875,0.1864993076890707,0.5476481299933046,0.33397944115400313
1772794832613910000,1.141909912109375,0.5047404969632625,0.5526521488256753,0.13935663090515882
1772794832623954700,1.15195458984375,0.5503133306145668,0.35495661660060285,0.20884163400903344
1772794832633998800,1.161998779296875,0.5445347472131252,0.3727341192230582,0.05968100011125207
1772794832644044000,1.1720439453125,0.49186464877724645,0.4634304353229701,-0.21990429529324174
1772794832654089000,1.1820888671875,0.30319618035554885,0.22952698690220713,-0.5421891339350492
1772794832664132900,1.1921328125,0.3336041781008243,0.5244502828225494,-0.7308318833936005
1772794832674177800,1.202177734375,0.37297289641499515,0.5117429230712354,-0.8903459343276917
1772794832684222000,1.212221923828125,0.3312356954038143,0.5222781264152377,-0.6902659911841154
1772794832694267000,1.222266845703125,0.37475627270042894,0.3262859640419483,-0.8447726622849703
1772794832704310800,1.232310791015625,0.4757558100193739,0.37681313216499984,-0.9695148942410945
1772794832714356000,1.24235595703125,0.9533324057251215,0.5368779488496482,-1.151148933981359
1772794832724399900,1.25239990234375,1.1141221026182173,0.21570180210210382,-0.8807143287599086
1772794832734444800,1.26244482421875,1.2733218999713658,0.055283203543722625,-0.7361192492119968
1772794832744489000,1.272489013671875,1.3930875125586986,-0.07859422876536845,-0.7556358505867421
1772794832754534000,1.282533935546875,1.3394634743988514,-0.24968663542084393,-0.8720936538003384
1772794832764578800,1.292578857421875,1.5259025763332843,0.10204692748002707,-0.918221783246845
1772794832774623000,1.302623046875,1.490902574622631,-0.0259227420900017,-0.5912947448223829
1772794832784668000,1.31266796875,1.4617121359735727,0.061359600847959515,-0.5402021248362958
1772794832794711800,1.3227119140625,1.3795102381050586,0.08278853865005076,-0.5692354732275009
1772794832804757000,1.332757080078125,1.2362193730235098,-0.13945698600709439,-0.302900266148895
1772794832814801000,1.34280078125,1.1136182447493075,-0.2539589059125632,-0.1795209931090474
1772794832824845800,1.352845703125,0.9722837744325399,-0.15163674168772995,-0.11833514139279723
1772794832834890000,1.362889892578125,0.9588011925250292,-0.03339468540586531,-0.12870879749953745
1772794832844935000,1.372934814453125,0.9812328045636415,-0.06285714592933654,-0.1181641687400639
1772794832854979800,1.382979736328125,0.9586609072715043,-0.2065744927946478,-0.01327507663667202
1772794832865023700,1.393023681640625,0.9056330814391375,-0.4102968110285699,0.047019525328278536
1772794832875069000,1.40306884765625,0.7758715600162744,-0.54456550767757,-0.13393771112896502
1772794832885112800,1.41311279296875,0.5562444742292165,-0.6984851726707071,-0.36345329985432323
1772794832895157800,1.42315771484375,0.32592122238278387,-0.819158547752723,-0.5147300491232425
1772794832905202000,1.433201904296875,0.16077274575829506,-0.8884204461578279,-0.6115373954493553
1772794832915246800,1.443246826171875,0.027070962277054786,-0.8760808237403631,-0.6567258328929543
1772794832925290800,1.453290771484375,-0.020891981381177902,-0.8431549979552626,-0.6796047503076493
1772794832935336000,1.4633359375,-0.030838790377974507,-0.861336259073019,-0.6586766016345471
1772794832945380900,1.473380859375,-0.018830957198143004,-0.8838558416560292,-0.6880640241604298
1772794832955424800,1.4834248046875,0.03814765208661556,-0.9542259935639799,-0.6858923061445354
1772794832965470000,1.493469970703125,0.07298983288705349,-1.0349437903545797,-0.6181421274766326
1772794832975513900,1.503513916015625,0.018784195446968077,-1.1004979933481662,-0.6075898268673569
1772794832985558800,1.513558837890625,-0.0442804557532072,-1.1247666846208273,-0.6269168239541352
1772794832995603000,1.52360302734375,-0.10543079776465893,-1.1160329046756028,-0.682715137413144
1772794833005648000,1.53364794921875,-0.1390419754654169,-1.124839384530857,-0.7320760382357985
1772794833015691800,1.54369189453125,-0.10116729510128497,-1.069931297909841,-0.7722694438710809
1772794833025736700,1.55373681640625,-0.047675943410396576,-0.9826906021565198,-0.749723630868271
1772794833035780900,1.56378076171875,-0.011901450195908546,-0.9186381820280104,-0.6198406019575894
1772794833045826000,1.573825927734375,-0.004732289218902588,-0.8617877291675656,-0.5100658567044883
1772794833055871000,1.58387109375,0.005810147583484649,-0.7636885164000093,-0.5130568917466327
1772794833065915100,1.5939150390625,0.03123392717540264,-0.7057941805098206,-0.42937019868046045
1772794833075959800,1.603959716796875,0.10354629919230937,-0.6805179196298122,-0.3586259892957285
1772794833086004000,1.61400390625,0.2190203520655632,-0.647877778918296,-0.2775829060735181
1772794833096049200,1.624049072265625,0.3578624210447073,-0.5583235089929774,-0.21902334774024784
1772794833106093000,1.634093017578125,0.3912970731347799,-0.3360213587777689,-0.11419968555588275
1772794833116138000,1.644137939453125,0.35817397121191025,-0.08581073601543902,-0.049000835338607426
1772794833126182100,1.65418212890625,0.47358255763351914,0.34977877557128667,0.5239147146411239
1772794833136226800,1.664226806640625,0.7143973928779364,0.820778038713336,-0.057572775785624974
1772794833146272000,1.67427197265625,0.5319423921436071,0.4823780777033418,-1.0184590309564023
1772794833156316200,1.684316162109375,0.10080956770479678,0.14381985739171504,-0.292178052332811
1772794833166361000,1.694361083984375,-0.3543266481339931,-0.03106061643511057,-0.5150096332496031
1772794833176405000,1.704405029296875,-0.8415420098006725,-0.2653789292670786,-0.4427225783370435
1772794833186450000,1.714449951171875,-1.0002326885879038,-0.39086598824113605,-0.3421443351700902
1772794833196494000,1.724494140625,-1.1633762551307678,-0.5499368254523724,-0.3247960908103734
1772794833206539000,1.7345390625,-1.3506290115356445,-0.7531818084981292,-0.34349490952882916
1772794833216583000,1.7445830078125,-1.377360951116681,-0.8961837736357003,-0.34657431697417046
1772794833226628000,1.754628173828125,-1.3960422707110642,-1.268240212792903,-0.4319433736367151
1772794833236672000,1.764672119140625,-1.4258499644756317,-1.9277455934017895,-0.5527655460722745
1772794833246717000,1.774717041015625,-1.0870639998227358,-1.931592331957817,-0.029923392566107213
1772794833256761000,1.784760986328125,-0.32519524619579315,-1.5467732226654887,0.33055238931477066
1772794833266805800,1.7948056640625,0.34767361998558044,-1.1565065154917538,0.44927415540497745
1772794833276851000,1.804850830078125,0.8393599895864725,-0.5979366670548916,0.27801362564098087
1772794833286895000,1.81489501953125,0.8455442311793565,-0.35182942449077964,0.1000316238685511
1772794833296940000,1.82493994140625,0.577525162667036,-0.2933941866569221,0.01148028390808031
1772794833306984000,1.83498388671875,0.3685907358080148,-0.2418364333771169,-0.061061732146237044
1772794833317029000,1.845029052734375,0.1790267798513174,-0.1491283390633762,-0.10409054387053474
1772794833327073000,1.855072998046875,0.012435703203082083,-0.07440759073048829,-0.11374258943814784
1772794833337118000,1.865117919921875,-0.12277940745055675,0.021024083328247067,-0.11493212801627814
1772794833347162000,1.875162109375,-0.2532663205385208,0.07193389409333467,-0.08690174612253904
1772794833357207000,1.88520703125,-0.4940273797690868,0.18854571882486343,-0.0187789347499609
1772794833367252000,1.895251953125,-0.6250432851672172,0.4055103074043989,-0.022135697831958533
1772794833377296000,1.9052958984375,-0.6131733991533518,0.5792250984527171,0.03086012542694807
1772794833387341000,1.915341064453125,-0.640844080889225,0.766015644173324,0.05529230016563087
1772794833397385000,1.925385009765625,-0.614845716279745,1.003123441593349,0.07741086419969796
1772794833407430000,1.935429931640625,-0.5709662425428629,1.2527104890972376,0.13825455141477286
1772794833417474000,1.94547412109375,-0.5278910709261894,1.4040645413860677,0.23082858928637578
1772794833427519000,1.95551904296875,-0.41107963196933267,1.453024094866216,0.37001726147979497
1772794833437563000,1.96556298828125,-0.2452759063065052,1.496053673775494,0.467023308715783
1772794833447608000,1.975608154296875,-0.03367781319618225,1.5306041781529782,0.5319795823488385
1772794833457652000,1.98565185546875,0.11380816548764705,1.47384885623008,0.605980711170286
1772794833467697000,1.99569677734375,0.27278350643515586,1.381471309044957,0.6235781810507178
1772794833477742000,2.0057421875,0.4712023844987154,1.3539191391222178,0.5667505245439708
1772794833487786000,2.015785888671875,0.6585702917158603,1.444824567928165,0.5344109011489898
1772794833497831200,2.0258310546875,0.8385112638026475,1.5135063283577561,0.5735576838081702
1772794833507875000,2.035875,1.000448961687088,1.4399457098454236,0.6205158708706497
1772794833517920000,2.045919921875,1.1342132890105248,1.2512021303609013,0.6740403941787779
1772794833527964000,2.0559638671875,1.061962291792035,0.9863441562280059,0.6462590916752815
1772794833538008800,2.0660087890625,0.9560843347817659,0.8405334172800183,0.45163295695818956
1772794833548053000,2.076052978515625,0.7984037098199128,0.675267670951411,0.29506458582086487
1772794833558098200,2.08609814453125,0.5383464139670133,0.5271610030859708,0.232881064836774
1772794833568141800,2.096141845703125,0.3295294760078192,0.41168906910456715,0.1085299328237772
1772794833578187000,2.10618701171875,0.21964052979052065,0.347298137736693,-0.014508326492365449
1772794833588232000,2.11623193359375,0.15322072294354439,0.2581215785499662,-0.07404710512133315
1772794833598275800,2.12627587890625,0.11249123767018318,0.14511376965977252,-0.06086019995845854
1772794833608321000,2.136321044921875,0.09745616562366485,0.09612608606368303,-0.023581110867299138
1772794833618365000,2.146364990234375,0.052145782300829883,0.08455459847450256,-0.012020656128786503
1772794833628410000,2.15641015625,0.02123451120853424,0.09123846015259623,-0.04053180727679282
1772794833638454000,2.1664541015625,-0.025250761112570762,0.16507431540973483,-0.06548537554107606
1772794833648499000,2.1764990234375,-0.0558574963003397,0.31792065208293496,-0.08005571615267544
1772794833658542800,2.18654296875,-0.06005085633695125,0.43218635207973416,-0.04235756139922887
1772794833668588000,2.196588134765625,-0.13957447490692138,0.4026089964723214,0.0578472499120282
1772794833678632000,2.2066318359375,-0.28640520455241203,0.32406039694696664,0.1382537659634836
1772794833688677000,2.216677001953125,-0.5405202508747577,0.22207610464068128,0.09801118742423132
1772794833698721800,2.2267216796875,-0.7151712998598814,0.19337640865063294,-0.055121108317188916
1772794833708766000,2.236765869140625,-0.7770330050110816,0.0941063254727982,-0.23170992043185978
1772794833718811100,2.24681103515625,-0.6877297507047653,-0.006955043302290141,-0.3348545800207183
1772794833728854800,2.256854736328125,-0.541763528934121,-0.049898304768139494,-0.3226217424459755
1772794833738900000,2.26689990234375,-0.4320148679703474,-0.19423737286152318,-0.23765640774611382
1772794833748944100,2.276944091796875,-0.33443419918417927,-0.38944885145220903,-0.13569372448343783
1772794833758989000,2.286989013671875,-0.25821429833471776,-0.5488026703232899,-0.0827145235657692
1772794833769033000,2.297032958984375,-0.17848726614713667,-0.6521053334854543,-0.05867120201420038
1772794833779078000,2.307077880859375,-0.11133622241616248,-0.6687617231234908,0.0011355433685705065
1772794833789122000,2.3171220703125,-0.06500409483015537,-0.71154638736099,0.16313176650721578
1772794833799167000,2.3271669921875,-0.0064461073994636535,-0.7961085846200585,0.33117201905045657
1772794833809212000,2.3372119140625,0.06964636767804622,-0.9690078215017914,0.43335601691361514
1772794833819256000,2.347256103515625,0.12532090862691403,-1.1466068335723132,0.4571375091912225
1772794833829301000,2.357301025390625,0.15379823057055472,-1.3065835335820912,0.43317375568188726
1772794833839345000,2.367344970703125,0.1862894643306732,-1.4149498002767562,0.39784152634218334
1772794833849390000,2.37739013671875,0.14763795437514782,-1.4969906623646616,0.4619247434677556
1772794833859434000,2.38743408203125,0.10429214912354945,-1.5081899556405842,0.5818796315494924
1772794833869479000,2.39747900390625,0.034571547165513035,-1.4100370399244129,0.660602820456773
1772794833879523000,2.407523193359375,-0.008532266023755073,-1.2512944848194718,0.687198347241804
1772794833889568000,2.417568115234375,-0.044159459722042084,-1.1009393073748797,0.6991537195820361
1772794833899612000,2.42761181640625,-0.09188742558062075,-1.0157034486379475,0.6869163884952664
1772794833909657000,2.437656982421875,-0.15651976448893545,-0.9265018280752003,0.6628903468720615
1772794833919702000,2.447701904296875,-0.2483691961467266,-0.8139069108348339,0.6286852218661457
1772794833929746000,2.457745849609375,-0.3531698793143034,-0.7427168939113616,0.6311999081008136
1772794833939790800,2.467790771484375,-0.4014578171432018,-0.7051832820698618,0.6703652127973735
1772794833949835000,2.4778349609375,-0.44361353582739826,-0.7045181692246347,0.7090085394464433
1772794833959880000,2.4878798828125,-0.46010231381356714,-0.6681161186963319,0.7524075361900031
1772794833969924000,2.497924072265625,-0.44999300773143763,-0.6478660884805023,0.7498971608042716
1772794833979969000,2.507968994140625,-0.4450988059490919,-0.6498684412788599,0.7331308810509741
1772794833990013000,2.518012939453125,-0.40482700131535526,-0.6482403286203742,0.6931782253690063
1772794834000057900,2.528057861328125,-0.3826467336893081,-0.6069161653894931,0.5895701860520989
1772794834010102000,2.53810205078125,-0.47031566479206083,-0.5879644678885116,0.5225614368686452
1772794834020147200,2.548147216796875,-0.5884200661689043,-0.6270061096727848,0.5488806309303268
1772794834030190800,2.55819091796875,-0.6748112324208021,-0.7245126903094351,0.5921866521608085
1772794834040236000,2.568236083984375,-0.7138631398707628,-0.793472025571391,0.5617774123065173
1772794834050280400,2.578280517578125,-0.741406980356574,-0.7561861048806459,0.33751353356428443
1772794834060324000,2.588323974609375,-0.8811270012140273,-1.002295466336608,0.18815419875662773
1772794834070369300,2.598369384765625,-1.016066217535734,-1.2682618401028216,0.2694320771154016
1772794834080413400,2.608413330078125,-1.050320953837037,-1.3215268356919287,0.31114399755485356
1772794834090458400,2.618458251953125,-1.0088941339492796,-1.091356436319649,0.15788699772153048
1772794834100502300,2.628502197265625,-0.955420317915082,-0.8282004437990487,0.30673867526799437
1772794834110547200,2.638547119140625,-0.8677046250611543,-0.5633526622666045,0.5929393336916342
1772794834120591000,2.648591064453125,-0.7577753468334675,-0.3013238471450284,0.8225074197892099
1772794834130636300,2.65863623046875,-0.6536842732399701,0.002586481962399557,0.842188564075902
1772794834140680200,2.66868017578125,-0.590790886953473,0.05999803930432535,0.8717020971994847
1772794834150725400,2.678725341796875,-0.390879139983654,0.4128669537775218,1.0645840185977518
1772794834160770300,2.688770263671875,-0.2150771673977375,0.6093642161287367,1.139298337189853
1772794834170814200,2.698814208984375,-0.04646715214252472,0.6580772475019097,1.1226150595448912
1772794834180859400,2.708859375,0.10810615445375442,0.6941113415006548,1.179539016032964
1772794834190903300,2.7189033203125,0.2025245598167181,0.6751072927579284,1.0214150312177837
1772794834200948200,2.7289482421875,0.18810440479815005,0.5308240556381643,0.9044080696888267
1772794834210992400,2.738992431640625,0.14467735100388526,0.5110386107267811,0.6756801972750573
1772794834221037300,2.749037353515625,0.1152963582187891,0.5127191476922482,0.24033024833155794
1772794834231081200,2.759081298828125,0.15568565175235272,0.48471141602173445,-0.09456110176928341
1772794834241126400,2.76912646484375,0.26854630725681783,0.5021062760021537,-0.23394244699059052
1772794834251170300,2.77917041015625,0.43684652591049666,0.563089444753155,-0.28575187347652387
1772794834261215200,2.78921533203125,0.6133902567744255,0.5768333810105919,-0.23644661183124407
1772794834271259400,2.79925927734375,0.7497171280622482,0.5660908915914595,-0.11549644736815243
1772794834281304300,2.80930419921875,0.8870815257042646,0.5441726359024643,-0.005985832943953573
1772794834291349200,2.819349365234375,1.0001648840487003,0.4854412281336263,0.031154231269005683
1772794834301393200,2.82939306640625,1.0449421834081412,0.4587476843342185,0.05991356675811112
1772794834311438300,2.839438232421875,1.0889105044722556,0.42667942522652447,0.058142337568197394
1772794834321482200,2.849482177734375,1.1015671569496392,0.4052761333223432,0.021999686894752082
1772794834331527200,2.859527099609375,1.070062011617422,0.43353433262258767,-0.053979116941522805
1772794834341571300,2.8695712890625,0.985640684133768,0.45514790627658364,-0.023825285753561184
1772794834351616300,2.8796162109375,0.9297089535534381,0.506660651370883,0.11466600615968928
1772794834361660200,2.88966015625,0.857210703575611,0.509563167879358,0.2542893251770176
1772794834371705300,2.899705322265625,0.7530319516986608,0.4899596554061398,0.22564581635361536
1772794834381749500,2.90974951171875,0.645901948800683,0.4585743005286902,0.17561691660890355
1772794834391794200,2.919794189453125,0.5344534981817006,0.377828994676657,0.15408720357976852
1772794834401839400,2.92983935546875,0.37509646444022654,0.31661775279082355,0.13954378750771285
1772794834411883300,2.93988330078125,0.17826280974149702,0.2553902538899332,0.17315896553015336
1772794834421928200,2.94992822265625,0.02341828498840332,0.2593773507647216,0.2185154347507283
1772794834431972400,2.959972412109375,-0.04627250635325909,0.3057273610672913,0.28333116740193215
1772794834442017300,2.970017333984375,-0.06007014555931091,0.29875293721109625,0.3803289947988465
1772794834452061200,2.980061279296875,-0.04141688301563263,0.29029232991775494,0.4801385186156258
1772794834462106000,2.990106201171875,-0.014552256965637207,0.2824171760958619,0.5578687874954193
1772794834472150300,3.000150390625,0.03812134860157966,0.26108568905256685,0.5857518698729575
1772794834482195500,3.010195556640625,0.13147592412531375,0.16416921979617327,0.617390213130787
1772794834492239400,3.0202392578125,0.2265530856579542,0.025291494981758294,0.6261592105198651
1772794834502284300,3.0302841796875,0.30432898377776146,-0.11916141788279637,0.5860390893165022
1772794834512328400,3.040328369140625,0.37737434624433513,-0.22738630334539336,0.5432219110488892
1772794834522373000,3.050373046875,0.41725919738709927,-0.3645305006317794,0.47752150451764463
1772794834532418300,3.060418212890625,0.48115620775818824,-0.4205261998264119,0.4160907015969977
1772794834542462500,3.07046240234375,0.5330325254678726,-0.3336437063936144,0.15693431837288663
1772794834552507100,3.080507080078125,0.5109346754282713,-0.506323126512207,0.2007241593312472
1772794834562551300,3.09055126953125,0.5773848774135112,-0.5665510564491153,0.13745428614886476
1772794834572596200,3.10059619140625,0.5419160891473292,-0.7095697535257786,0.12701910911323502
1772794834582640000,3.11064013671875,0.5220137033253908,-0.9439712876617908,0.20843458757810293
1772794834592685300,3.120685302734375,0.45663376092016694,-1.0685137592621148,0.2645840525623411
1772794834602729200,3.130729248046875,0.3563976091891527,-1.1504929542906581,0.2998336085872724
1772794834612774400,3.1407744140625,0.24552725071907042,-1.1866377421222627,0.34388865808676927
1772794834622818300,3.150818359375,0.23729484442472457,-1.1267018904671073,0.3377536259304732
1772794834632863200,3.16086328125,0.24191958161592483,-0.9307887116141617,0.19083379322942345
1772794834642907400,3.170907470703125,0.22107377746403217,-0.8381554361023008,0.15640033936034886
1772794834652952300,3.180952392578125,0.14631459681689737,-0.8172794560078531,0.2856322474185377
1772794834662997200,3.190997314453125,0.09739479082524775,-0.7387735631130635,0.4082666934404522
1772794834673041400,3.20104150390625,0.025818331867456433,-0.642301440090686,0.4744759262766689
1772794834683086300,3.21108642578125,-0.07427578104436397,-0.5424161841565742,0.5183867449998856
1772794834693130200,3.221130126953125,-0.1554728857845068,-0.38110754142329095,0.5283916773920878
1772794834703175400,3.231175537109375,-0.2331844864964485,-0.26534687189469114,0.5897950077839196
1772794834713219000,3.241218994140625,-0.24437165094316005,-0.20302149475449696,0.6685458153504877
1772794834723264300,3.25126416015625,-0.25014906530082226,-0.1783465973011218,0.7210941871028393
1772794834733308400,3.261308349609375,-0.2516512865573168,-0.14844181810393928,0.6600051468245685
1772794834743353300,3.271353271484375,-0.22727906184494495,-0.2051228144153021,0.5208612088220194
1772794834753397200,3.281397216796875,-0.17147358799278736,-0.3433870287075639,0.3724821537559852
1772794834763442200,3.291442138671875,-0.055959787631034846,-0.5041854934290051,0.23706821432830766
1772794834773487400,3.3014873046875,0.07807926498055458,-0.6573650075793266,0.05855476342714391
1772794834783531300,3.31153125,0.19573475354611872,-0.8181922600038349,-0.1439061383025255
1772794834793576200,3.321576171875,0.23799627069234847,-0.9182908298950642,-0.35715814523287115
1772794834803620400,3.331620361328125,0.26003216141164304,-0.9609957799598574,-0.4660582265432924
1772794834813665300,3.341665283203125,0.25959376999437805,-1.0309473411295562,-0.4964799605529755
1772794834823709200,3.351709228515625,0.26526012519299985,-1.0423096429474652,-0.5327845785887911
1772794834833754400,3.36175439453125,0.24440906034409998,-0.9969344507601111,-0.5759012147270143
1772794834843798300,3.37179833984375,0.12401567124724387,-0.9855782133568077,-0.6781347508203238
1772794834853843200,3.38184326171875,-0.10175473960041999,-1.0127927488230168,-0.7337423640128224
1772794834863887400,3.391887451171875,-0.33429566749632356,-0.9980765334673225,-0.7948177410919218
1772794834873932300,3.401932373046875,-0.5420277328282594,-0.9220696908466517,-0.8762493121750652
1772794834883976200,3.41197607421875,-0.6752502083599567,-0.8012602682948112,-0.9237763486340641
1772794834894021400,3.422021484375,-0.7516957346588373,-0.6512042199272662,-0.8715512174867093
1772794834904065300,3.432065185546875,-0.7792547727137804,-0.47585072176121174,-0.8379647358357906
1772794834914110200,3.442110107421875,-0.7646323731213808,-0.4217200857860967,-0.7523788946174085
1772794834924155100,3.452155029296875,-0.7136842761725187,-0.49240693896040316,-0.6067832597248256
1772794834934199300,3.46219921875,-0.7378139243006706,-0.6464753647744655,-0.45519043024405836
1772794834944244500,3.472244384765625,-0.7521107452005148,-0.7913133131675422,-0.36256413246225566
1772794834954288000,3.4822880859375,-0.6971084044247865,-0.868031665058434,-0.42935679120961573
1772794834964333300,3.492333251953125,-0.59430269446671,-0.8609425105150789,-0.5164030969019979
1772794834974377500,3.50237744140625,-0.501203555008769,-0.8042910142928361,-0.5615688841223716
1772794834984422100,3.512422119140625,-0.5059603941470384,-0.703965138451755,-0.5073239010525867
1772794834994466300,3.52246630859375,-0.6224725578963756,-0.5541286511190235,-0.32385048052333293
1772794835004511200,3.53251123046875,-0.7539134107083082,-0.29258234055107457,-0.12762867411263287
1772794835014555100,3.54255517578125,-0.8627882114470005,-0.0038296686902176587,0.09635558397062122
1772794835024600300,3.552600341796875,-0.9373889866620302,0.3085487568972632,0.26895569177530704
1772794835034644500,3.56264453125,-0.9282102394282817,0.6316667218949645,0.44416813750285655
1772794835044690000,3.57268994140625,-0.8250614151209592,0.9726344145011157,0.5543958506878465
1772794835054734800,3.58273486328125,-0.5614964034080505,1.2023078972019254,0.62184193184264
1772794835064778800,3.59277880859375,-0.2231727955698967,1.3121060963958502,0.695361853018403
1772794835074824000,3.602823974609375,-0.00737082102894783,1.172318563260138,0.7628380370505153
1772794835084867800,3.612867919921875,0.27535774083733555,0.98598445607014,0.6530113424144685
1772794835094913000,3.6229130859375,0.5429337417572736,0.7865892803203314,0.5655864492006599
1772794835104957000,3.63295703125,0.6969821476966143,0.5703017872847617,0.5283226672764867
1772794835115001900,3.643001953125,0.7171113280117511,0.3922288010269403,0.48536914927810426
1772794835125046000,3.6530458984375,0.6068582246571779,0.2903055912581272,0.4155767607254907
1772794835135091000,3.663091064453125,0.43024318212270735,0.19738621054757385,0.4001810386730358
1772794835145134800,3.673134765625,0.2274941659003496,0.11338391219358891,0.38276948328614235
1772794835155180000,3.683179931640625,0.051630818516016,0.04183313566632568,0.39541948682703076
1772794835165224000,3.693223876953125,-0.09228782307505608,0.02572400464750826,0.4465608413256705
1772794835175268900,3.703268798828125,-0.17434592855870723,0.05939531503766775,0.5092084726901724
1772794835185314000,3.71331396484375,-0.21042729576528071,0.15975724857281892,0.638466976494342
1772794835195357700,3.723357666015625,-0.197160986956954,0.35655239789206533,0.8302461973477154
1772794835205403000,3.73340283203125,-0.10737667113542557,0.5418871553137898,1.0376689044695346
1772794835215447000,3.743447021484375,-0.011184826359152793,0.6929726197943091,1.2199356160901487
1772794835225492000,3.753491943359375,0.02543547002971172,0.7648171551037579,1.3607907784573734
1772794835235536000,3.763535888671875,0.02338029106557369,0.8029581582538783,1.4612762287743388
1772794835245580800,3.773580810546875,0.00033960721790790555,0.9021278497971594,1.4857394927710295
1772794835255625000,3.783625,-0.006063830083608627,0.9776289348527789,1.3934000856392084
1772794835265670000,3.793669921875,-0.01973988873660564,1.0277927495561539,1.2081182639811188
1772794835275714000,3.803714111328125,0.007518705067038536,0.9690352940306067,1.0372998519614338
1772794835285759000,3.813759033203125,0.08501987789869309,0.8544204152699559,0.8373655278336256
1772794835295803000,3.823802978515625,0.1995002435594797,0.6774035870015621,0.7685888556621968
1772794835305847800,3.833847900390625,0.35403730979859827,0.5388341244187206,0.7161323999769985
1772794835315893000,3.84389306640625,0.48599604900479315,0.46010030451957135,0.6764644064553081
1772794835325937000,3.85393701171875,0.6159224056005478,0.45523441551625726,0.7368018246486783
1772794835335981800,3.86398193359375,0.6691314332187175,0.4852814709946513,0.824292257379368
1772794835346026000,3.87402587890625,0.6500754350930452,0.532970310419239,0.9237078865077346
1772794835356071000,3.88407080078125,0.5610995130449533,0.5999109262699261,0.9387418625757098
1772794835366114800,3.89411474609375,0.4425567202508449,0.6646971040330827,0.9116672470368444
1772794835376160000,3.904159912109375,0.3035170828729868,0.6992810722887516,0.8619871972624212
1772794835386204000,3.914203857421875,0.17476678431928155,0.7059722404904664,0.8408511049270629
1772794835396248800,3.924248779296875,0.117348030051589,0.7330087159760296,0.8177372097127139
1772794835406293000,3.93429296875,0.13141922550201415,0.8122601665411144,0.8255493447683752
1772794835416338000,3.944337890625,0.17358721914589403,0.7894066758286208,0.8885146272473037
1772794835426381800,3.9543818359375,0.18937749347388744,0.7100557104118168,0.8656443315304815
1772794835436426800,3.9644267578125,0.25241408762335776,0.5990360065989196,0.771430801089853
1772794835446471000,3.974470947265625,0.3733206869393587,0.43137412238139655,0.6420390628274529
1772794835456515800,3.984515869140625,0.5013467628717422,0.22913787798676638,0.5402489231200889
1772794835466559000,3.99455908203125,0.6412807187408208,0.004640263553895056,0.4882305300585925
1772794835476603000,4.004602783203125,0.6858464211761951,-0.1603359435099177,0.4411516757585108
1772794835486647800,4.014647705078125,0.660038610702753,-0.312331161512807,0.35609866277519614
1772794835496692000,4.02469189453125,0.6026198564350604,-0.3599457301247865,0.28156523544164375
1772794835506737000,4.03473681640625,0.5040203659951686,-0.3482235820185393,0.19460505539644507
1772794835516781800,4.04478173828125,0.40630408813059327,-0.35499972508996724,0.1813423998499289
1772794835526826000,4.054825927734375,0.34152035805284975,-0.3803038968902081,0.12967036340753546
1772794835536871000,4.064870849609375,0.28304829533994197,-0.4481557823669165,0.09347154383375308
1772794835546914800,4.074914794921875,0.23971534956991672,-0.5509658397065476,0.06387356556341983
1772794835556959700,4.084959716796875,0.20836919419169425,-0.6824792828306555,0.020352837569755502
1772794835567004000,4.09500390625,0.1949824738740921,-0.8355152968570589,0.007423537596873938
1772794835577049000,4.105049072265625,0.2765846522837877,-0.918383988071233,0.018806119584408587
1772794835587093000,4.115093017578125,0.3650099547117948,-0.9889652985118329,0.06823114428499248
1772794835597138000,4.125137939453125,0.4161094428300857,-1.0211572570644318,0.1788810512376949
1772794835607181800,4.135181884765625,0.43003509232997894,-0.974968337341398,0.31084965425077826
1772794835617226800,4.145226806640625,0.4025929586529732,-0.831338814890012,0.4184887026494369
1772794835627271000,4.15527099609375,0.25731121201515195,-0.6141816994130611,0.5616513017088175
1772794835637316000,4.165316162109375,0.07619476640820502,-0.39613395523931827,0.6382564024835825
1772794835647359700,4.17535986328125,-0.07340542795062065,-0.22326233701687304,0.713618517459929
1772794835657405000,4.185405029296875,-0.25505612656474114,-0.08354077265630476,0.8238158720392733
1772794835667449900,4.195449951171875,-0.39031040018498897,0.004367721089674159,0.8682824249491095
1772794835677493800,4.20549365234375,-0.4420259743750095,0.03404293844783678,0.8405817864663898
1772794835687539000,4.2155390625,-0.5062380420446395,-0.026839856934919953,0.791621356203407
1772794835697582800,4.225582763671875,-0.5459691639304161,-0.10343896636031567,0.7076569787070155
1772794835707628000,4.2356279296875,-0.5897942771315574,-0.24496123260045422,0.6741298990931361
1772794835717672000,4.245671875,-0.6175047063559294,-0.35183304121997205,0.6575026624843477
1772794835727716900,4.255716796875,-0.6374854181110858,-0.4940024645235389,0.5924460337493568
1772794835737761000,4.265760986328125,-0.6382540643960237,-0.6674152769505978,0.4012579837221652
1772794835747806000,4.275805908203125,-0.5833592756479978,-0.8359675706692039,0.11545116518801078
1772794835757849900,4.285849853515625,-0.5186421810656786,-1.0289306675449013,-0.15260480126859619
1772794835767895000,4.29589501953125,-0.4972521870344877,-1.249592210946232,-0.35020299233272667
1772794835777939000,4.30593896484375,-0.5259352606832981,-1.4292463289156556,-0.4917386112447828
1772794835787984000,4.31598388671875,-0.6353805547863245,-1.503980813512951,-0.544930468532443
1772794835798029000,4.326029052734375,-0.7952204036086797,-1.4816944551639257,-0.5277514797924087
1772794835808072700,4.33607275390625,-1.0479314283519983,-1.371724991056323,-0.45098950795549897
1772794835818119000,4.346118896484375,-1.3328461020857094,-1.2138153796441853,-0.36065775085166096
1772794835828162800,4.356162841796875,-1.6012877799242733,-0.9849039673570543,-0.24139577693752942
1772794835838208000,4.3662080078125,-1.9184581250965593,-0.7268134415324777,-0.07905682304212823
1772794835848252000,4.376251953125,-2.227434642419219,-0.43232612587660546,0.07252587777026928
1772794835858296800,4.386296875,-2.4102485395938156,-0.0678822806149721,0.11899070095838978
1772794835868341000,4.396341064453125,-2.4061223995745182,0.2995985759886913,0.194598095932696
1772794835878386000,4.406385986328125,-2.292247014069557,0.5589270643766969,0.29155707089025523
1772794835888429800,4.416429931640625,-2.0052818375468253,0.8623421481799334,0.3032609709537588
1772794835898475000,4.42647509765625,-1.6555337493747473,1.1051620396364479,0.2107317220719531
1772794835908519000,4.436518798828125,-1.1447259151965379,1.3842955726854502,0.11249326523048803
1772794835918563800,4.446563720703125,-0.6293120485275984,1.6673855152100323,0.13563034039102495
1772794835928608800,4.45660888671875,-0.23266484653651712,1.7876228369623421,0.23107918478026984
1772794835938653000,4.46665283203125,0.0983300258487463,1.758344427768886,0.25692374706752596
1772794835948697900,4.47669775390625,0.4504015885323286,1.7169254989266394,0.12576141893602907
1772794835958742000,4.486741943359375,0.8092009981662035,1.6576802598841487,-0.14095566359963269
1772794835968787000,4.496786865234375,1.0501187092632054,1.4675596929579973,-0.423965270897001
1772794835978830800,4.506830810546875,1.2180366506010294,1.2348995225965975,-0.5968130698524415
1772794835988875800,4.516875732421875,1.3184259470671416,0.9892649390455335,-0.766232209533453
1772794835998920000,4.526919921875,1.305078974238038,0.7801854776926338,-0.8578130533829331
1772794836008965000,4.536965087890625,1.2581225772738456,0.6612668373234569,-0.9681510585419834
1772794836019008800,4.5470087890625,1.1798346379786728,0.6160244777355343,-1.0538577496610582
1772794836029054000,4.557053955078125,1.1179250020325182,0.543731321875751,-1.1476823538493364
1772794836039098000,4.56709814453125,1.1617425164490938,0.5285937393028288,-1.2702698189243673
1772794836049142000,4.57714208984375,1.2842127118200064,0.5574062114849686,-1.2748831579387188
1772794836059187200,4.587187255859375,1.3858312578201293,0.5156681336909532,-1.1502916595648973
1772794836069231400,4.5972314453125,1.4324170679062604,0.45562560679093,-1.0344187435671686
1772794836079276000,4.607276123046875,1.4136252736747263,0.43725021134056147,-0.9501414276640862
1772794836089320200,4.6173203125,1.304411450240016,0.44291481297351415,-0.9194733907431364
1772794836099365000,4.627365234375,1.2030378189116715,0.4937093998610973,-0.8596656955122948
1772794836109409000,4.637408935546875,1.0895336048066615,0.597862286644429,-0.7382888483360409
1772794836119454200,4.6474541015625,1.011073816075921,0.7183311521302909,-0.47252223492562767
1772794836129498400,4.657498291015625,0.9533885198265314,0.8524007460106163,-0.24255839097611603
1772794836139543000,4.66754296875,0.8002893774360418,0.9234043004512786,-0.10391337893903255
1772794836149587200,4.677587158203125,0.5963046819388866,0.9444885164689272,-0.02264262444078922
1772794836159632100,4.687632080078125,0.41670156350433823,0.9397535238362849,0.030768136294558643
1772794836169676000,4.697676025390625,0.2907943794220686,0.8181716556072235,0.028784122870489953
1772794836179721200,4.70772119140625,0.20240005665421484,0.6655658496916294,-0.014817410707846283
1772794836189765000,4.71776513671875,0.14124036229252815,0.46114378569051623,-0.10060951508805155
1772794836199810300,4.727810302734375,0.10263736765384673,0.23813973428364843,-0.14701624228022991
1772794836209854200,4.737854248046875,0.13296645494401454,0.08115479996837675,-0.23543825677260755
1772794836219899100,4.747899169921875,0.20142039796710012,-0.0816155493479222,-0.3092804687052965
1772794836229944300,4.7579443359375,0.2974316254794597,-0.2337458284399472,-0.3836758575413376
1772794836239988000,4.767988037109375,0.36477731499969956,-0.3658725263578817,-0.40880839910171923
1772794836250033200,4.778033203125,0.34888241125345226,-0.5205844377072528,-0.3743821786910295
1772794836260077300,4.788077392578125,0.3429302248507738,-0.6189928990870713,-0.38101211822479963
1772794836270122000,4.7981220703125,0.32769466179609297,-0.6592988982513547,-0.37138555415831503
1772794836280166100,4.808166259765625,0.30406828701496125,-0.6660412851836532,-0.34117892420403656
1772794836290211300,4.81821142578125,0.28261750270724295,-0.6765987734246999,-0.35014914325363933
1772794836300255000,4.8282548828125,0.2884451859474182,-0.677024743751809,-0.39224604442268607
1772794836310300200,4.838300048828125,0.22906536073982714,-0.6783227476730942,-0.4086043278969824
1772794836320344300,4.84834423828125,0.16382336550056933,-0.6944026525974273,-0.42741584974229335
1772794836330389200,4.85838916015625,0.09994447530806064,-0.678888272601366,-0.4333880560196936
1772794836340433200,4.86843310546875,0.05239654219150543,-0.6407802218727767,-0.44116358539201317
1772794836350478000,4.87847802734375,0.059822892799973486,-0.5469042162908241,-0.4300185795865953
1772794836360522200,4.888522216796875,0.09382570016682147,-0.45123676071483637,-0.39561237905062735
1772794836370567200,4.898567138671875,0.1798544628471136,-0.3684582685347646,-0.3499863539073616
1772794836380612000,4.908612060546875,0.25909692638814447,-0.30988972317744046,-0.3068523647755384
1772794836390656300,4.91865625,0.2579290516525507,-0.2924200261288322,-0.2694007321290672
1772794836400701000,4.928700927734375,0.2818786670386791,-0.2342282233957201,-0.2727211087234318
1772794836410745000,4.9387451171875,0.26817805846631526,-0.19117621345892546,-0.2816240346904844
1772794836420790300,4.948790283203125,0.2429664603203535,-0.23676062795016914,-0.29153694141767916
1772794836430834200,4.958834228515625,0.22044658547639845,-0.31833284961301833,-0.3472508645288646
1772794836440879000,4.968879150390625,0.16137363426089285,-0.39341037549432367,-0.46069173107407985
1772794836450923300,4.97892333984375,0.08079027750492096,-0.4601248179063201,-0.5899723371122032
1772794836460968200,4.98896826171875,0.032118308794498444,-0.5138155280942097,-0.7271610128611325
1772794836471012000,4.99901220703125,-0.03462006248235702,-0.5478464290443807,-0.8320547811396419
1772794836481057300,5.009057373046875,-0.17677695509791372,-0.6170435916502028,-0.9171255124427378
1772794836491101200,5.01910107421875,-0.3362035469442606,-0.5925974249187856,-1.0135755697637796
1772794836501146000,5.02914599609375,-0.49109307988286016,-0.5737394335832446,-1.0744389845926314
1772794836511190300,5.039190185546875,-0.6075526366621256,-0.5543127755142748,-1.0754884936455638
1772794836521235200,5.049235107421875,-0.6233271288990974,-0.49945108531825244,-0.9948927888646721
1772794836531279000,5.059279052734375,-0.6248129835426807,-0.39160803878009315,-0.8869866870276629
1772794836541324000,5.069323974609375,-0.586672930240631,-0.29253011717349287,-0.80526760424003
1772794836551369200,5.079369140625,-0.5812766241550446,-0.22097875612433998,-0.7663849889423697
1772794836561413000,5.0894130859375,-0.6098375327289104,-0.23480116444546728,-0.6940702788379043
1772794836571458000,5.0994580078125,-0.6186544609129428,-0.31504874990843235,-0.5576229960408061
1772794836581502200,5.109502197265625,-0.5849146883964538,-0.41643345062006265,-0.3311647490594536
1772794836591547100,5.119547119140625,-0.5038116916805505,-0.5273511918958276,-0.2233303242191672
1772794836601591000,5.129591064453125,-0.48023850839138027,-0.5626482403242961,-0.16625336912646888
1772794836611636200,5.13963623046875,-0.6177811852097511,-0.4655286497112363,-0.07687288486547768
1772794836621680400,5.149680419921875,-0.8739023106575011,-0.4035350618086755,-0.10844583473689853
1772794836631725000,5.15972509765625,-1.213889467793703,-0.3381754315391183,-0.08913754235059022
1772794836641769200,5.169769287109375,-1.5287527050673961,-0.13292791303191334,0.0890111394919455
1772794836651814100,5.179814208984375,-1.8190560861021279,0.11328472613543271,0.306225611179322
1772794836661858000,5.189858154296875,-2.033643424156308,0.34524573525153096,0.5213488096758723
1772794836671903200,5.1999033203125,-2.123886005139351,0.6187251880615949,0.6831648539420216
1772794836681947100,5.209947021484375,-2.030732505145669,0.8339728897206484,0.7918641519833356
1772794836691992000,5.219991943359375,-1.7677490927129982,0.9713732354588807,0.8772986020322888
1772794836702037000,5.230037109375,-1.410515032699704,0.9975560167245566,0.9671628512222319
1772794836712081200,5.2400810546875,-1.0547791022896766,1.0006803592901676,0.9079195118758827
1772794836722126300,5.250126220703125,-0.6203361303895711,0.9909185514714568,0.7650508177291602
1772794836732170000,5.260169921875,-0.21750760941505431,0.8925420561324805,0.6196089120935648
1772794836742215200,5.270215087890625,0.05022153623998165,0.7610115522757173,0.5109586408257484
1772794836752259300,5.28025927734375,0.2133253552943468,0.6739372991304844,0.37018465393595396
1772794836762304000,5.290303955078125,0.3266735020548105,0.6510344893835485,0.20129516415223478
1772794836772348200,5.30034814453125,0.4477437674999237,0.6152872495021671,0.06808825151585042
1772794836782393300,5.310393310546875,0.578765518116951,0.5867140659686177,0.0005986234802752733
1772794836792437000,5.32043701171875,0.6601105068951845,0.5471702833484858,-0.03288812412321567
1772794836802482200,5.330482177734375,0.7044932539790868,0.5113953517425806,-0.02741919119283557
1772794836812526300,5.3405263671875,0.7389917359083891,0.5190255543600768,0.05180580975674092
1772794836822571000,5.350571044921875,0.7395762577980757,0.5236354593083262,0.14229483978152274
1772794836832615200,5.360615234375,0.7020043597728014,0.590640810958296,0.19678543164283036
1772794836842660000,5.37066015625,0.6287620134294033,0.6734814451217651,0.19196297992244363
1772794836852704000,5.3807041015625,0.5257850385576486,0.6919257410898805,0.14238390630446374
1772794836862749200,5.390749267578125,0.40771220136284825,0.6994647582925856,0.04192205605879426
1772794836872793000,5.40079296875,0.35943244684040543,0.7160941137932241,-0.0620953677766025
1772794836882838300,5.41083837890625,0.3065191872984171,0.7229030631557106,-0.11629413708448409
1772794836892883000,5.420883056640625,0.25899872671067714,0.7900802642412483,-0.1739696425922215
1772794836902927000,5.430927001953125,0.26965514528155327,0.9893871771857142,-0.2382652968920767
1772794836912972300,5.44097216796875,0.24763094500005245,1.2256494636923074,-0.18889577437154947
1772794836923016200,5.45101611328125,0.14676877032518387,1.4838552864596246,-0.13163359890505671
1772794836933061000,5.46106103515625,0.007950666743516922,1.6864986503504216,0.006640753188729286
1772794836943105300,5.471105224609375,-0.17517302703261375,1.8809965555779635,0.10320336750615387
1772794836953150200,5.481150146484375,-0.35681671138405796,2.0273658051915464,0.22354922766685484
1772794836963194000,5.491194091796875,-0.46419338251948356,2.1344011155433953,0.31984102568626405
1772794836973239300,5.5012392578125,-0.4891431148588657,2.1524021977886556,0.42578583738766607
1772794836983283000,5.511282958984375,-0.47335167148709295,2.189288743898272,0.3721504010509699
1772794836993328000,5.521328125,-0.34021219806373115,2.2263540075756607,0.2161653644932434
1772794837003372300,5.531372314453125,-0.17719897990226743,2.089969560881704,0.1303494773786515
1772794837013417200,5.541417236328125,0.01547755511701107,1.8896525941118596,-0.009111819477379322
1772794837023461000,5.551461181640625,0.1737497162312269,1.6809097443021832,-0.10089618654232471
1772794837033506000,5.561506103515625,0.3154723090827465,1.457724966033548,-0.16836086279973386
1772794837043551200,5.57155126953125,0.41960371468663216,1.2576058599233626,-0.2171775006778538
1772794837053595400,5.581595458984375,0.5067600200921297,1.0892119716368616,-0.27735863233096897
1772794837063640300,5.591640380859375,0.5900222406685351,0.9853951849400997,-0.3995842783562839
1772794837073684200,5.601684326171875,0.6474404104143381,0.8755361954696476,-0.4753037188703194
1772794837083729200,5.611729248046875,0.6449480090767145,0.7322970605753362,-0.4949803696449846
1772794837093773000,5.62177294921875,0.6385492479503154,0.6088376349713653,-0.48468445494957263
1772794837103818200,5.631818359375,0.6009557226151228,0.49457807245440777,-0.4566215224931016
1772794837113862400,5.6418623046875,0.5320949523568153,0.4203024375405162,-0.4675249015623703
1772794837123907300,5.6519072265625,0.43678339754641055,0.3805801565483212,-0.4657383469391614
1772794837133951200,5.661951171875,0.3330611572653055,0.3657810852147639,-0.4440837836876511
1772794837143996200,5.67199609375,0.27373919972479344,0.3750898155037313,-0.4024404349723831
1772794837154040300,5.682040283203125,0.20222645365297792,0.3811700122002512,-0.3304698986630887
1772794837164085200,5.692085205078125,0.21224691240787505,0.3800863816820085,-0.2326416848566383
1772794837174129200,5.702129150390625,0.2294809558033943,0.3852124925240874,-0.09016739685498178
1772794837184174300,5.71217431640625,0.23228490730822085,0.3597751227982342,0.020825492016226053
1772794837194218200,5.72221826171875,0.22054010897874832,0.32868213846348227,0.07458660055920481
1772794837204263200,5.73226318359375,0.18340251071751115,0.278738688512519,0.09262070829123258
1772794837214307300,5.742307373046875,0.1877186203509569,0.18330986399799584,0.13323902480769903
1772794837224352000,5.75235205078125,0.17689035234451292,0.054803676398470995,0.22050748535078019
1772794837234397200,5.762397216796875,0.16511632792055606,-0.036804347718879575,0.30942583199273793
1772794837244441300,5.77244140625,0.18563479981422423,-0.10734802956283092,0.40947351194694637
1772794837254486300,5.782486328125,0.16289105308651924,-0.1913551502224058,0.48244241164382545
1772794837264530200,5.7925302734375,0.12617489510774613,-0.30684177031628784,0.5803536275586113
1772794837274575400,5.802575439453125,0.05837853921055793,-0.38421274089701474,0.623802125999704
1772794837284619300,5.812619384765625,0.004079378268122673,-0.44615971317887304,0.6363439929910004
1772794837294664200,5.822664306640625,-0.011280103427171706,-0.5278006161637604,0.6625619186352938
1772794837304708400,5.832708251953125,0.0029331308424472807,-0.6271595466688275,0.6836459154572337
1772794837314753300,5.842753173828125,0.03183832280933857,-0.7046715331554413,0.6796396754905581
1772794837324797200,5.852797119140625,0.05885960072576999,-0.7596301078546792,0.652012321439758
1772794837334842000,5.862842041015625,0.028168109863996503,-0.8017677794255316,0.6405913482371717
1772794837344886300,5.87288623046875,-0.03375672365128994,-0.7954362383164465,0.6445009228963404
1772794837354931500,5.882931396484375,-0.11485738227963446,-0.7910049778707325,0.6558001694153994
1772794837364975000,5.89297509765625,-0.18104513393640517,-0.6941738853428513,0.6762737061887979
1772794837375020300,5.903020263671875,-0.21466332589983939,-0.5273002654261887,0.7163791412796825
1772794837385064200,5.913064208984375,-0.14961422288417817,-0.3141276895407587,0.7836955316402018
1772794837395109000,5.923109130859375,-0.17952186989188193,-0.1852524859657511,0.8811283163882792
1772794837405153300,5.9331533203125,-0.196467159473896,-0.08910451686382294,0.8747207874335348
1772794837415198200,5.9431982421875,-0.16709434999525546,0.0030165348095819353,0.7848137220151722
1772794837425243100,5.9532431640625,-0.15960837815403936,0.044257221008092165,0.6672890932876616
1772794837435287300,5.963287353515625,-0.21334873616993427,-0.0269461668536067,0.5803505588186905
1772794837445332200,5.973332275390625,-0.26289222701787945,-0.1324470707124099,0.4247042892286554
1772794837455376100,5.983376220703125,-0.2733101606577635,-0.17675028628669678,0.15933277608305216
1772794837465421300,5.99342138671875,-0.29689561890661714,-0.17142806835062802,-0.12806553115993738
1772794837475465200,6.00346533203125,-0.3940975175082683,-0.2292290268689394,-0.4020389780320227
1772794837485510400,6.013510498046875,-0.5028472305625676,-0.2916534074041992,-0.5533095532884821
1772794837495554300,6.02355419921875,-0.5829103628367185,-0.27680048699155446,-0.605844919428788
1772794837505599200,6.03359912109375,-0.6925777752578258,-0.20392777767814696,-0.5430282151076943
1772794837515643400,6.043643310546875,-0.7724182046920061,-0.06741334792897105,-0.3853790081974119
1772794837525688000,6.05368798828125,-0.8177274189710616,0.03644662032239139,-0.10836345368307083
1772794837535732200,6.063732177734375,-0.8135124316245317,0.06663571461997926,0.1454668939463794
1772794837545777400,6.07377734375,-0.8018114724367856,0.09231142314635217,0.323518837416172
1772794837555821000,6.083821044921875,-0.8264964163601398,0.06358239146396517,0.42631417211070655
1772794837565866200,6.0938662109375,-0.8388222294479608,0.106769279826805,0.4248815089590847
1772794837575910400,6.103910400390625,-0.8152683353811502,0.1815184505365789,0.3806660812661051
1772794837585955000,6.113955078125,-0.8245546346426009,0.20779614354409276,0.3479171464178711
1772794837595999200,6.123999267578125,-0.8636977275073527,0.27667949096038935,0.21817601019591093
1772794837606044400,6.13404443359375,-0.8627841197937727,0.44109468487426634,0.018822262435033918
1772794837616088000,6.144088134765625,-0.8042395763665438,0.6703421241827309,-0.27143399152234193
1772794837626133200,6.15413330078125,-0.7441326059281825,0.8881281852129846,-0.5072527720451354
1772794837636178200,6.16417822265625,-0.7400374455690384,1.059583068505302,-0.6796283503789454
1772794837646222300,6.174222412109375,-0.7420230664283036,1.223550153325498,-0.861223957804963
1772794837656267300,6.184267333984375,-0.7508049232989549,1.3830223378792403,-1.0464585062552243
1772794837666311200,6.194311279296875,-0.7484943082690239,1.492090615363419,-1.1521769618548452
1772794837676356400,6.2043564453125,-0.6967454163312912,1.6088681520506738,-1.222730142179504
1772794837686400300,6.214400146484375,-0.5473673402905463,1.7327146042108534,-1.2757795222565531
1772794837696445200,6.224445068359375,-0.23740941071510313,1.811929887484014,-1.2408916026182473
1772794837706489300,6.2344892578125,0.04265490037798881,1.8548355477526783,-1.3329061617098747
1772794837716534000,6.244533935546875,0.28571956037580964,1.831693449357152,-1.426248316143453
1772794837726578200,6.254578125,0.5402151304483414,1.690015426299721,-1.4865113539263606
1772794837736623400,6.264623291015625,0.7779974661290645,1.5199715788491068,-1.5671270055167377
1772794837746667300,6.274667236328125,0.9816565829336643,1.3024591471284628,-1.668605704654753
1772794837756712200,6.284712158203125,1.1169272231668232,1.0399239899199455,-1.7749765597485005
1772794837766756400,6.29475634765625,1.2431114706248043,0.7773880289938301,-1.8579454964667557
1772794837776801300,6.30480126953125,1.3116051611363888,0.5677947728998959,-1.920197077718377
1772794837786845200,6.31484521484375,1.3406868787139654,0.37625286793373525,-1.927133014461398
1772794837796890400,6.324890380859375,1.3396592892318964,0.2027926361683756,-1.891804511448741
1772794837806934300,6.334934326171875,1.339068922123313,0.061809901898726816,-1.8143895555958152
1772794837816979200,6.344979248046875,1.2557809825837611,0.01634330510087311,-1.6897689041927455
1772794837827024100,6.355024169921875,1.0932295367151499,0.05103497151471674,-1.561361573857814
1772794837837068300,6.365068359375,0.9297656521767377,0.13694288429431617,-1.3632216588661075
1772794837847113200,6.37511328125,0.7516653395205736,0.20843809470944105,-1.1312757742539048
1772794837857157000,6.3851572265625,0.5757698434323072,0.2526747113209218,-0.8543089177194982
1772794837867202300,6.395202392578125,0.42288405153155323,0.29421726654283703,-0.6219437117166817
1772794837877246200,6.40524609375,0.2621364402145147,0.3344383273700252,-0.48141032864972944
1772794837887291100,6.415291015625,0.09349310721158981,0.33406887300312516,-0.32139000869393347
1772794837897335300,6.425335205078125,-0.04609130456745624,0.3339780529145151,-0.1673099655073136
1772794837907380200,6.435380126953125,-0.15212825153172016,0.3648004766795784,-0.0613243834041059
1772794837917424000,6.445424072265625,-0.1952005005389452,0.3559683874590322,0.051797918711230156
1772794837927469300,6.45546923828125,-0.3505062130630016,0.29449922528937456,0.08091310016699135
1772794837937513500,6.465513427734375,-0.4761678979516029,0.19111102100191638,0.060415890257060526
1772794837947558100,6.47555810546875,-0.5268196423023939,0.07265866470392793,-0.0020368395898491144
1772794837957602300,6.485602294921875,-0.5499339759081602,-0.0956655193472281,-0.0015688567519187926
1772794837967647200,6.495647216796875,-0.5509498749524354,-0.3099571258578449,0.0016569734267890452
1772794837977691100,6.505691162109375,-0.5493196434020996,-0.4529944545697421,-0.06247457635253668
1772794837987736300,6.515736328125,-0.6174953540056943,-0.566111495988071,-0.1521643457584083
1772794837997781200,6.52578125,-0.7159224104881287,-0.646639469294995,-0.25003698322847484
1772794838007825200,6.5358251953125,-0.8071195157170296,-0.7278991909425705,-0.3347475759822875
1772794838017870000,6.5458701171875,-0.8294488364249467,-0.7344813458118588,-0.3845900497768074
1772794838027914200,6.555914306640625,-0.8041396231234074,-0.6725681296691298,-0.37380584010779855
1772794838037959400,6.56595947265625,-0.7723731965065002,-0.5010711242681369,-0.4556012030020356
1772794838048003000,6.576003173828125,-0.6662246058613062,-0.31464378583673386,-0.5133347953725605
1772794838058049300,6.58604931640625,-0.5437111558705569,-0.12018751866067759,-0.5680266088943928
1772794838068093200,6.59609326171875,-0.39803076530396936,0.044819083541398866,-0.6300645473953336
1772794838078138000,6.60613818359375,-0.3412257590204477,0.17303243480734526,-0.6730893039990216
1772794838088182300,6.616182373046875,-0.3401747886627912,0.2454343300049193,-0.65240468175821
1772794838098227000,6.62622705078125,-0.3367126655101776,0.30728418032154436,-0.6287360022053122
1772794838108271000,6.63627099609375,-0.3198907100468874,0.34585239590778943,-0.7013763640675693
1772794838118316300,6.64631640625,-0.2219827090024948,0.44017640098556876,-0.8168739439468831
1772794838128360000,6.65635986328125,-0.09316168330013752,0.5394739566922188,-0.8625370862301438
1772794838138405000,6.666405029296875,-0.04437690186500549,0.5245389840193092,-0.8716511707298457
1772794838148449300,6.67644921875,0.03669394614696502,0.4907167208511382,-0.931377325157076
1772794838158494000,6.686493896484375,0.1994347771078348,0.4904353466264903,-0.9859043765712528
1772794838168538000,6.6965380859375,0.3102706487864256,0.38499735193606466,-1.0362060653753578
1772794838178583000,6.7065830078125,0.4305991559535265,0.2191459877392277,-1.0511641997281462
1772794838188627000,6.716626953125,0.5537064801841974,0.02188347663655877,-0.9767900728758424
1772794838198672100,6.726672119140625,0.6526695432394742,-0.21830703443074598,-0.8171676661964505
1772794838208717000,6.736717041015625,0.7330752053409815,-0.4092462059970945,-0.6705701607849448
1772794838218761200,6.74676123046875,0.763221921801567,-0.5280078291736543,-0.6151677147757262
1772794838228806100,6.75680615234375,0.7007546519726514,-0.624983225543052,-0.6394015539307147
1772794838238850000,6.76685009765625,0.6011755028456449,-0.6494675323277711,-0.6276110898286104
1772794838248895200,6.776895263671875,0.46810208039581774,-0.6098908338187262,-0.5746759837809949
1772794838258939100,6.786939208984375,0.3217249397367239,-0.4988934514354914,-0.42973640164434906
1772794838268984000,6.796984130859375,0.16998305717408657,-0.3047608723890036,-0.24053572604209184
1772794838279028200,6.8070283203125,-0.00018529343903064726,-0.09763031661417335,-0.06174721192605793
1772794838289073200,6.8170732421875,-0.16604571772515772,0.09869823810663074,0.10353775055967271
1772794838299117000,6.827116943359375,-0.24994039098620413,0.2920958356757648,0.2409026596583426
1772794838309162200,6.837162353515625,-0.2919341971069574,0.42722580706290897,0.35003399244137107
1772794838319206000,6.847205810546875,-0.32314591245055196,0.4968769239813089,0.4178980798125267
1772794838329251000,6.8572509765625,-0.3464373561888933,0.4379577750880271,0.46130862086340785
1772794838339295200,6.867295166015625,-0.32358605743348595,0.3430851231515407,0.43582887330055237
1772794838349340200,6.877340087890625,-0.3199187670975923,0.21636390100633723,0.28753559682182966
1772794838359384000,6.887384033203125,-0.31080256370604037,0.06621295916326343,0.11595964443311095
1772794838369429000,6.897428955078125,-0.31080022561848164,-0.10933295630235225,-0.08927000962384045
1772794838379473200,6.90747314453125,-0.3031850744396448,-0.2511316100647673,-0.2522781862840056
1772794838389518000,6.91751806640625,-0.2667044787824154,-0.33347178389281035,-0.3294608677510172
1772794838399562200,6.927562255859375,-0.22816811963915823,-0.322223683039099,-0.35743009404204784
1772794838409607200,6.937607177734375,-0.23486907858252523,-0.23700974387302992,-0.33218642025738954
1772794838419651000,6.947651123046875,-0.2749725409120321,-0.051589792385883626,-0.22544081356711684
1772794838429696000,6.957696044921875,-0.32400983580350873,0.12055296357274055,-0.0963467430770397
1772794838439741200,6.9677412109375,-0.3431593574315309,0.25681842352952805,0.020408581778407094
1772794838449785300,6.977785400390625,-0.3015016513973474,0.44703861490525304,0.1533659766331315
1772794838459830000,6.987830078125,-0.25957623433768745,0.6106722299873828,0.31983072348795827
1772794838469874200,6.997874267578125,-0.21455051317512988,0.734042004546523,0.5181650650732219
1772794838479919000,7.007919189453125,-0.14634557647705076,0.7897964057985692,0.6344159475378692
1772794838489963000,7.017962890625,-0.08665186301469803,0.8728938642673194,0.7366312903873622
1772794838500008200,7.02800830078125,-0.08860767325758934,0.9286692352421582,0.817624250857532
1772794838510052000,7.038052001953125,-0.07973346192836761,0.9147746384676545,0.8463568627364934
1772794838520097000,7.048096923828125,-0.03483516653776168,0.8905433565959334,0.8834409041795879
1772794838530141200,7.05814111328125,0.037242812201380725,0.8278446891639382,0.8428277387622743
1772794838540186000,7.06818603515625,0.11645020442903041,0.7472008343923836,0.8122369317959993
1772794838550230000,7.07822998046875,0.1680348457157612,0.6541402003139257,0.7490535495869814
1772794838560275200,7.088275146484375,0.22985271172523497,0.6097231125690042,0.6309839272625744
1772794838570319000,7.098319091796875,0.3425076155245304,0.6217130447659641,0.46983920638673005
1772794838580364300,7.1083642578125,0.4934644851893186,0.6219511643707751,0.30519882541485127
1772794838590408200,7.118408203125,0.6535603545993566,0.6046507046755403,0.23064451969005167
1772794838600453000,7.128453125,0.7615607105910778,0.5555100224748254,0.18298662339299915
1772794838610497000,7.1384970703125,0.7638380078732967,0.4757162817265838,0.2081048441670835
1772794838620542000,7.1485419921875,0.6736088708937168,0.44839587473310527,0.20893859157748518
1772794838630586000,7.158586181640625,0.6452542985469103,0.5033043997455388,0.1805296586949378
1772794838640631300,7.16863134765625,0.6468038660764693,0.5477039883663878,0.11734620342068373
1772794838650675000,7.178675048828125,0.6357371131390332,0.507537836064212,0.028987682618573308
1772794838660720000,7.18872021484375,0.6248878023445605,0.4270645520865917,0.00855761966072023
1772794838670765000,7.19876513671875,0.5892565169930458,0.24380857370030135,0.012038009122386574
1772794838680809000,7.20880908203125,0.5257260018467903,0.07760448707565665,0.02311316456198692
1772794838690854100,7.218854248046875,0.49387131242454047,-0.06707757663596421,-0.012619754533097147
1772794838700898000,7.22889794921875,0.4703589194118976,-0.23375245911013334,-0.06834982506148517
1772794838710943200,7.238943115234375,0.4276911595523357,-0.3518770995574072,-0.07118132216036319
1772794838720987100,7.248987060546875,0.41188393408954144,-0.44301052843295036,-0.10401377057358623
1772794838731032000,7.259031982421875,0.42117081787288185,-0.5392912205364555,-0.15712036073058844
1772794838741076200,7.269076171875,0.43182139122486113,-0.6772884361892938,-0.1489029328096658
1772794838751121200,7.27912109375,0.40025428657233714,-0.7894061643719673,-0.12548311345130203
1772794838761165000,7.2891650390625,0.3959849386900663,-0.6133215754523873,0.05617438022978603
1772794838771210200,7.299210205078125,0.43376843363940715,-0.8092823197741061,0.19117818622030316
1772794838781254100,7.309254150390625,0.2992541647315025,-0.8649453164156525,0.27339294357039035
1772794838791299000,7.319299072265625,0.24448037201464173,-0.7631176577094941,0.27169059663191436
1772794838801343200,7.32934326171875,0.215434310272336,-0.7273040745936333,0.5145648486241698
1772794838811388000,7.339387939453125,0.24406945312619208,-0.5230979183655232,0.49277993699125944
1772794838821432000,7.34943212890625,0.10582184290885925,-0.44531880537532265,0.4508022052224725
1772794838831477200,7.359477294921875,-0.07183189502358436,-0.5384490340912714,0.40370954159274697
1772794838841521200,7.369521240234375,-0.18639175566136837,-0.6441731522466987,0.2675208366665989
1772794838851566000,7.379566162109375,-0.28875673611462116,-0.7782698533296585,0.1592899598546326
1772794838861610200,7.3896103515625,-0.37582828584611416,-0.7651410532958806,0.12079652653764933
1772794838871655200,7.3996552734375,-0.4459422710359096,-0.6209851688828318,0.14780545642916113
1772794838881699000,7.409698974609375,-0.5227180522024631,-0.5613865132927894,0.2961713962852955
1772794838891744300,7.419744140625,-0.5704354966670274,-0.5578114678176119,0.41455465113613754
1772794838901788000,7.429787841796875,-0.5447013359516859,-0.6279275353666395,0.3978617288799956
1772794838911833000,7.4398330078125,-0.5312397968322038,-0.6971525358274578,0.31745226738620547
1772794838921878000,7.4498779296875,-0.4418915343403816,-0.74642188590914,0.17604568168129772
1772794838931922200,7.459922119140625,-0.3726759592950344,-0.7550149422094226,0.05796973921395838
1772794838941967000,7.469967041015625,-0.2412842063218355,-0.7825842824626713,0.002085354906693101
1772794838952011000,7.480010986328125,-0.15606442193686962,-0.8969635989017785,0.11759210447315126
1772794838962056200,7.49005615234375,-0.2358469837039709,-1.0530239291854202,0.3229092906830832
1772794838972100000,7.50010009765625,-0.36278467987775803,-1.1585087221596388,0.4994941938076168
1772794838982145000,7.51014501953125,-0.5036059399753808,-1.1421132484801113,0.5647587296722456
1772794838992189200,7.520189208984375,-0.5355366172432899,-1.1246990992773322,0.625454569381848
1772794839002234000,7.530234130859375,-0.4451379689157009,-0.9674801735430956,0.621496041014418
1772794839012278000,7.540278076171875,-0.3398141386568546,-0.8246602139089256,0.5417355814812704
1772794839022323200,7.5503232421875,-0.29676059435009955,-0.7995591634653508,0.5638238234423101
1772794839032367000,7.5603671875,-0.31399288417994975,-0.7736917317591607,0.6635314212545752
1772794839042412000,7.570412109375,-0.49063715280890463,-0.6752990890029817,0.7166792932700365
1772794839052456000,7.5804560546875,-0.6531482666671276,-0.5123237186338753,0.7452770997881889
1772794839062500900,7.5905009765625,-0.7527759311109781,-0.3368986896015703,0.6869763019889593
1772794839072545000,7.600544921875,-0.7896089934676885,-0.2036251414697617,0.5907099306717515
1772794839082590200,7.610590087890625,-0.7434983996778726,-0.06358133658461738,0.5293246108606458
1772794839092633900,7.6206337890625,-0.6510065784633159,0.05168440273362212,0.4850095587180927
1772794839102679000,7.630678955078125,-0.6076280399858951,0.014527296054316683,0.44292347120400516
1772794839112723000,7.640722900390625,-0.6235510007828474,-0.08692766601508482,0.4224413492653519
1772794839122768000,7.650767822265625,-0.6913198841512203,-0.20781886683255432,0.3989310020793229
1772794839132812000,7.66081201171875,-0.8778273751467466,-0.31944976134635505,0.32363881053403015
1772794839142857000,7.67085693359375,-1.0894821668803691,-0.31534459104984996,0.17926636076085267
1772794839152900900,7.68090087890625,-1.2955921839684248,-0.2705048939786851,-0.015326858067326248
1772794839162946000,7.690946044921875,-1.3421516905695199,-0.2264610782592557,-0.17706139806248247
1772794839172990200,7.700990234375,-1.2075199327617883,-0.1452910076565109,-0.22364852332286536
1772794839183035000,7.711034912109375,-1.079245435026288,-0.03739881561384536,-0.1731345069423318
1772794839193079000,7.7210791015625,-1.044686747342348,0.10672231714623048,-0.03939984410479665
1772794839203124000,7.7311240234375,-1.0069050059586764,0.23106287296628578,0.12657142014466224
1772794839213169200,7.741169189453125,-0.8735141881227493,0.3702762046769261,0.2587073425486684
1772794839223213000,7.751213134765625,-0.6450397790133953,0.496672487450391,0.21311375837028027
1772794839233258000,7.761258056640625,-0.29655893429815766,0.6994736722514033,0.16775858605764804
1772794839243302100,7.77130224609375,-0.0013514146089553833,0.9058275810979306,0.21039193219095467
1772794839253346800,7.781346923828125,0.2155821943104267,1.0255367873229086,0.2971170065723359
1772794839263391000,7.791390869140625,0.3296002031564712,0.9334719593487679,0.28787520403973754
1772794839273436200,7.801436279296875,0.4343979637145996,0.9670289957094937,0.29390147859193383
1772794839283479800,7.811479736328125,0.6807564045608043,1.057422894796729,0.3378224533829838
1772794839293525000,7.82152490234375,0.8613087865442037,1.1808394311070443,0.30009134620800615
1772794839303569200,7.831569091796875,1.0255915862500666,1.217795316125825,0.18955409214980898
1772794839313613800,7.84161376953125,1.2045914780944584,1.13403077205047,0.0033349896416068076
1772794839323658000,7.851657958984375,1.3071253853738307,0.8615440566048026,-0.20460918407104908
1772794839333703200,7.861703125,1.3116618597596883,0.49497551080677654,-0.19611169709973036
1772794839343746800,7.871746826171875,1.251974576038122,0.2910118946302682,-0.1558577934488654
1772794839353792000,7.8817919921875,1.1170037955343723,0.17068751564901322,-0.19496077349893748
1772794839363836200,7.891836181640625,0.9608078561723231,0.0905219824463129,-0.3193940125711262
1772794839373881000,7.901881103515625,0.7527221550971269,-0.013892806676216422,-0.4701021681718528
1772794839383925000,7.911925048828125,0.6461784276545047,-0.04906407330054789,-0.6893840937830508
1772794839393970000,7.921969970703125,0.6926888344168662,-0.07412932177837937,-0.8347264845669269
1772794839404013800,7.932013916015625,0.7591741077154874,-0.14708280471041799,-0.925576018467173
1772794839414059000,7.94205908203125,0.7406342424184084,-0.15862945011928678,-0.9393029305245727
1772794839424103000,7.95210302734375,0.6211310801595449,-0.09871855024229735,-0.9143148389361798
1772794839434148000,7.962148193359375,0.4876771339595318,0.05217025915496051,-0.879797433110699
1772794839444192000,7.97219189453125,0.44687809058129785,0.2541474872872233,-0.7251175243347883
1772794839454237000,7.98223681640625,0.3960328694850206,0.4252851943891495,-0.5410273236140608
1772794839464279800,7.99227978515625,0.2230629054546356,0.6797044843550771,-0.36495135639235377
1772794839474325000,8.002324951171875,0.2630605693221092,0.7695617923475802,-0.1915457774236798
1772794839484369200,8.012369140625,0.6340443377465009,0.6804542067438364,-0.09543061461281031
1772794839494414000,8.0224140625,0.9537748887956142,0.4470328792842105,0.011577515471167862
1772794839504458000,8.0324580078125,1.0202209991276263,0.13293635206669568,0.0003260901492089033
1772794839514503000,8.0425029296875,0.8591326115489005,0.004690130577608943,-0.14790687097702174
1772794839524547000,8.052547119140625,0.7255529931426048,0.005294087820127606,-0.3376327029645443
1772794839534592000,8.062592041015625,0.5782645828574896,-0.13571580845108255,-0.4743801012193784
1772794839544636000,8.072635986328125,0.376009487631917,-0.27046235174490135,-0.5448689841361716
1772794839554681000,8.08268115234375,0.18964871163070202,-0.28332645469419654,-0.5701576295737176
1772794839564725000,8.09272509765625,-0.08287877421677112,-0.324432408597134,-0.51481860418953
