time,seconds_elapsed,z,y,x
1772794831539143000,0.067142822265625,-0.16592857241630554,-0.4982842206954956,-0.10182952880859375
1772794831549187800,0.077187744140625,-0.14704279601573944,-0.4521642029285431,-0.12858037650585175
1772794831559231700,0.087231689453125,-0.11761858314275742,-0.417650431394577,-0.14713408052921295
1772794831569277000,0.09727685546875,-0.07714785635471344,-0.40934428572654724,-0.15364177525043488
1772794831579320800,0.10732080078125,-0.035428378731012344,-0.38186368346214294,-0.15151497721672058
1772794831589366000,0.117365966796875,-0.00387688260525465,-0.35291391611099243,-0.14786574244499207
1772794831599410000,0.127409912109375,0.016741042956709862,-0.32274964451789856,-0.15660223364830017
1772794831609454800,0.137454833984375,0.040676992386579514,-0.2898882031440735,-0.15957075357437134
1772794831619500000,0.1475,0.07761716842651367,-0.2525903582572937,-0.1465468406677246
1772794831629543700,0.157543701171875,0.12123440951108932,-0.22222937643527985,-0.11707271635532379
1772794831639588900,0.1675888671875,0.14854033291339874,-0.2234371155500412,-0.07874742895364761
1772794831649633000,0.177633056640625,0.14224275946617126,-0.2549129128456116,-0.06407858431339264
1772794831659678000,0.187677978515625,0.12395323812961578,-0.3296814262866974,-0.09794759750366211
1772794831669721900,0.197721923828125,0.0963464081287384,-0.3707984387874603,-0.16592831909656525
1772794831679766800,0.207766845703125,0.07352418452501297,-0.324872225522995,-0.2316519320011139
1772794831689810700,0.217810791015625,0.07976869493722916,-0.24121831357479095,-0.2887844741344452
1772794831699856000,0.22785595703125,0.09072787314653397,-0.16823597252368927,-0.32141804695129395
1772794831709900800,0.23790087890625,0.10679340362548828,-0.1307608187198639,-0.3447454571723938
1772794831719945000,0.247945068359375,0.12507174909114838,-0.12389145791530609,-0.3512427508831024
1772794831729990000,0.257989990234375,0.10746432840824127,-0.1117624044418335,-0.3255743980407715
1772794831740033800,0.26803369140625,0.08639020472764969,-0.07227864116430283,-0.2925852835178375
1772794831750079000,0.278078857421875,0.08612974733114243,-0.027164962142705917,-0.23669005930423737
1772794831760123000,0.288122802734375,0.07297986000776291,-0.015117887407541275,-0.17894554138183594
1772794831770167800,0.298167724609375,0.03616558015346527,-0.004948030691593885,-0.14919832348823547
1772794831780212000,0.3082119140625,-0.00468491530045867,-0.02347457781434059,-0.1832801252603531
1772794831790257000,0.3182568359375,-0.015609635971486568,-0.11992573738098145,-0.23681503534317017
1772794831800300800,0.32830078125,0.018366172909736633,-0.25368592143058777,-0.2737453579902649
1772794831810346000,0.338345947265625,0.0075007532723248005,-0.2439599633216858,-0.27441897988319397
1772794831820391000,0.348390869140625,-0.032498594373464584,-0.18883918225765228,-0.2729529142379761
1772794831830434800,0.358434814453125,-0.061783317476511,-0.14338110387325287,-0.27824944257736206
1772794831840479700,0.368479736328125,-0.0657559484243393,-0.07218709588050842,-0.3184144198894501
1772794831850524000,0.37852392578125,-0.029244862496852875,-0.028769316151738167,-0.39183881878852844
1772794831860568800,0.38856884765625,0.04438142105937004,-0.029063861817121506,-0.46000000834465027
1772794831870612700,0.39861279296875,0.13072803616523743,-0.03898509219288826,-0.4961725175380707
1772794831880658000,0.408657958984375,0.21670261025428772,-0.06827933341264725,-0.5040535926818848
1772794831890701800,0.418701904296875,0.2692774534225464,-0.1534382700920105,-0.48392561078071594
1772794831900746800,0.428746826171875,0.25212615728378296,-0.2826892137527466,-0.4510329067707062
1772794831910792000,0.4387919921875,0.1812065988779068,-0.3781566321849823,-0.40296226739883423
1772794831920836000,0.448836181640625,0.10319861024618149,-0.437099814414978,-0.3565015494823456
1772794831930880800,0.458880859375,0.040870074182748795,-0.4854523837566376,-0.3070842921733856
1772794831940925000,0.468925048828125,-0.009400554932653904,-0.5088248252868652,-0.26823997497558594
1772794831950969900,0.478969970703125,-0.07134505361318588,-0.4579262137413025,-0.24545961618423462
1772794831961013800,0.489013671875,-0.11786115169525146,-0.3375777006149292,-0.25242191553115845
1772794831971059000,0.499058837890625,-0.11168640851974487,-0.1878354400396347,-0.2871416509151459
1772794831981102800,0.509102783203125,-0.06433194130659103,-0.02545691840350628,-0.3393356204032898
1772794831991147800,0.519147705078125,0.0009394935332238674,0.15559084713459015,-0.4164903163909912
1772794832001192700,0.529192626953125,0.04906574264168739,0.3643437922000885,-0.5439358949661255
1772794832011236900,0.53923681640625,0.06369468569755554,0.39706823229789734,-0.7011297941207886
1772794832021282000,0.549281982421875,0.05200953036546707,0.28876200318336487,-0.8151993751525879
1772794832031325700,0.55932568359375,0.015101277269423008,0.19611871242523193,-0.8815419673919678
1772794832041371000,0.569370849609375,-0.0361909382045269,0.12086762487888336,-0.9409368634223938
1772794832051415000,0.5794150390625,-0.09375263005495071,0.03972874954342842,-0.9845162630081177
1772794832061459700,0.589459716796875,-0.1417345404624939,-0.01515500620007515,-1.026473045349121
1772794832071504000,0.59950390625,-0.1734369695186615,-0.07975076138973236,-1.0808700323104858
1772794832081549000,0.609549072265625,-0.17516882717609406,-0.09765572845935822,-1.1328946352005005
1772794832091594000,0.619593994140625,-0.20110554993152618,-0.16886292397975922,-1.1840726137161255
1772794832101638000,0.629637939453125,-0.2514883279800415,-0.32326528429985046,-1.199950098991394
1772794832111682800,0.639682861328125,-0.2988424301147461,-0.4263431429862976,-1.1559633016586304
1772794832121726700,0.649726806640625,-0.34482190012931824,-0.47506192326545715,-1.0636903047561646
1772794832131772000,0.65977197265625,-0.38259801268577576,-0.44741013646125793,-0.9472073912620544
1772794832141815800,0.66981591796875,-0.40249237418174744,-0.3623221218585968,-0.8186947107315063
1772794832151861000,0.679861083984375,-0.40888237953186035,-0.28644701838493347,-0.6791245937347412
1772794832161905000,0.68990478515625,-0.41123953461647034,-0.2448926419019699,-0.529549777507782
1772794832171949800,0.69994970703125,-0.42723503708839417,-0.21206311881542206,-0.382192999124527
1772794832181995000,0.7099951171875,-0.46067050099372864,-0.17974433302879333,-0.2512458860874176
1772794832192038700,0.72003857421875,-0.49638640880584717,-0.1418260782957077,-0.13466379046440125
1772794832202083800,0.730083740234375,-0.5243034958839417,-0.0773773193359375,-0.036523640155792236
1772794832212128000,0.7401279296875,-0.5228015780448914,-0.04126182943582535,0.031560543924570084
1772794832222173000,0.7501728515625,-0.4992797374725342,-0.006905187852680683,0.0666080117225647
1772794832232216800,0.760216796875,-0.4785049557685852,0.04891285300254822,0.08564025163650513
1772794832242261800,0.77026171875,-0.46584081649780273,0.1149027943611145,0.0782071053981781
1772794832252305700,0.7803056640625,-0.4674461781978607,0.17794939875602722,0.046514417976140976
1772794832262350800,0.790350830078125,-0.48879992961883545,0.17961813509464264,-0.012515345588326454
1772794832272395800,0.800395751953125,-0.5206187963485718,0.1081959456205368,-0.08478724211454391
1772794832282440000,0.81043994140625,-0.561103880405426,0.0013224971480667591,-0.13576041162014008
1772794832292484900,0.82048486328125,-0.6112754344940186,-0.07008069008588791,-0.13846899569034576
1772794832302528800,0.83052880859375,-0.6758898496627808,-0.09055720269680023,-0.1115465760231018
1772794832312574000,0.840573974609375,-0.7380707263946533,-0.08504462242126465,-0.05766289308667183
1772794832322617900,0.850617919921875,-0.7876148819923401,-0.08360971510410309,0.0015351827023550868
1772794832332662800,0.860662841796875,-0.831122636795044,-0.08073994517326355,0.053785644471645355
1772794832342707000,0.87070703125,-0.868464469909668,-0.06865984946489334,0.10298888385295868
1772794832352751900,0.880751953125,-0.9034858345985413,-0.021676361560821533,0.1477864384651184
1772794832362796800,0.890796875,-0.9280875325202942,0.021521443501114845,0.17365825176239014
1772794832372841000,0.900841064453125,-0.914505124092102,0.041027508676052094,0.18227942287921906
1772794832382886000,0.910885986328125,-0.8745164275169373,0.05519872158765793,0.17825964093208313
1772794832392929800,0.9209296875,-0.8322033882141113,0.06884054094552994,0.1649502068758011
1772794832402974700,0.930974609375,-0.8187631964683533,0.08991866558790207,0.15496520698070526
1772794832413019000,0.941018798828125,-0.8214101791381836,0.1462218165397644,0.13666164875030518
1772794832423063800,0.951063720703125,-0.8211928606033325,0.23283208906650543,0.11569218337535858
1772794832433108000,0.96110791015625,-0.8282091021537781,0.3135128915309906,0.08012021332979202
1772794832443153000,0.97115283203125,-0.8230180740356445,0.3976437449455261,0.031655214726924896
1772794832453198000,0.981197998046875,-0.8175573348999023,0.4788855016231537,-0.028345664963126183
1772794832463241700,0.99124169921875,-0.8123641610145569,0.5538116097450256,-0.09122209250926971
1772794832473287000,1.001286865234375,-0.7839120626449585,0.639050304889679,-0.15541933476924896
1772794832483331000,1.0113310546875,-0.7513575553894043,0.6850191354751587,-0.21101628243923187
1772794832493375700,1.021375732421875,-0.7332358956336975,0.6944611668586731,-0.24935051798820496
1772794832503420000,1.031419921875,-0.7412415742874146,0.6985498666763306,-0.238213449716568
1772794832513464800,1.04146484375,-0.7675323486328125,0.8092802166938782,-0.17192181944847107
1772794832523508700,1.0515087890625,-0.8336697816848755,0.8612446188926697,-0.08645965158939362
1772794832533554000,1.061553955078125,-0.8697634935379028,0.9509509801864624,0.01649315282702446
1772794832543597800,1.071597900390625,-0.8441747426986694,1.090836524963379,0.13655032217502594
1772794832553642800,1.081642822265625,-0.7858633399009705,1.1944184303283691,0.25294020771980286
1772794832563687700,1.091687744140625,-0.7385078072547913,1.3962376117706299,0.34068790078163147
1772794832573731800,1.10173193359375,-0.6262451410293579,1.3571686744689941,0.37889066338539124
1772794832583777000,1.111777099609375,-0.4798487722873688,1.3097002506256104,0.4008500277996063
1772794832593821000,1.121821044921875,-0.37385788559913635,1.408950686454773,0.4006388485431671
1772794832603865900,1.131865966796875,-0.2610487639904022,1.3135567903518677,0.3614616394042969
1772794832613910000,1.141909912109375,-0.14601904153823853,1.220012903213501,0.31938305497169495
1772794832623954700,1.15195458984375,-0.046491384506225586,1.1731593608856201,0.27976107597351074
1772794832633998800,1.161998779296875,0.01932222954928875,1.1181261539459229,0.2451622039079666
1772794832644044000,1.1720439453125,0.048716604709625244,1.0079599618911743,0.24813508987426758
1772794832654089000,1.1820888671875,0.030130846425890923,1.0543580055236816,0.26822513341903687
1772794832664132900,1.1921328125,0.019500572234392166,0.9004145264625549,0.29874682426452637
1772794832674177800,1.202177734375,0.034114670008420944,0.8625678420066833,0.334118127822876
1772794832684222000,1.212221923828125,0.060775041580200195,0.8551093935966492,0.37485623359680176
1772794832694267000,1.222266845703125,0.051058754324913025,0.8625962138175964,0.41342613101005554
1772794832704310800,1.232310791015625,0.03636689484119415,0.8464041948318481,0.3936958312988281
1772794832714356000,1.24235595703125,0.025405559688806534,0.737144947052002,0.33920761942863464
1772794832724399900,1.25239990234375,0.02942427061498165,0.6406855583190918,0.26594725251197815
1772794832734444800,1.26244482421875,0.02004777267575264,0.5180106163024902,0.1770215481519699
1772794832744489000,1.272489013671875,-0.04645615071058273,0.3497456908226013,0.10200562328100204
1772794832754534000,1.282533935546875,-0.14846235513687134,0.24763941764831543,0.0146487420424819
1772794832764578800,1.292578857421875,-0.21946382522583008,0.0050129336304962635,-0.0636971965432167
1772794832774623000,1.302623046875,-0.2767266631126404,-0.15106412768363953,-0.12642168998718262
1772794832784668000,1.31266796875,-0.3538171648979187,-0.3008597493171692,-0.1901969313621521
1772794832794711800,1.3227119140625,-0.38774973154067993,-0.3390807807445526,-0.23538322746753693
1772794832804757000,1.332757080078125,-0.38949036598205566,-0.3481728136539459,-0.2923807203769684
1772794832814801000,1.34280078125,-0.3511612117290497,-0.36754876375198364,-0.3355402946472168
1772794832824845800,1.352845703125,-0.2899593710899353,-0.37236109375953674,-0.35802215337753296
1772794832834890000,1.362889892578125,-0.21692931652069092,-0.38783028721809387,-0.3632694482803345
1772794832844935000,1.372934814453125,-0.1411259025335312,-0.42872339487075806,-0.355425626039505
1772794832854979800,1.382979736328125,-0.07471869140863419,-0.4813776910305023,-0.3444646894931793
1772794832865023700,1.393023681640625,-0.04418288916349411,-0.5711361169815063,-0.33535268902778625
1772794832875069000,1.40306884765625,-0.060724854469299316,-0.6627939343452454,-0.3210029602050781
1772794832885112800,1.41311279296875,-0.1072140634059906,-0.722376823425293,-0.29709336161613464
1772794832895157800,1.42315771484375,-0.15263362228870392,-0.7378342747688293,-0.25910085439682007
1772794832905202000,1.433201904296875,-0.1886395663022995,-0.6974940299987793,-0.22114920616149902
1772794832915246800,1.443246826171875,-0.2046012431383133,-0.6281312704086304,-0.1796431988477707
1772794832925290800,1.453290771484375,-0.1997992843389511,-0.5412853360176086,-0.14908447861671448
1772794832935336000,1.4633359375,-0.18411782383918762,-0.4532245397567749,-0.12869979441165924
1772794832945380900,1.473380859375,-0.17278820276260376,-0.3744804561138153,-0.1343158632516861
1772794832955424800,1.4834248046875,-0.1662474125623703,-0.3390252888202667,-0.15533430874347687
1772794832965470000,1.493469970703125,-0.16880963742733002,-0.3316536545753479,-0.17842231690883636
1772794832975513900,1.503513916015625,-0.18253405392169952,-0.30513864755630493,-0.18361683189868927
1772794832985558800,1.513558837890625,-0.20246700942516327,-0.27380311489105225,-0.17855310440063477
1772794832995603000,1.52360302734375,-0.22910578548908234,-0.24250955879688263,-0.16911278665065765
1772794833005648000,1.53364794921875,-0.25956782698631287,-0.2249649167060852,-0.15845908224582672
1772794833015691800,1.54369189453125,-0.2850300073623657,-0.22549520432949066,-0.14083556830883026
1772794833025736700,1.55373681640625,-0.2956882417201996,-0.25237154960632324,-0.11200631409883499
1772794833035780900,1.56378076171875,-0.2929930090904236,-0.27727213501930237,-0.07503623515367508
1772794833045826000,1.573825927734375,-0.2853587865829468,-0.28486427664756775,-0.036321599036455154
1772794833055871000,1.58387109375,-0.2690831124782562,-0.2935884892940521,0.010522269643843174
1772794833065915100,1.5939150390625,-0.24305126070976257,-0.30144134163856506,0.059887420386075974
1772794833075959800,1.603959716796875,-0.20173200964927673,-0.31714341044425964,0.10642705112695694
1772794833086004000,1.61400390625,-0.14692361652851105,-0.3312840163707733,0.1525958776473999
1772794833096049200,1.624049072265625,-0.06714633852243423,-0.3314442038536072,0.18669994175434113
1772794833106093000,1.634093017578125,0.016777055338025093,-0.2739145755767822,0.2138575315475464
1772794833116138000,1.644137939453125,0.10275314003229141,-0.06710051000118256,0.22115805745124817
1772794833126182100,1.65418212890625,0.11012770235538483,0.10605582594871521,0.1879953145980835
1772794833136226800,1.664226806640625,0.07378768175840378,-0.018199775367975235,0.11454267799854279
1772794833146272000,1.67427197265625,0.060829274356365204,-0.06745200604200363,0.08464284241199493
1772794833156316200,1.684316162109375,0.026447143405675888,-0.05882836505770683,0.10341030359268188
1772794833166361000,1.694361083984375,-0.0326787605881691,0.04612201824784279,0.16097666323184967
1772794833176405000,1.704405029296875,-0.09324054419994354,0.12376251816749573,0.27712246775627136
1772794833186450000,1.714449951171875,-0.14847317337989807,0.188897043466568,0.43845704197883606
1772794833196494000,1.724494140625,-0.18911106884479523,0.20919395983219147,0.6346913576126099
1772794833206539000,1.7345390625,-0.21681086719036102,0.17230865359306335,0.8530713319778442
1772794833216583000,1.7445830078125,-0.23526442050933838,0.11109424382448196,1.0905544757843018
1772794833226628000,1.754628173828125,-0.2547861933708191,0.07449042797088623,1.331656575202942
1772794833236672000,1.764672119140625,-0.2786170542240143,0.15928971767425537,1.4970048666000366
1772794833246717000,1.774717041015625,-0.2699434161186218,0.10007939487695694,1.501680850982666
1772794833256761000,1.784760986328125,-0.24320858716964722,-0.2092503011226654,1.323251485824585
1772794833266805800,1.7948056640625,-0.22962726652622223,-0.5160163640975952,1.005178689956665
1772794833276851000,1.804850830078125,-0.23155227303504944,-0.5519651174545288,0.6767457723617554
1772794833286895000,1.81489501953125,-0.23873402178287506,-0.37488994002342224,0.3766655921936035
1772794833296940000,1.82493994140625,-0.2480902522802353,-0.18100377917289734,0.09996232390403748
1772794833306984000,1.83498388671875,-0.26228758692741394,-0.032444391399621964,-0.15227045118808746
1772794833317029000,1.845029052734375,-0.26285725831985474,0.09235665947198868,-0.3535872995853424
1772794833327073000,1.855072998046875,-0.24336160719394684,0.19588784873485565,-0.5098623633384705
1772794833337118000,1.865117919921875,-0.21355003118515015,0.23345749080181122,-0.6181976199150085
1772794833347162000,1.875162109375,-0.1802661120891571,0.23157784342765808,-0.6637342572212219
1772794833357207000,1.88520703125,-0.17948263883590698,0.17471104860305786,-0.6504268646240234
1772794833367252000,1.895251953125,-0.18372106552124023,0.08231133222579956,-0.589863657951355
1772794833377296000,1.9052958984375,-0.1996782273054123,-0.03729022294282913,-0.48767516016960144
1772794833387341000,1.915341064453125,-0.2315424084663391,-0.15762968361377716,-0.36158913373947144
1772794833397385000,1.925385009765625,-0.26469236612319946,-0.24337953329086304,-0.22232787311077118
1772794833407430000,1.935429931640625,-0.27846384048461914,-0.2803095579147339,-0.0836448147892952
1772794833417474000,1.94547412109375,-0.24774305522441864,-0.2620282769203186,0.05282914265990257
1772794833427519000,1.95551904296875,-0.18451987206935883,-0.2154621034860611,0.17151904106140137
1772794833437563000,1.96556298828125,-0.09307995438575745,-0.17905621230602264,0.2573511600494385
1772794833447608000,1.975608154296875,0.006432787049561739,-0.1508658528327942,0.3151063323020935
1772794833457652000,1.98565185546875,0.0991842970252037,-0.12361558526754379,0.3382422924041748
1772794833467697000,1.99569677734375,0.17406465113162994,-0.08932072669267654,0.33281397819519043
1772794833477742000,2.0057421875,0.22536607086658478,-0.04475574567914009,0.29319363832473755
1772794833487786000,2.015785888671875,0.273148775100708,0.01848873868584633,0.20765608549118042
1772794833497831200,2.0258310546875,0.3274706304073334,0.09306241571903229,0.08350792527198792
1772794833507875000,2.035875,0.41911718249320984,0.07099492847919464,-0.07815314084291458
1772794833517920000,2.045919921875,0.4926888048648834,0.09981086105108261,-0.2543640732765198
1772794833527964000,2.0559638671875,0.5312737822532654,0.1469155102968216,-0.43085336685180664
1772794833538008800,2.0660087890625,0.5283043384552002,0.1457197517156601,-0.5854386687278748
1772794833548053000,2.076052978515625,0.5051742792129517,0.09315748512744904,-0.6950312256813049
1772794833558098200,2.08609814453125,0.4650736451148987,0.07768882066011429,-0.7670242190361023
1772794833568141800,2.096141845703125,0.40278175473213196,0.06035643815994263,-0.8016615509986877
1772794833578187000,2.10618701171875,0.32749128341674805,0.005708904005587101,-0.811435341835022
1772794833588232000,2.11623193359375,0.24911175668239594,-0.04667334258556366,-0.800514817237854
1772794833598275800,2.12627587890625,0.17023198306560516,-0.11610608547925949,-0.7793276906013489
1772794833608321000,2.136321044921875,0.10520583391189575,-0.21805723011493683,-0.748910129070282
1772794833618365000,2.146364990234375,0.055573720484972,-0.32874879240989685,-0.706559956073761
1772794833628410000,2.15641015625,0.02843211404979229,-0.4033242464065552,-0.6647371649742126
1772794833638454000,2.1664541015625,0.01693599857389927,-0.44432705640792847,-0.6283897757530212
1772794833648499000,2.1764990234375,0.0353458970785141,-0.47304606437683105,-0.6068102121353149
1772794833658542800,2.18654296875,0.07536680996417999,-0.5005326867103577,-0.5873649716377258
1772794833668588000,2.196588134765625,0.13634707033634186,-0.5350115299224854,-0.5741762518882751
1772794833678632000,2.2066318359375,0.21234284341335297,-0.566129207611084,-0.540777862071991
1772794833688677000,2.216677001953125,0.25803470611572266,-0.5252896547317505,-0.47950175404548645
1772794833698721800,2.2267216796875,0.2562316060066223,-0.437303364276886,-0.3986425995826721
1772794833708766000,2.236765869140625,0.22692564129829407,-0.3343346118927002,-0.3292720317840576
1772794833718811100,2.24681103515625,0.18381890654563904,-0.25451913475990295,-0.28346672654151917
1772794833728854800,2.256854736328125,0.15194487571716309,-0.2094443440437317,-0.2543637156486511
1772794833738900000,2.26689990234375,0.13416117429733276,-0.155131533741951,-0.23481953144073486
1772794833748944100,2.276944091796875,0.12370907515287399,-0.0795009657740593,-0.21287907660007477
1772794833758989000,2.286989013671875,0.1083187684416771,0.0053996676579117775,-0.19060297310352325
1772794833769033000,2.297032958984375,0.08778073638677597,0.07584826648235321,-0.17956256866455078
1772794833779078000,2.307077880859375,0.08378595858812332,0.13023144006729126,-0.1577468365430832
1772794833789122000,2.3171220703125,0.09280688315629959,0.1894710659980774,-0.13437466323375702
1772794833799167000,2.3271669921875,0.10276518017053604,0.2404816746711731,-0.11639365553855896
1772794833809212000,2.3372119140625,0.10294787585735321,0.25825825333595276,-0.10133321583271027
1772794833819256000,2.347256103515625,0.08404082804918289,0.2487640678882599,-0.09556585550308228
1772794833829301000,2.357301025390625,0.03698943182826042,0.21413099765777588,-0.09764125943183899
1772794833839345000,2.367344970703125,-0.026706969365477562,0.12738272547721863,-0.09242914617061615
1772794833849390000,2.37739013671875,-0.09682054072618484,0.015349662862718105,-0.08348358422517776
1772794833859434000,2.38743408203125,-0.1579151600599289,-0.09537643939256668,-0.06026838347315788
1772794833869479000,2.39747900390625,-0.19288566708564758,-0.1827361136674881,-0.03208095207810402
1772794833879523000,2.407523193359375,-0.21140451729297638,-0.24361708760261536,-0.010395030491054058
1772794833889568000,2.417568115234375,-0.21583256125450134,-0.27524399757385254,-0.003955240361392498
1772794833899612000,2.42761181640625,-0.21112613379955292,-0.29641595482826233,-0.0042372094467282295
1772794833909657000,2.437656982421875,-0.20960412919521332,-0.3165135085582733,-0.002277389168739319
1772794833919702000,2.447701904296875,-0.21142472326755524,-0.32151034474372864,0.006775743793696165
1772794833929746000,2.457745849609375,-0.20352020859718323,-0.30955833196640015,0.017669670283794403
1772794833939790800,2.467790771484375,-0.1968528777360916,-0.2964291274547577,0.032129671424627304
1772794833949835000,2.4778349609375,-0.18718479573726654,-0.2703045904636383,0.034299347549676895
1772794833959880000,2.4878798828125,-0.16458894312381744,-0.22996219992637634,0.034304141998291016
1772794833969924000,2.497924072265625,-0.1299835592508316,-0.19244864583015442,0.0283099003136158
1772794833979969000,2.507968994140625,-0.07864077389240265,-0.14328888058662415,0.027239112183451653
1772794833990013000,2.518012939453125,-0.03364986926317215,-0.09736240655183792,0.02102622389793396
1772794834000057900,2.528057861328125,-0.0070563312619924545,-0.07358559221029282,0.005413330625742674
1772794834010102000,2.53810205078125,0.023744724690914154,-0.03600333258509636,-0.004776190035045147
1772794834020147200,2.548147216796875,0.07388981431722641,0.023151306435465813,-0.008837014436721802
1772794834030190800,2.55819091796875,0.134933739900589,0.0723971500992775,-0.02085879072546959
1772794834040236000,2.568236083984375,0.15423189103603363,0.10233419388532639,-0.0442047119140625
1772794834050280400,2.578280517578125,0.14015281200408936,0.13753345608711243,-0.06026517227292061
1772794834060324000,2.588323974609375,0.11554630845785141,0.204025998711586,-0.07670466601848602
1772794834070369300,2.598369384765625,0.07315783947706223,0.27602532505989075,-0.0935550183057785
1772794834080413400,2.608413330078125,-0.009175438433885574,0.31032419204711914,-0.12393952906131744
1772794834090458400,2.618458251953125,-0.10088272392749786,0.31795626878738403,-0.1551656275987625
1772794834100502300,2.628502197265625,-0.16156010329723358,0.3456513583660126,-0.16533233225345612
1772794834110547200,2.638547119140625,-0.17512890696525574,0.3841491937637329,-0.15569275617599487
1772794834120591000,2.648591064453125,-0.17915847897529602,0.3830207884311676,-0.13856250047683716
1772794834130636300,2.65863623046875,-0.16501016914844513,0.3730563223361969,-0.08858321607112885
1772794834140680200,2.66868017578125,-0.10207460075616837,0.401790052652359,-0.018231047317385674
1772794834150725400,2.678725341796875,-0.001884344150312245,0.3689913749694824,0.04701773077249527
1772794834160770300,2.688770263671875,0.12981177866458893,0.2569543421268463,0.11002751439809799
1772794834170814200,2.698814208984375,0.2683236002922058,0.1467711180448532,0.1703273355960846
1772794834180859400,2.708859375,0.3925778865814209,0.01784418895840645,0.22585994005203247
1772794834190903300,2.7189033203125,0.49391382932662964,-0.11966253817081451,0.2804771363735199
1772794834200948200,2.7289482421875,0.5715191960334778,-0.2434464693069458,0.3383544385433197
1772794834210992400,2.738992431640625,0.6006960272789001,-0.31997719407081604,0.40183383226394653
1772794834221037300,2.749037353515625,0.5763047337532043,-0.3306662440299988,0.45395854115486145
1772794834231081200,2.759081298828125,0.532697319984436,-0.26740604639053345,0.4905815124511719
1772794834241126400,2.76912646484375,0.4895067811012268,-0.14659686386585236,0.49139514565467834
1772794834251170300,2.77917041015625,0.4485601484775543,-0.01168697141110897,0.4659353196620941
1772794834261215200,2.78921533203125,0.41441845893859863,0.10603588074445724,0.4181846082210541
1772794834271259400,2.79925927734375,0.37732142210006714,0.1954864114522934,0.3708517253398895
1772794834281304300,2.80930419921875,0.33819711208343506,0.25255879759788513,0.3111335039138794
1772794834291349200,2.819349365234375,0.2954416573047638,0.28006231784820557,0.2508626878261566
1772794834301393200,2.82939306640625,0.267905592918396,0.2685069441795349,0.1874048262834549
1772794834311438300,2.839438232421875,0.23510797321796417,0.25501352548599243,0.12786373496055603
1772794834321482200,2.849482177734375,0.2002066969871521,0.27071690559387207,0.07370031625032425
1772794834331527200,2.859527099609375,0.15250122547149658,0.2837805151939392,0.030291326344013214
1772794834341571300,2.8695712890625,0.1531231850385666,0.2508373260498047,-0.005979758687317371
1772794834351616300,2.8796162109375,0.1803199201822281,0.19854216277599335,-0.04084932431578636
1772794834361660200,2.88966015625,0.2108851820230484,0.12147841602563858,-0.06264127790927887
1772794834371705300,2.899705322265625,0.23059949278831482,0.03722958266735077,-0.07905407249927521
1772794834381749500,2.90974951171875,0.22744221985340118,-0.04668920859694481,-0.09480202198028564
1772794834391794200,2.919794189453125,0.2088027447462082,-0.1320837289094925,-0.10378805547952652
1772794834401839400,2.92983935546875,0.18655507266521454,-0.21175828576087952,-0.10710206627845764
1772794834411883300,2.93988330078125,0.1743394136428833,-0.24574315547943115,-0.11163849383592606
1772794834421928200,2.94992822265625,0.17773564159870148,-0.2270997315645218,-0.11847459524869919
1772794834431972400,2.959972412109375,0.1982606202363968,-0.16524487733840942,-0.13147880136966705
1772794834442017300,2.970017333984375,0.2337883561849594,-0.08459805697202682,-0.15204384922981262
1772794834452061200,2.980061279296875,0.28636449575424194,0.013297352008521557,-0.16988970339298248
1772794834462106000,2.990106201171875,0.34884822368621826,0.11026658117771149,-0.18361549079418182
1772794834472150300,3.000150390625,0.40844258666038513,0.17007052898406982,-0.1852743774652481
1772794834482195500,3.010195556640625,0.4656964838504791,0.19028978049755096,-0.18718916177749634
1772794834492239400,3.0202392578125,0.5212620496749878,0.1847730427980423,-0.17695435881614685
1772794834502284300,3.0302841796875,0.5776194930076599,0.1766452044248581,-0.1566537320613861
1772794834512328400,3.040328369140625,0.630001425743103,0.1840202957391739,-0.13199472427368164
1772794834522373000,3.050373046875,0.6776504516601562,0.19187825918197632,-0.10247450321912766
1772794834532418300,3.060418212890625,0.692470908164978,0.18837380409240723,-0.08851687610149384
1772794834542462500,3.07046240234375,0.6969480514526367,0.18217666447162628,-0.08214682340621948
1772794834552507100,3.080507080078125,0.7097669243812561,0.20548810064792633,-0.08066371083259583
1772794834562551300,3.09055126953125,0.6923069357872009,0.17579439282417297,-0.08367707580327988
1772794834572596200,3.10059619140625,0.6854658126831055,0.15157108008861542,-0.09765733778476715
1772794834582640000,3.11064013671875,0.6963344216346741,0.1214374452829361,-0.11179661750793457
1772794834592685300,3.120685302734375,0.7232435345649719,0.09951724112033844,-0.12693054974079132
1772794834602729200,3.130729248046875,0.7575402855873108,0.08273384720087051,-0.14377892017364502
1772794834612774400,3.1407744140625,0.8023203015327454,0.08975047618150711,-0.17276662588119507
1772794834622818300,3.150818359375,0.8100181221961975,0.07656537741422653,-0.21280638873577118
1772794834632863200,3.16086328125,0.7772719264030457,0.05710965394973755,-0.250346839427948
1772794834642907400,3.170907470703125,0.7516571283340454,0.03716455027461052,-0.28399839997291565
1772794834652952300,3.180952392578125,0.75057053565979,0.0009005526080727577,-0.3074400722980499
1772794834662997200,3.190997314453125,0.7680922746658325,-0.032932136207818985,-0.317832350730896
1772794834673041400,3.20104150390625,0.790774941444397,-0.057416707277297974,-0.32126569747924805
1772794834683086300,3.21108642578125,0.8179484605789185,-0.05429564788937569,-0.31650033593177795
1772794834693130200,3.221130126953125,0.8591038584709167,-0.025660008192062378,-0.3048711121082306
1772794834703175400,3.231175537109375,0.9248508810997009,0.008883082307875156,-0.28965309262275696
1772794834713219000,3.241218994140625,1.0137423276901245,0.023806903511285782,-0.25466635823249817
1772794834723264300,3.25126416015625,1.1157593727111816,0.02262604422867298,-0.20688681304454803
1772794834733308400,3.261308349609375,1.2057782411575317,0.016570549458265305,-0.14996573328971863
1772794834743353300,3.271353271484375,1.2871171236038208,0.008372640237212181,-0.08788406848907471
1772794834753397200,3.281397216796875,1.353529930114746,-0.0032525896094739437,-0.03297235816717148
1772794834763442200,3.291442138671875,1.4004039764404297,-0.030412621796131134,0.005062686745077372
1772794834773487400,3.3014873046875,1.4324761629104614,-0.06281796842813492,0.02923540025949478
1772794834783531300,3.31153125,1.438796877861023,-0.098117895424366,0.0283347200602293
1772794834793576200,3.321576171875,1.4334518909454346,-0.11740823835134506,0.02062380313873291
1772794834803620400,3.331620361328125,1.4245854616165161,-0.13210836052894592,0.0050936052575707436
1772794834813665300,3.341665283203125,1.4185874462127686,-0.15514017641544342,-0.011180173605680466
1772794834823709200,3.351709228515625,1.406231164932251,-0.19738121330738068,-0.03223128616809845
1772794834833754400,3.36175439453125,1.3850241899490356,-0.2618430554866791,-0.0480954684317112
1772794834843798300,3.37179833984375,1.356471061706543,-0.32095688581466675,-0.048016466200351715
1772794834853843200,3.38184326171875,1.323441743850708,-0.3719891905784607,-0.027496811002492905
1772794834863887400,3.391887451171875,1.2729567289352417,-0.40591734647750854,0.013131892308592796
1772794834873932300,3.401932373046875,1.2025060653686523,-0.4193921387195587,0.06459880620241165
1772794834883976200,3.41197607421875,1.1452357769012451,-0.37800896167755127,0.12549272179603577
1772794834894021400,3.422021484375,1.10845148563385,-0.30088645219802856,0.18733665347099304
1772794834904065300,3.432065185546875,1.0956945419311523,-0.2117505669593811,0.23409968614578247
1772794834914110200,3.442110107421875,1.1172118186950684,-0.12102757394313812,0.2742990553379059
1772794834924155100,3.452155029296875,1.1509603261947632,-0.05162252485752106,0.30907315015792847
1772794834934199300,3.46219921875,1.17244291305542,-0.018577225506305695,0.337124228477478
1772794834944244500,3.472244384765625,1.1547166109085083,-0.01429332047700882,0.35813823342323303
1772794834954288000,3.4822880859375,1.0853883028030396,-0.05123429372906685,0.35527321696281433
1772794834964333300,3.492333251953125,0.9746825098991394,-0.12961503863334656,0.3154186010360718
1772794834974377500,3.50237744140625,0.8336820006370544,-0.22295059263706207,0.2480129450559616
1772794834984422100,3.512422119140625,0.6847640872001648,-0.31828734278678894,0.15568022429943085
1772794834994466300,3.52246630859375,0.5527501106262207,-0.363666296005249,0.07593560218811035
1772794835004511200,3.53251123046875,0.4451998770236969,-0.3228580355644226,0.028393317013978958
1772794835014555100,3.54255517578125,0.3644089102745056,-0.22483773529529572,0.020229129120707512
1772794835024600300,3.552600341796875,0.3262483477592468,-0.09363478422164917,0.04953752085566521
1772794835034644500,3.56264453125,0.3326444625854492,0.051482193171978,0.10241112112998962
1772794835044690000,3.57268994140625,0.3727308213710785,0.19804739952087402,0.16848337650299072
1772794835054734800,3.58273486328125,0.4646333158016205,0.29774895310401917,0.23454494774341583
1772794835064778800,3.59277880859375,0.5820333957672119,0.3876427412033081,0.30126050114631653
1772794835074824000,3.602823974609375,0.6735867261886597,0.40401023626327515,0.35149306058883667
1772794835084867800,3.612867919921875,0.7182677388191223,0.2972637712955475,0.37087318301200867
1772794835094913000,3.6229130859375,0.7212957143783569,0.129896879196167,0.36548560857772827
1772794835104957000,3.63295703125,0.6986145377159119,-0.03952374309301376,0.3326306641101837
1772794835115001900,3.643001953125,0.6628301739692688,-0.180677130818367,0.29459673166275024
1772794835125046000,3.6530458984375,0.6205853819847107,-0.26401638984680176,0.24366068840026855
1772794835135091000,3.663091064453125,0.5751824975013733,-0.27708345651626587,0.1925002932548523
1772794835145134800,3.673134765625,0.5311211943626404,-0.2580926716327667,0.14522090554237366
1772794835155180000,3.683179931640625,0.49409475922584534,-0.21395689249038696,0.11583958566188812
1772794835165224000,3.693223876953125,0.45987629890441895,-0.12632004916667938,0.09500601142644882
1772794835175268900,3.703268798828125,0.4367273151874542,0.010687870904803276,0.0850207507610321
1772794835185314000,3.71331396484375,0.42839619517326355,0.1609826236963272,0.07371927052736282
1772794835195357700,3.723357666015625,0.44947004318237305,0.28227710723876953,0.068739153444767
1772794835205403000,3.73340283203125,0.49087151885032654,0.33937206864356995,0.06519584357738495
1772794835215447000,3.743447021484375,0.5475337505340576,0.36124247312545776,0.07504954189062119
1772794835225492000,3.753491943359375,0.6123769879341125,0.34626346826553345,0.0919843390583992
1772794835235536000,3.763535888671875,0.6805525422096252,0.314760684967041,0.10505539923906326
1772794835245580800,3.773580810546875,0.7507643103599548,0.2836878299713135,0.10887753218412399
1772794835255625000,3.783625,0.8238270282745361,0.2622307240962982,0.11296681314706802
1772794835265670000,3.793669921875,0.8863710761070251,0.2665199041366577,0.11348307132720947
1772794835275714000,3.803714111328125,0.9156426787376404,0.2652581036090851,0.10779616236686707
1772794835285759000,3.813759033203125,0.9152286648750305,0.2360493540763855,0.09321127831935883
1772794835295803000,3.823802978515625,0.8937164545059204,0.18937452137470245,0.06517405062913895
1772794835305847800,3.833847900390625,0.8597872853279114,0.12626023590564728,0.028217120096087456
1772794835315893000,3.84389306640625,0.8209746479988098,0.03924677520990372,-0.01707313023507595
1772794835325937000,3.85393701171875,0.7854222059249878,-0.055543769150972366,-0.06750418245792389
1772794835335981800,3.86398193359375,0.7600191235542297,-0.12902705371379852,-0.11708346009254456
1772794835346026000,3.87402587890625,0.7471227049827576,-0.17498745024204254,-0.16355416178703308
1772794835356071000,3.88407080078125,0.7415942549705505,-0.18896877765655518,-0.20210102200508118
1772794835366114800,3.89411474609375,0.7336852550506592,-0.18109935522079468,-0.23280362784862518
1772794835376160000,3.904159912109375,0.7250299453735352,-0.15001173317432404,-0.2415318638086319
1772794835386204000,3.914203857421875,0.7262128591537476,-0.09096530824899673,-0.2333206683397293
1772794835396248800,3.924248779296875,0.7395681142807007,-0.03222609683871269,-0.21301007270812988
1772794835406293000,3.93429296875,0.7710829973220825,0.04180687293410301,-0.18291908502578735
1772794835416338000,3.944337890625,0.8159868121147156,0.09699475765228271,-0.15386879444122314
1772794835426381800,3.9543818359375,0.850652277469635,0.14959046244621277,-0.13171909749507904
1772794835436426800,3.9644267578125,0.8724198937416077,0.18834291398525238,-0.11282823234796524
1772794835446471000,3.974470947265625,0.8715255856513977,0.21758006513118744,-0.1020391508936882
1772794835456515800,3.984515869140625,0.8575320243835449,0.19688783586025238,-0.09948065131902695
1772794835466559000,3.99455908203125,0.8242021203041077,0.12522351741790771,-0.11068195104598999
1772794835476603000,4.004602783203125,0.7754322290420532,0.03620736300945282,-0.11479280143976212
1772794835486647800,4.014647705078125,0.7102288603782654,-0.036207038909196854,-0.11667896807193756
1772794835496692000,4.02469189453125,0.632546603679657,-0.08423688262701035,-0.12286735326051712
1772794835506737000,4.03473681640625,0.5599520802497864,-0.10007581859827042,-0.1274586021900177
1772794835516781800,4.04478173828125,0.49032074213027954,-0.09149298071861267,-0.14117707312107086
1772794835526826000,4.054825927734375,0.4286474883556366,-0.052781812846660614,-0.1557900756597519
1772794835536871000,4.064870849609375,0.3608167767524719,-0.003554878756403923,-0.1651151329278946
1772794835546914800,4.074914794921875,0.28071320056915283,0.052920546382665634,-0.17206217348575592
1772794835556959700,4.084959716796875,0.191433385014534,0.10896889865398407,-0.1734803020954132
1772794835567004000,4.09500390625,0.09325755387544632,0.15322594344615936,-0.17898224294185638
1772794835577049000,4.105049072265625,-0.004223457537591457,0.16373558342456818,-0.1867365688085556
1772794835587093000,4.115093017578125,-0.10998021811246872,0.12431846559047699,-0.19870860874652863
1772794835597138000,4.125137939453125,-0.21125571429729462,0.06657660007476807,-0.21635258197784424
1772794835607181800,4.135181884765625,-0.2989964485168457,-0.005063970573246479,-0.23481236398220062
1772794835617226800,4.145226806640625,-0.352287620306015,-0.04693019390106201,-0.25408750772476196
1772794835627271000,4.15527099609375,-0.37541961669921875,-0.05833002179861069,-0.2614981234073639
1772794835637316000,4.165316162109375,-0.3781093955039978,-0.04714713990688324,-0.2595268487930298
1772794835647359700,4.17535986328125,-0.35805177688598633,-0.03640256077051163,-0.24698634445667267
1772794835657405000,4.185405029296875,-0.3233489394187927,-0.023808736354112625,-0.21319669485092163
1772794835667449900,4.195449951171875,-0.28212225437164307,-0.017445608973503113,-0.17149929702281952
1772794835677493800,4.20549365234375,-0.24090956151485443,-0.012420492246747017,-0.11959909647703171
1772794835687539000,4.2155390625,-0.2140302211046219,-0.0027790938038378954,-0.0700744017958641
1772794835697582800,4.225582763671875,-0.19606240093708038,0.0021432270295917988,-0.018036499619483948
1772794835707628000,4.2356279296875,-0.1601257622241974,-0.0019765314646065235,0.04053054377436638
1772794835717672000,4.245671875,-0.10964847356081009,-0.0005978131666779518,0.10101519525051117
1772794835727716900,4.255716796875,-0.06119491159915924,0.016768235713243484,0.15792737901210785
1772794835737761000,4.265760986328125,-0.04548092931509018,0.02462908998131752,0.19724974036216736
1772794835747806000,4.275805908203125,-0.0651560053229332,0.006999134086072445,0.21270598471164703
1772794835757849900,4.285849853515625,-0.12961941957473755,-0.026174530386924744,0.1968412697315216
1772794835767895000,4.29589501953125,-0.22717131674289703,-0.06533674895763397,0.15981525182724
1772794835777939000,4.30593896484375,-0.34968045353889465,-0.11448272317647934,0.08892350643873215
1772794835787984000,4.31598388671875,-0.4855404496192932,-0.16448774933815002,-0.002684743609279394
1772794835798029000,4.326029052734375,-0.6163972616195679,-0.18461059033870697,-0.0999886617064476
1772794835808072700,4.33607275390625,-0.7324764728546143,-0.14164865016937256,-0.1846424639225006
1772794835818119000,4.346118896484375,-0.8291028738021851,-0.04855945706367493,-0.24260669946670532
1772794835828162800,4.356162841796875,-0.8981664180755615,0.04787924140691757,-0.2578029930591583
1772794835838208000,4.3662080078125,-0.9398601055145264,0.13457179069519043,-0.23184621334075928
1772794835848252000,4.376251953125,-0.9733107089996338,0.2382197231054306,-0.16248029470443726
1772794835858296800,4.386296875,-0.9547405242919922,0.3264334797859192,-0.04438215494155884
1772794835868341000,4.396341064453125,-0.9029492139816284,0.46066129207611084,0.09345964342355728
1772794835878386000,4.406385986328125,-0.8285266160964966,0.5672407150268555,0.23289130628108978
1772794835888429800,4.416429931640625,-0.7546865940093994,0.6869994401931763,0.3520573377609253
1772794835898475000,4.42647509765625,-0.6858393549919128,0.7527374625205994,0.44422242045402527
1772794835908519000,4.436518798828125,-0.5758998394012451,0.7493839263916016,0.518156111240387
1772794835918563800,4.446563720703125,-0.4223605692386627,0.743158757686615,0.5773099660873413
1772794835928608800,4.45660888671875,-0.22882404923439026,0.7250046730041504,0.6183285713195801
1772794835938653000,4.46665283203125,-0.03666287288069725,0.7017728686332703,0.6435856819152832
1772794835948697900,4.47669775390625,0.1265767514705658,0.6535845398902893,0.6579306125640869
1772794835958742000,4.486741943359375,0.24345755577087402,0.5986741185188293,0.6634089946746826
1772794835968787000,4.496786865234375,0.3095250725746155,0.5236343741416931,0.6544899940490723
1772794835978830800,4.506830810546875,0.34616804122924805,0.4346911907196045,0.6370505690574646
1772794835988875800,4.516875732421875,0.3579155206680298,0.3421330451965332,0.6105813384056091
1772794835998920000,4.526919921875,0.3524792194366455,0.25706610083580017,0.5863279700279236
1772794836008965000,4.536965087890625,0.3269176781177521,0.20673242211341858,0.5645029544830322
1772794836019008800,4.5470087890625,0.2727716267108917,0.20966163277626038,0.5380250215530396
1772794836029054000,4.557053955078125,0.18435198068618774,0.23142732679843903,0.49245789647102356
1772794836039098000,4.56709814453125,0.07265979796648026,0.2501365542411804,0.42700645327568054
1772794836049142000,4.57714208984375,-0.028983084484934807,0.2591326832771301,0.3262649178504944
1772794836059187200,4.587187255859375,-0.11514193564653397,0.2625148892402649,0.20018956065177917
1772794836069231400,4.5972314453125,-0.18424910306930542,0.2698635160923004,0.05101535841822624
1772794836079276000,4.607276123046875,-0.25750523805618286,0.27611127495765686,-0.09562414884567261
1772794836089320200,4.6173203125,-0.33369165658950806,0.28222155570983887,-0.22828805446624756
1772794836099365000,4.627365234375,-0.3993875980377197,0.27628856897354126,-0.34154775738716125
1772794836109409000,4.637408935546875,-0.4261358976364136,0.24691125750541687,-0.4396016597747803
1772794836119454200,4.6474541015625,-0.4059973359107971,0.2247345745563507,-0.5066115260124207
1772794836129498400,4.657498291015625,-0.3525948226451874,0.20617464184761047,-0.5547089576721191
1772794836139543000,4.66754296875,-0.28648850321769714,0.18333616852760315,-0.5772534608840942
1772794836149587200,4.677587158203125,-0.20905284583568573,0.1776372343301773,-0.5739305019378662
1772794836159632100,4.687632080078125,-0.12692655622959137,0.1797427237033844,-0.5371924638748169
1772794836169676000,4.697676025390625,-0.054941821843385696,0.1734064668416977,-0.4955509901046753
1772794836179721200,4.70772119140625,0.004860525950789452,0.15979133546352386,-0.4434038996696472
1772794836189765000,4.71776513671875,0.04765906184911728,0.130075141787529,-0.390932559967041
1772794836199810300,4.727810302734375,0.07872084528207779,0.0943155363202095,-0.3420233428478241
1772794836209854200,4.737854248046875,0.09079515188932419,0.07070497423410416,-0.2951605021953583
1772794836219899100,4.747899169921875,0.08114945143461227,0.038787517696619034,-0.2558261454105377
1772794836229944300,4.7579443359375,0.05846700817346573,-0.0052071609534323215,-0.22751426696777344
1772794836239988000,4.767988037109375,0.03559551760554314,-0.05987599864602089,-0.19559521973133087
1772794836250033200,4.778033203125,0.017303384840488434,-0.08880553394556046,-0.16570056974887848
1772794836260077300,4.788077392578125,0.001301250304095447,-0.10996754467487335,-0.14596521854400635
1772794836270122000,4.7981220703125,-0.011048221960663795,-0.12094463407993317,-0.13481071591377258
1772794836280166100,4.808166259765625,-0.017714112997055054,-0.11005150526762009,-0.135486900806427
1772794836290211300,4.81821142578125,-0.02379729598760605,-0.09130541235208511,-0.1432168185710907
1772794836300255000,4.8282548828125,-0.034128230065107346,-0.07081078737974167,-0.15215332806110382
1772794836310300200,4.838300048828125,-0.04371609538793564,-0.04800613224506378,-0.1663069874048233
1772794836320344300,4.84834423828125,-0.055193785578012466,-0.016994953155517578,-0.1663607805967331
1772794836330389200,4.85838916015625,-0.06575347483158112,0.020068634301424026,-0.15653222799301147
1772794836340433200,4.86843310546875,-0.07035142183303833,0.05217676982283592,-0.13685627281665802
1772794836350478000,4.87847802734375,-0.06876072287559509,0.05970914289355278,-0.1067374050617218
1772794836360522200,4.888522216796875,-0.04847649484872818,0.06096562370657921,-0.0723743662238121
1772794836370567200,4.898567138671875,-0.01673215813934803,0.03731345012784004,-0.04524969309568405
1772794836380612000,4.908612060546875,0.012456887401640415,0.0006321361288428307,-0.02328474074602127
1772794836390656300,4.91865625,0.05702817067503929,-0.027347927913069725,-0.00718294084072113
1772794836400701000,4.928700927734375,0.1102847307920456,-0.0495845228433609,0.006650316994637251
1772794836410745000,4.9387451171875,0.16490395367145538,-0.06201569363474846,0.02180352993309498
1772794836420790300,4.948790283203125,0.21770831942558289,-0.08046047389507294,0.03470095247030258
1772794836430834200,4.958834228515625,0.25303536653518677,-0.08731386810541153,0.04623512923717499
1772794836440879000,4.968879150390625,0.26924389600753784,-0.07914089411497116,0.050367023795843124
1772794836450923300,4.97892333984375,0.2690056264400482,-0.06766217201948166,0.05236653983592987
1772794836460968200,4.98896826171875,0.2559766471385956,-0.06159469485282898,0.041813500225543976
1772794836471012000,4.99901220703125,0.23238664865493774,-0.07193905115127563,0.04091184213757515
1772794836481057300,5.009057373046875,0.19326987862586975,-0.06419350951910019,0.0449041873216629
1772794836491101200,5.01910107421875,0.13232611119747162,-0.0370725654065609,0.06274698674678802
1772794836501146000,5.02914599609375,0.060045525431632996,0.009013967588543892,0.0994381532073021
1772794836511190300,5.039190185546875,-0.008728687651455402,0.07305538654327393,0.13862963020801544
1772794836521235200,5.049235107421875,-0.06529688835144043,0.13254240155220032,0.18603523075580597
1772794836531279000,5.059279052734375,-0.09888730198144913,0.18372055888175964,0.23261301219463348
1772794836541324000,5.069323974609375,-0.10535585880279541,0.20050859451293945,0.276226282119751
1772794836551369200,5.079369140625,-0.0932655781507492,0.19858936965465546,0.32841822504997253
1772794836561413000,5.0894130859375,-0.06774397194385529,0.18543894588947296,0.3774243891239166
1772794836571458000,5.0994580078125,-0.030671468004584312,0.12910132110118866,0.41316914558410645
1772794836581502200,5.109502197265625,-0.003816684242337942,0.013822924345731735,0.42636775970458984
1772794836591547100,5.119547119140625,0.0008633676916360855,-0.1445237696170807,0.4213193953037262
1772794836601591000,5.129591064453125,-0.019715409725904465,-0.3506026268005371,0.39989879727363586
1772794836611636200,5.13963623046875,-0.09227269887924194,-0.5006387233734131,0.3569856882095337
1772794836621680400,5.149680419921875,-0.2020236998796463,-0.6121445298194885,0.2965782582759857
1772794836631725000,5.15972509765625,-0.3034769296646118,-0.645959198474884,0.22935666143894196
1772794836641769200,5.169769287109375,-0.36333972215652466,-0.5848071575164795,0.16439896821975708
1772794836651814100,5.179814208984375,-0.3714181184768677,-0.48117247223854065,0.11558836698532104
1772794836661858000,5.189858154296875,-0.33955660462379456,-0.3438758850097656,0.10517940670251846
1772794836671903200,5.1999033203125,-0.28587520122528076,-0.21061889827251434,0.13974229991436005
1772794836681947100,5.209947021484375,-0.2092406004667282,-0.08997371792793274,0.20981086790561676
1772794836691992000,5.219991943359375,-0.09969276934862137,-0.01869148761034012,0.297588050365448
1772794836702037000,5.230037109375,0.006859238259494305,0.03724714368581772,0.38750356435775757
1772794836712081200,5.2400810546875,0.10609196871519089,0.049510881304740906,0.4633244574069977
1772794836722126300,5.250126220703125,0.19384713470935822,0.033150285482406616,0.5269191861152649
1772794836732170000,5.260169921875,0.2697450518608093,0.00024340907111763954,0.558366596698761
1772794836742215200,5.270215087890625,0.32043299078941345,-0.011844946071505547,0.5687691569328308
1772794836752259300,5.28025927734375,0.35886090993881226,-0.00809908751398325,0.5661580562591553
1772794836762304000,5.290303955078125,0.3794362246990204,0.009881244972348213,0.5569323897361755
1772794836772348200,5.30034814453125,0.38529640436172485,0.02587350457906723,0.5429633259773254
1772794836782393300,5.310393310546875,0.38221538066864014,0.0373072549700737,0.517742395401001
1772794836792437000,5.32043701171875,0.3743346929550171,0.041871991008520126,0.4940643608570099
1772794836802482200,5.330482177734375,0.35979411005973816,0.0389302633702755,0.47174519300460815
1772794836812526300,5.3405263671875,0.3431857228279114,0.0030567720532417297,0.45340532064437866
1772794836822571000,5.350571044921875,0.3253268301486969,-0.04349927604198456,0.43223533034324646
1772794836832615200,5.360615234375,0.30124661326408386,-0.09791110455989838,0.41628292202949524
1772794836842660000,5.37066015625,0.27229538559913635,-0.1440594345331192,0.39965787529945374
1772794836852704000,5.3807041015625,0.2310219258069992,-0.18501655757427216,0.38240846991539
1772794836862749200,5.390749267578125,0.1689194142818451,-0.21065321564674377,0.36394956707954407
1772794836872793000,5.40079296875,0.08250972628593445,-0.22532770037651062,0.32311180233955383
1772794836882838300,5.41083837890625,-0.018963374197483063,-0.2413245141506195,0.26535794138908386
1772794836892883000,5.420883056640625,-0.13071443140506744,-0.24176229536533356,0.18633471429347992
1772794836902927000,5.430927001953125,-0.23755379021167755,-0.2420661598443985,0.09198930114507675
1772794836912972300,5.44097216796875,-0.32235822081565857,-0.24960553646087646,-0.013440204784274101
1772794836923016200,5.45101611328125,-0.38077548146247864,-0.24250181019306183,-0.10612832754850388
1772794836933061000,5.46106103515625,-0.4120612144470215,-0.2350059151649475,-0.1790010929107666
1772794836943105300,5.471105224609375,-0.42524147033691406,-0.22774668037891388,-0.22525034844875336
1772794836953150200,5.481150146484375,-0.4175727665424347,-0.20622533559799194,-0.24630248546600342
1772794836963194000,5.491194091796875,-0.371029794216156,-0.19145651161670685,-0.24226699769496918
1772794836973239300,5.5012392578125,-0.3162115216255188,-0.15791577100753784,-0.22436441481113434
1772794836983283000,5.511282958984375,-0.2572246193885803,-0.15392263233661652,-0.1865648478269577
1772794836993328000,5.521328125,-0.1946033388376236,-0.13478432595729828,-0.12963511049747467
1772794837003372300,5.531372314453125,-0.15618564188480377,-0.10409699380397797,-0.06377699226140976
1772794837013417200,5.541417236328125,-0.14775216579437256,-0.113826684653759,-0.009068123996257782
1772794837023461000,5.551461181640625,-0.1629478931427002,-0.1477324515581131,0.01904180645942688
1772794837033506000,5.561506103515625,-0.18023544549942017,-0.16588357090950012,0.023806080222129822
1772794837043551200,5.57155126953125,-0.1994331032037735,-0.14553436636924744,-0.0019056759774684906
1772794837053595400,5.581595458984375,-0.23255150020122528,-0.11305990815162659,-0.06043841689825058
1772794837063640300,5.591640380859375,-0.2690429389476776,-0.08255340158939362,-0.11910279095172882
1772794837073684200,5.601684326171875,-0.3192640244960785,-0.048214759677648544,-0.1847383677959442
1772794837083729200,5.611729248046875,-0.379639208316803,-0.02638882026076317,-0.23491604626178741
1772794837093773000,5.62177294921875,-0.4427644610404968,-0.03330191969871521,-0.2701866030693054
1772794837103818200,5.631818359375,-0.5127180218696594,-0.07251802831888199,-0.29565975069999695
1772794837113862400,5.6418623046875,-0.5877823829650879,-0.12680374085903168,-0.30432555079460144
1772794837123907300,5.6519072265625,-0.6603261232376099,-0.18603138625621796,-0.30011188983917236
1772794837133951200,5.661951171875,-0.7341457009315491,-0.2231733202934265,-0.2843117415904999
1772794837143996200,5.67199609375,-0.802883505821228,-0.23202992975711823,-0.26965558528900146
1772794837154040300,5.682040283203125,-0.8664030432701111,-0.2236027717590332,-0.26441165804862976
1772794837164085200,5.692085205078125,-0.9178459644317627,-0.20604321360588074,-0.2668455243110657
1772794837174129200,5.702129150390625,-0.9584845900535583,-0.17849034070968628,-0.2787216901779175
1772794837184174300,5.71217431640625,-0.9915791749954224,-0.15726947784423828,-0.2956881523132324
1772794837194218200,5.72221826171875,-1.0197973251342773,-0.13034860789775848,-0.31028687953948975
1772794837204263200,5.73226318359375,-1.0506199598312378,-0.10561903566122055,-0.3180883228778839
1772794837214307300,5.742307373046875,-1.0800844430923462,-0.09648466855287552,-0.31314146518707275
1772794837224352000,5.75235205078125,-1.1140855550765991,-0.10080484300851822,-0.30472642183303833
1772794837234397200,5.762397216796875,-1.144466757774353,-0.11880474537611008,-0.2825530171394348
1772794837244441300,5.77244140625,-1.172929286956787,-0.1476166844367981,-0.2579595148563385
1772794837254486300,5.782486328125,-1.1949976682662964,-0.17072390019893646,-0.23316848278045654
1772794837264530200,5.7925302734375,-1.2177170515060425,-0.18499977886676788,-0.20002730190753937
1772794837274575400,5.802575439453125,-1.2424681186676025,-0.18063096702098846,-0.17159152030944824
1772794837284619300,5.812619384765625,-1.2640857696533203,-0.15476422011852264,-0.14676979184150696
1772794837294664200,5.822664306640625,-1.2923353910446167,-0.12306838482618332,-0.12799504399299622
1772794837304708400,5.832708251953125,-1.3206926584243774,-0.1000344380736351,-0.11957786232233047
1772794837314753300,5.842753173828125,-1.3576496839523315,-0.07657230645418167,-0.11500277370214462
1772794837324797200,5.852797119140625,-1.4013800621032715,-0.05929611623287201,-0.11124318838119507
1772794837334842000,5.862842041015625,-1.4438680410385132,-0.045368220657110214,-0.10020124912261963
1772794837344886300,5.87288623046875,-1.4983004331588745,-0.048985060304403305,-0.07561254501342773
1772794837354931500,5.882931396484375,-1.5434483289718628,-0.05860460549592972,-0.03661355376243591
1772794837364975000,5.89297509765625,-1.581030249595642,-0.06595253199338913,0.012012572959065437
1772794837375020300,5.903020263671875,-1.5958491563796997,-0.073586106300354,0.051005665212869644
1772794837385064200,5.913064208984375,-1.58116614818573,-0.04030006006360054,0.10021981596946716
1772794837395109000,5.923109130859375,-1.5564771890640259,0.004449771251529455,0.15017788112163544
1772794837405153300,5.9331533203125,-1.535023808479309,0.0174313485622406,0.19173970818519592
1772794837415198200,5.9431982421875,-1.5118355751037598,-0.000464459415525198,0.23250462114810944
1772794837425243100,5.9532431640625,-1.49380362033844,-0.02161182276904583,0.2700866460800171
1772794837435287300,5.963287353515625,-1.4741202592849731,-0.048914432525634766,0.305219441652298
1772794837445332200,5.973332275390625,-1.4733132123947144,-0.07097259908914566,0.321843683719635
1772794837455376100,5.983376220703125,-1.5039600133895874,-0.09219034016132355,0.32613521814346313
1772794837465421300,5.99342138671875,-1.568179726600647,-0.10063788294792175,0.3142351508140564
1772794837475465200,6.00346533203125,-1.6705776453018188,-0.08039199560880661,0.2956286668777466
1772794837485510400,6.013510498046875,-1.7928502559661865,-0.02766539715230465,0.26470136642456055
1772794837495554300,6.02355419921875,-1.9131698608398438,0.05396988242864609,0.22482149302959442
1772794837505599200,6.03359912109375,-2.0041277408599854,0.17496128380298615,0.18726159632205963
1772794837515643400,6.043643310546875,-2.04716157913208,0.31716376543045044,0.16393069922924042
1772794837525688000,6.05368798828125,-2.046727418899536,0.43763425946235657,0.15867654979228973
1772794837535732200,6.063732177734375,-2.016368865966797,0.5130980014801025,0.16852770745754242
1772794837545777400,6.07377734375,-1.9741414785385132,0.5359899997711182,0.19691726565361023
1772794837555821000,6.083821044921875,-1.924575686454773,0.5100623965263367,0.23539316654205322
1772794837565866200,6.0938662109375,-1.871514081954956,0.44552868604660034,0.2792202830314636
1772794837575910400,6.103910400390625,-1.8218631744384766,0.3530530035495758,0.32378435134887695
1772794837585955000,6.113955078125,-1.773066759109497,0.2589464783668518,0.3531041443347931
1772794837595999200,6.123999267578125,-1.7320969104766846,0.18052807450294495,0.3704756796360016
1772794837606044400,6.13404443359375,-1.6963114738464355,0.13307958841323853,0.35395342111587524
1772794837616088000,6.144088134765625,-1.6675599813461304,0.10662433505058289,0.3126719892024994
1772794837626133200,6.15413330078125,-1.6444547176361084,0.10509301722049713,0.256699800491333
1772794837636178200,6.16417822265625,-1.627983808517456,0.12537673115730286,0.19150401651859283
1772794837646222300,6.174222412109375,-1.6155833005905151,0.1573525071144104,0.13909326493740082
1772794837656267300,6.184267333984375,-1.6032119989395142,0.20304109156131744,0.11073578149080276
1772794837666311200,6.194311279296875,-1.5848239660263062,0.2541724443435669,0.10581159591674805
1772794837676356400,6.2043564453125,-1.5532649755477905,0.298978328704834,0.12763267755508423
1772794837686400300,6.214400146484375,-1.499069094657898,0.31303688883781433,0.1503438502550125
1772794837696445200,6.224445068359375,-1.4316749572753906,0.3399789333343506,0.18007998168468475
1772794837706489300,6.2344892578125,-1.3783992528915405,0.3587672710418701,0.21482838690280914
1772794837716534000,6.244533935546875,-1.3307173252105713,0.343422532081604,0.2461683601140976
1772794837726578200,6.254578125,-1.2744197845458984,0.2982739806175232,0.28403425216674805
1772794837736623400,6.264623291015625,-1.2330892086029053,0.2226329743862152,0.3198998272418976
1772794837746667300,6.274667236328125,-1.2152305841445923,0.10257500410079956,0.332202285528183
1772794837756712200,6.284712158203125,-1.2274272441864014,-0.023596201092004776,0.33278149366378784
1772794837766756400,6.29475634765625,-1.2660459280014038,-0.15427778661251068,0.3095233142375946
1772794837776801300,6.30480126953125,-1.3316212892532349,-0.2559027075767517,0.2610265910625458
1772794837786845200,6.31484521484375,-1.424797534942627,-0.3435792922973633,0.18528230488300323
1772794837796890400,6.324890380859375,-1.5212115049362183,-0.39705461263656616,0.09026701748371124
1772794837806934300,6.334934326171875,-1.6111114025115967,-0.43398335576057434,-0.015392567962408066
1772794837816979200,6.344979248046875,-1.7060861587524414,-0.45794275403022766,-0.11759265512228012
1772794837827024100,6.355024169921875,-1.7876137495040894,-0.45090240240097046,-0.20404578745365143
1772794837837068300,6.365068359375,-1.8410171270370483,-0.4378420114517212,-0.2678931951522827
1772794837847113200,6.37511328125,-1.8720064163208008,-0.423848956823349,-0.31669217348098755
1772794837857157000,6.3851572265625,-1.8775817155838013,-0.40801769495010376,-0.3483509123325348
1772794837867202300,6.395202392578125,-1.8747316598892212,-0.38520506024360657,-0.3677259385585785
1772794837877246200,6.40524609375,-1.8505563735961914,-0.36217376589775085,-0.3711204528808594
1772794837887291100,6.415291015625,-1.8127847909927368,-0.34212231636047363,-0.3649115562438965
1772794837897335300,6.425335205078125,-1.7552272081375122,-0.3281131684780121,-0.3364187777042389
1772794837907380200,6.435380126953125,-1.6840201616287231,-0.32477596402168274,-0.3213077187538147
1772794837917424000,6.445424072265625,-1.605896234512329,-0.28389403223991394,-0.27712690830230713
1772794837927469300,6.45546923828125,-1.5333147048950195,-0.22844862937927246,-0.21822363138198853
1772794837937513500,6.465513427734375,-1.4792306423187256,-0.17906436324119568,-0.1532275527715683
1772794837947558100,6.47555810546875,-1.4321787357330322,-0.14123974740505219,-0.10037578642368317
1772794837957602300,6.485602294921875,-1.3859803676605225,-0.09320564568042755,-0.07650692015886307
1772794837967647200,6.495647216796875,-1.3416022062301636,-0.05245049297809601,-0.07254413515329361
1772794837977691100,6.505691162109375,-1.3060731887817383,-0.026217175647616386,-0.07976969331502914
1772794837987736300,6.515736328125,-1.280326008796692,-0.013217754662036896,-0.08151432871818542
1772794837997781200,6.52578125,-1.2628012895584106,-0.027051543816924095,-0.06565067917108536
1772794838007825200,6.5358251953125,-1.253011703491211,-0.06427119672298431,-0.03164117783308029
1772794838017870000,6.5458701171875,-1.253342628479004,-0.13401560485363007,0.005985783413052559
1772794838027914200,6.555914306640625,-1.2455321550369263,-0.20389162003993988,0.04980223998427391
1772794838037959400,6.56595947265625,-1.2451139688491821,-0.24194057285785675,0.0789274349808693
1772794838048003000,6.576003173828125,-1.2491179704666138,-0.28773629665374756,0.08997476100921631
1772794838058049300,6.58604931640625,-1.2502385377883911,-0.3020734190940857,0.0792907103896141
1772794838068093200,6.59609326171875,-1.2465769052505493,-0.32860252261161804,0.054499078541994095
1772794838078138000,6.60613818359375,-1.226991057395935,-0.35589537024497986,0.039574697613716125
1772794838088182300,6.616182373046875,-1.1871241331100464,-0.3661818504333496,0.037756290286779404
1772794838098227000,6.62622705078125,-1.142343282699585,-0.35139352083206177,0.06040429696440697
1772794838108271000,6.63627099609375,-1.1217554807662964,-0.3127678334712982,0.07818382978439331
1772794838118316300,6.64631640625,-1.0910048484802246,-0.2746344208717346,0.10515910387039185
1772794838128360000,6.65635986328125,-1.0567419528961182,-0.16501575708389282,0.13719533383846283
1772794838138405000,6.666405029296875,-1.0269718170166016,-0.04991292580962181,0.1713014394044876
1772794838148449300,6.67644921875,-1.0015865564346313,0.04283325746655464,0.20895853638648987
1772794838158494000,6.686493896484375,-0.983218252658844,0.11146701872348785,0.23696185648441315
1772794838168538000,6.6965380859375,-0.9839072227478027,0.14188003540039062,0.26715731620788574
1772794838178583000,6.7065830078125,-1.0003290176391602,0.14268140494823456,0.30063214898109436
1772794838188627000,6.716626953125,-1.0170683860778809,0.12235508114099503,0.32819268107414246
1772794838198672100,6.726672119140625,-1.0313729047775269,0.0824267640709877,0.3380836844444275
1772794838208717000,6.736717041015625,-1.0515165328979492,0.02120601385831833,0.320709764957428
1772794838218761200,6.74676123046875,-1.0923149585723877,-0.03887785226106644,0.28255367279052734
1772794838228806100,6.75680615234375,-1.1631355285644531,-0.08115340024232864,0.21969054639339447
1772794838238850000,6.76685009765625,-1.2424943447113037,-0.11000289022922516,0.14620408415794373
1772794838248895200,6.776895263671875,-1.3094011545181274,-0.11717505007982254,0.07906258851289749
1772794838258939100,6.786939208984375,-1.3542803525924683,-0.11326924711465836,0.028282182291150093
1772794838268984000,6.796984130859375,-1.3756319284439087,-0.09361272305250168,-0.00007142685353755951
1772794838279028200,6.8070283203125,-1.3745359182357788,-0.05666244029998779,0.0001821550540626049
1772794838289073200,6.8170732421875,-1.3468563556671143,-0.013902992010116577,0.01725381799042225
1772794838299117000,6.827116943359375,-1.2896984815597534,0.019650928676128387,0.04376693814992905
1772794838309162200,6.837162353515625,-1.20337975025177,0.04494137316942215,0.08617565035820007
1772794838319206000,6.847205810546875,-1.101796269416809,0.06749353557825089,0.14063812792301178
1772794838329251000,6.8572509765625,-1.0067299604415894,0.07129067182540894,0.2086946815252304
1772794838339295200,6.867295166015625,-0.9345051646232605,0.0458344966173172,0.2781403958797455
1772794838349340200,6.877340087890625,-0.8936429619789124,0.01345578208565712,0.34193721413612366
1772794838359384000,6.887384033203125,-0.8909695148468018,-0.034988563507795334,0.38496920466423035
1772794838369429000,6.897428955078125,-0.9261362552642822,-0.08318378776311874,0.40554478764533997
1772794838379473200,6.90747314453125,-0.9942452907562256,-0.15296584367752075,0.4059235751628876
1772794838389518000,6.91751806640625,-1.0760399103164673,-0.227869912981987,0.3915638029575348
1772794838399562200,6.927562255859375,-1.1718932390213013,-0.28029170632362366,0.36615651845932007
1772794838409607200,6.937607177734375,-1.2504301071166992,-0.306904673576355,0.34384456276893616
1772794838419651000,6.947651123046875,-1.307305932044983,-0.2844710350036621,0.3276435136795044
1772794838429696000,6.957696044921875,-1.3479915857315063,-0.21492871642112732,0.3187219202518463
1772794838439741200,6.9677412109375,-1.382672667503357,-0.16148103773593903,0.3097118139266968
1772794838449785300,6.977785400390625,-1.3951091766357422,-0.11125968396663666,0.30444034934043884
1772794838459830000,6.987830078125,-1.3777788877487183,-0.06615293771028519,0.3005247414112091
1772794838469874200,6.997874267578125,-1.343196153640747,-0.016608288511633873,0.29771751165390015
1772794838479919000,7.007919189453125,-1.2852199077606201,0.019144490361213684,0.2844971716403961
1772794838489963000,7.017962890625,-1.2213839292526245,0.0773654580116272,0.27532845735549927
1772794838500008200,7.02800830078125,-1.1605629920959473,0.15626363456249237,0.2624513804912567
1772794838510052000,7.038052001953125,-1.097328543663025,0.24235457181930542,0.23884698748588562
1772794838520097000,7.048096923828125,-1.0466561317443848,0.3128645718097687,0.20293861627578735
1772794838530141200,7.05814111328125,-0.9985008239746094,0.33722585439682007,0.15750375390052795
1772794838540186000,7.06818603515625,-0.9613961577415466,0.3309524357318878,0.11474016308784485
1772794838550230000,7.07822998046875,-0.9356340765953064,0.2911165952682495,0.07831131666898727
1772794838560275200,7.088275146484375,-0.9177279472351074,0.24092891812324524,0.055292923003435135
1772794838570319000,7.098319091796875,-0.9111645817756653,0.17869937419891357,0.039822086691856384
1772794838580364300,7.1083642578125,-0.9216002225875854,0.09416679292917252,0.02461317554116249
1772794838590408200,7.118408203125,-0.9508715271949768,-0.017074240371584892,0.0070344493724405766
1772794838600453000,7.128453125,-0.993226170539856,-0.11565800756216049,-0.023500915616750717
1772794838610497000,7.1384970703125,-1.0262205600738525,-0.16678136587142944,-0.05786634609103203
1772794838620542000,7.1485419921875,-1.0377470254898071,-0.16246327757835388,-0.0978337824344635
1772794838630586000,7.158586181640625,-1.044857144355774,-0.11137346178293228,-0.12907825410366058
1772794838640631300,7.16863134765625,-1.0567958354949951,-0.06395278871059418,-0.16026218235492706
1772794838650675000,7.178675048828125,-1.0537259578704834,-0.03641144186258316,-0.18706797063350677
1772794838660720000,7.18872021484375,-1.0529541969299316,0.0027930615469813347,-0.20601752400398254
1772794838670765000,7.19876513671875,-1.0555998086929321,0.02560330182313919,-0.22357548773288727
1772794838680809000,7.20880908203125,-1.0661888122558594,0.04653941094875336,-0.23507598042488098
1772794838690854100,7.218854248046875,-1.0999195575714111,0.05539415776729584,-0.23491698503494263
1772794838700898000,7.22889794921875,-1.144736886024475,0.03420668840408325,-0.22589431703090668
1772794838710943200,7.238943115234375,-1.1907576322555542,-0.00021786382421851158,-0.21135824918746948
1772794838720987100,7.248987060546875,-1.2550904750823975,-0.03364734351634979,-0.2011459767818451
1772794838731032000,7.259031982421875,-1.3303512334823608,-0.0763748362660408,-0.1938110888004303
1772794838741076200,7.269076171875,-1.4203835725784302,-0.14961762726306915,-0.19002221524715424
1772794838751121200,7.27912109375,-1.4997292757034302,-0.22284363210201263,-0.20165729522705078
1772794838761165000,7.2891650390625,-1.5460342168807983,-0.3460257649421692,-0.22362887859344482
1772794838771210200,7.299210205078125,-1.564970850944519,-0.3912592828273773,-0.2598057985305786
1772794838781254100,7.309254150390625,-1.5756357908248901,-0.3845347464084625,-0.3009969890117645
1772794838791299000,7.319299072265625,-1.5301830768585205,-0.36331307888031006,-0.3443657457828522
1772794838801343200,7.32934326171875,-1.489333987236023,-0.3760761618614197,-0.38664135336875916
1772794838811388000,7.339387939453125,-1.4389744997024536,-0.4103148281574249,-0.4165862202644348
1772794838821432000,7.34943212890625,-1.418728232383728,-0.38639625906944275,-0.42936721444129944
1772794838831477200,7.359477294921875,-1.4326865673065186,-0.3391895890235901,-0.42394396662712097
1772794838841521200,7.369521240234375,-1.4741417169570923,-0.2862579822540283,-0.40464743971824646
1772794838851566000,7.379566162109375,-1.5363342761993408,-0.21256007254123688,-0.3737108111381531
1772794838861610200,7.3896103515625,-1.5649356842041016,-0.20563717186450958,-0.3229672312736511
1772794838871655200,7.3996552734375,-1.5523197650909424,-0.23311753571033478,-0.2531055808067322
1772794838881699000,7.409698974609375,-1.5050650835037231,-0.2372319996356964,-0.1501367688179016
1772794838891744300,7.419744140625,-1.448135256767273,-0.2123519480228424,-0.03220079839229584
1772794838901788000,7.429787841796875,-1.4159517288208008,-0.16590559482574463,0.07911965250968933
1772794838911833000,7.4398330078125,-1.426472783088684,-0.158218115568161,0.1710578352212906
1772794838921878000,7.4498779296875,-1.4688798189163208,-0.20123128592967987,0.24924491345882416
1772794838931922200,7.459922119140625,-1.5182750225067139,-0.27430522441864014,0.2928009033203125
1772794838941967000,7.469967041015625,-1.5548462867736816,-0.3275180757045746,0.3228279948234558
1772794838952011000,7.480010986328125,-1.5765838623046875,-0.3847472667694092,0.3401939272880554
1772794838962056200,7.49005615234375,-1.5773454904556274,-0.47701790928840637,0.35994672775268555
1772794838972100000,7.50010009765625,-1.5618935823440552,-0.569282054901123,0.3811236619949341
1772794838982145000,7.51014501953125,-1.531828761100769,-0.6021748781204224,0.38646870851516724
1772794838992189200,7.520189208984375,-1.495595097541809,-0.5814005732536316,0.3695555031299591
1772794839002234000,7.530234130859375,-1.4846550226211548,-0.5891768932342529,0.32113540172576904
1772794839012278000,7.540278076171875,-1.4817790985107422,-0.6104733943939209,0.2551358640193939
1772794839022323200,7.5503232421875,-1.4839838743209839,-0.6191554665565491,0.18480758368968964
1772794839032367000,7.5603671875,-1.4710755348205566,-0.6014150977134705,0.12466806918382645
1772794839042412000,7.570412109375,-1.4407016038894653,-0.5624657869338989,0.09350930899381638
1772794839052456000,7.5804560546875,-1.3982216119766235,-0.498453289270401,0.09751629829406738
1772794839062500900,7.5905009765625,-1.3563425540924072,-0.4318806231021881,0.12252973020076752
1772794839072545000,7.600544921875,-1.3223347663879395,-0.38585135340690613,0.1466561108827591
1772794839082590200,7.610590087890625,-1.2924277782440186,-0.3753749132156372,0.16534504294395447
1772794839092633900,7.6206337890625,-1.2616397142410278,-0.3758212625980377,0.15629641711711884
1772794839102679000,7.630678955078125,-1.2388416528701782,-0.39034825563430786,0.12422392517328262
1772794839112723000,7.640722900390625,-1.21121084690094,-0.4146503806114197,0.06745145469903946
1772794839122768000,7.650767822265625,-1.1807843446731567,-0.4312426447868347,0.0022348519414663315
1772794839132812000,7.66081201171875,-1.14975106716156,-0.40970540046691895,-0.03684836998581886
1772794839142857000,7.67085693359375,-1.146235466003418,-0.39102068543434143,-0.04617149010300636
1772794839152900900,7.68090087890625,-1.180874228477478,-0.3534962236881256,-0.039259787648916245
1772794839162946000,7.690946044921875,-1.248095989227295,-0.28932347893714905,-0.029111996293067932
1772794839172990200,7.700990234375,-1.3266112804412842,-0.24261803925037384,-0.03257836773991585
1772794839183035000,7.711034912109375,-1.384247064590454,-0.2041054368019104,-0.03834279626607895
1772794839193079000,7.7210791015625,-1.3941912651062012,-0.1585235744714737,-0.029522139579057693
1772794839203124000,7.7311240234375,-1.357336163520813,-0.11925061792135239,0.005936626344919205
1772794839213169200,7.741169189453125,-1.3072948455810547,-0.05090458691120148,0.04983217641711235
1772794839223213000,7.751213134765625,-1.2626137733459473,-0.005377269349992275,0.0767252966761589
1772794839233258000,7.761258056640625,-1.2237974405288696,-0.003069640137255192,0.07946834713220596
1772794839243302100,7.77130224609375,-1.1784940958023071,-0.03575281426310539,0.09411768615245819
1772794839253346800,7.781346923828125,-1.1240631341934204,-0.06798611581325531,0.1261587142944336
1772794839263391000,7.791390869140625,-1.0483744144439697,-0.074720598757267,0.17453673481941223
1772794839273436200,7.801436279296875,-0.9427603483200073,-0.0837756097316742,0.21695742011070251
1772794839283479800,7.811479736328125,-0.8231987357139587,-0.11416696012020111,0.23635470867156982
1772794839293525000,7.82152490234375,-0.7044076323509216,-0.12799516320228577,0.22791089117527008
1772794839303569200,7.831569091796875,-0.5912665128707886,-0.10631661117076874,0.18659794330596924
1772794839313613800,7.84161376953125,-0.5099127888679504,-0.06961824744939804,0.12976393103599548
1772794839323658000,7.851657958984375,-0.45542582869529724,-0.01744670979678631,0.056473258882761
1772794839333703200,7.861703125,-0.422123521566391,0.012292545288801193,-0.016131967306137085
1772794839343746800,7.871746826171875,-0.3974011242389679,0.022290639579296112,-0.06973614543676376
1772794839353792000,7.8817919921875,-0.38305172324180603,0.0011249021627008915,-0.09161694347858429
1772794839363836200,7.891836181640625,-0.38621786236763,-0.000421157106757164,-0.08034557849168777
1772794839373881000,7.901881103515625,-0.41630521416664124,0.06289868801832199,-0.04759163036942482
1772794839383925000,7.911925048828125,-0.4758341312408447,0.0958484336733818,-0.02987656556069851
1772794839393970000,7.921969970703125,-0.5531614422798157,0.09012636542320251,-0.05587247759103775
1772794839404013800,7.932013916015625,-0.6382206082344055,0.07954935729503632,-0.11639124155044556
1772794839414059000,7.94205908203125,-0.7260119318962097,0.10890351235866547,-0.17441432178020477
1772794839424103000,7.95210302734375,-0.8045797944068909,0.17278055846691132,-0.20460981130599976
1772794839434148000,7.962148193359375,-0.8454231023788452,0.21643614768981934,-0.22023457288742065
1772794839444192000,7.97219189453125,-0.8495950102806091,0.2470715492963791,-0.22650203108787537
1772794839454237000,7.98223681640625,-0.8166959285736084,0.3369700312614441,-0.11886052042245865
1772794839464279800,7.99227978515625,-0.7454822063446045,0.358342707157135,-0.00003484426997601986
1772794839474325000,8.002324951171875,-0.684486448764801,0.22061336040496826,0.06288313865661621
1772794839484369200,8.012369140625,-0.5959151983261108,0.03783884644508362,0.04333147406578064
1772794839494414000,8.0224140625,-0.49324578046798706,-0.08920511603355408,-0.017902055755257607
1772794839504458000,8.0324580078125,-0.42955106496810913,-0.1404654085636139,-0.10354055464267731
1772794839514503000,8.0425029296875,-0.401576429605484,-0.14618214964866638,-0.20017841458320618
1772794839524547000,8.052547119140625,-0.4233582019805908,-0.19254924356937408,-0.29862895607948303
1772794839534592000,8.062592041015625,-0.46346592903137207,-0.24436183273792267,-0.4069431722164154
1772794839544636000,8.072635986328125,-0.48582956194877625,-0.2322179675102234,-0.49249306321144104
1772794839554681000,8.08268115234375,-0.46074312925338745,-0.14080390334129333,-0.5068134069442749
1772794839564725000,8.09272509765625,-0.4171239733695984,-0.05416722595691681,-0.4400259256362915
