time,seconds_elapsed,z,y,x
1772794617703357000,0.07135693359375,-0.5541425335139036,-0.11811621967880055,0.5080674494288862
1772794617713400800,0.08140087890625,-0.48389586185514927,-0.08489740229649469,0.47911366907991465
1772794617723445000,0.091445068359375,-0.34735973173081874,-0.05635446777073666,0.40255364955589173
1772794617733490000,0.101489990234375,-0.19030220710337162,-0.04761012989887967,0.32944844666086137
1772794617743533800,0.111533935546875,-0.011571195328235626,-0.07375858876984566,0.3140757401578128
1772794617753578000,0.121577880859375,0.11600772135853767,-0.10077389360321685,0.25587189992703496
1772794617763623000,0.131622802734375,0.24049860890209673,-0.15927963939001782,0.19376323427744208
1772794617773666800,0.141666748046875,0.3085053926795721,-0.22526781335407867,0.19824819767177104
1772794617783711000,0.1517109375,0.28928397485911844,-0.22285691628744825,0.23112872301042078
1772794617793756000,0.161755859375,0.24529051935374735,-0.23227858716528862,0.2259786467708647
1772794617803799800,0.1717998046875,0.20864391947984695,-0.23159962845779955,0.21741832369640468
1772794617813844000,0.181843994140625,0.23135960915684697,-0.23775994118582455,0.18281309345699845
1772794617823889000,0.191888916015625,0.29726854387223717,-0.23224932453818617,0.15112565036043524
1772794617833932800,0.201932861328125,0.3251566677510738,-0.24754257259685544,0.14310016481503843
1772794617843976700,0.211976806640625,0.2993213847488165,-0.25037081829272206,0.10756810205429791
1772794617854022000,0.22202197265625,0.2123971345335245,-0.24119645497314632,0.10039886801205575
1772794617864065500,0.2320654296875,0.1033972461104393,-0.2506884328745305,0.11011263543795793
1772794617874109700,0.242109619140625,0.09559154079556464,-0.18701617117002606,0.05598134187571704
1772794617884155000,0.25215478515625,0.17261165211200713,-0.0823884699491784,-0.014069807210937141
1772794617894198800,0.26219873046875,0.2564642397969961,-0.29787867512721566,0.08116371392719447
1772794617904242700,0.27224267578125,0.5074199453055859,-0.31229451929684726,0.018958492567948997
1772794617914287900,0.282287841796875,0.5035977566689253,-0.4430736202644184,0.026419512630999085
1772794617924331800,0.292331787109375,0.2719102307319641,-0.4779878433877602,0.07882376320492476
1772794617934376700,0.302376708984375,0.16453239055275917,-0.41515970435719934,-0.04017736781593412
1772794617944420900,0.3124208984375,0.03706336398124695,-0.33672793614454566,-0.13497918300591408
1772794617954464800,0.32246484375,0.05016542213857174,-0.3700083840535953,-0.32598453340996053
1772794617964509700,0.332509765625,0.10145721795856952,-0.3683404873739928,-0.395336740447022
1772794617974553900,0.342553955078125,0.052320554345846176,-0.4110149692352861,-0.2334180760566145
1772794617984597800,0.35259765625,-0.07104922021329403,-0.5052457065390422,-0.06773541949018835
1772794617994642700,0.362642578125,-0.040377018573880194,-0.4464773277606815,-0.18991404803600162
1772794618004686800,0.372686767578125,0.11587035871446132,-0.22585684702210126,-0.3469739107510075
1772794618014730800,0.382730712890625,-0.1334089380145073,-0.3894040989950299,0.03167830994203687
1772794618024775700,0.392775634765625,-0.13323591953516006,-0.3174667708355933,-0.1930255311200395
1772794618034819800,0.40281982421875,-0.20918343318402766,-0.1519863405766897,-0.5499341220386326
1772794618044863700,0.41286376953125,-0.37749709584116936,-0.3023021906578913,-0.3069469111911952
1772794618054908700,0.42290869140625,-0.45258886944353577,-0.44578638635445383,-0.15952676428519189
1772794618064952800,0.432952880859375,-0.3853682676076889,-0.4820444253021851,-0.1811919585285708
1772794618074996700,0.442996826171875,-0.304365224134922,-0.6505965363577008,-0.1276579002071172
1772794618085041700,0.453041748046875,-0.44844753185510633,-0.8598930745273828,-0.022319237705320117
1772794618095085800,0.4630859375,-0.29733517936766146,-0.7985523245103657,-0.1284741484934464
1772794618105129700,0.473129638671875,-0.12310089448988437,-0.7826946109693497,-0.22915987062286583
1772794618115174700,0.483174560546875,0.18579378976821898,-0.5013966664280742,-0.30929968486241993
1772794618125218800,0.49321875,0.3655640814632177,-0.21027499128039925,-0.2160271615989506
1772794618135262700,0.5032626953125,0.32676351842582224,-0.23536953891795126,-0.33325927365329117
1772794618145308000,0.513307861328125,0.28460779974162576,-0.4776517067685723,-0.3211040678920224
1772794618155351800,0.523351806640625,0.13847615827620027,-0.8284855443507433,-0.16405585908219217
1772794618165395700,0.533395751953125,-0.22634148873388765,-1.3606333959385752,-0.06177614575959742
1772794618175441000,0.54344091796875,-0.5693558847367763,-1.7933806698366999,-0.12242989989314228
1772794618185484500,0.553484619140625,-0.6263257261931896,-1.9663566252164542,-0.15661906014494598
1772794618195528700,0.56352880859375,-0.5583966838270426,-2.034796831975132,-0.21879001390840858
1772794618205574000,0.573573974609375,-0.37330665841400623,-1.8698267806574702,-0.3522315024856478
1772794618215617500,0.583617431640625,-0.19521452906429768,-1.6975298935830592,-0.42898488915730265
1772794618225661700,0.59366162109375,-0.11957096679806709,-1.528308760692179,-0.4922610276836902
1772794618235707000,0.603706787109375,-0.01453296774327755,-1.3630796200469135,-0.4736493392594158
1772794618245750800,0.613750732421875,-0.0014607202023267745,-1.2550257803022862,-0.428800618631579
1772794618255795700,0.623795654296875,-0.03482289157807827,-1.2172738495349884,-0.3307265768378973
1772794618265839900,0.63383984375,-0.1652630429148674,-1.338917530953884,-0.14325949269575067
1772794618275883800,0.6438837890625,-0.355223889234662,-1.4558639944672584,0.006698620855808257
1772794618285928700,0.6539287109375,-0.4078361200034618,-1.5585457857847214,0.05880556898359209
1772794618295972900,0.663972900390625,-0.38863282236158847,-1.516624752639234,-0.011196297601237892
1772794618306016800,0.674016845703125,-0.2953425442457199,-1.4212588372930883,-0.2144381936407648
1772794618316061700,0.684061767578125,-0.2156342167586088,-1.284672876677662,-0.5044670868493616
1772794618326105900,0.69410595703125,-0.21849019071161746,-1.1019757377505301,-0.7564459248606115
1772794618336149800,0.704149658203125,-0.2833084075808525,-0.9377972752019762,-0.7930715550117194
1772794618346194700,0.714194580078125,-0.39885435664653773,-0.7868756229810416,-0.6922927477713674
1772794618356238800,0.72423876953125,-0.3994628439337015,-0.6124139590881764,-0.8354822713702916
1772794618366282800,0.73428271484375,-0.38303836335539815,-0.5192497915700077,-1.0427617706291377
1772794618376327700,0.74432763671875,-0.43578912581205365,-0.44456477213762696,-0.9877554843306541
1772794618386371800,0.754371826171875,-0.29478198775351044,-0.4332174486931413,-1.0560834628865121
1772794618396415700,0.764415771484375,-0.17709493500590323,-0.6437851758424192,-1.2234931624412535
1772794618406460700,0.774460693359375,-0.032848376634716986,-0.7723368100188672,-1.2473894402049481
1772794618416504800,0.7845048828125,0.13236381287574767,-0.8325538897681981,-1.0441312323514371
1772794618426548700,0.794548828125,0.18675825088620185,-0.8642414789952337,-0.8440548694044351
1772794618436593700,0.80459375,0.177097273093462,-0.8586778535187244,-0.8845122597381472
1772794618446637800,0.814637939453125,0.09556640635430812,-0.8203702616300433,-0.9665611590020358
1772794618456681700,0.824681640625,-0.05052139596939086,-0.8392273761827498,-0.9870125570088625
1772794618466726700,0.8347265625,-0.14673954423069954,-0.8838722813341766,-0.9754192959792911
1772794618476770800,0.844770751953125,-0.1958148330450058,-0.8325713523596525,-0.9039841451883316
1772794618486814700,0.854814697265625,-0.28061200810372827,-0.7148243861183524,-0.760281922826916
1772794618496860000,0.86485986328125,-0.39253567501902575,-0.5073559401586651,-0.6206824596092104
1772794618506903600,0.874903564453125,-0.4892687870651483,-0.2361252161234617,-0.4518320597268641
1772794618516947700,0.88494775390625,-0.5648942291527986,0.030292298943735658,-0.347831513961032
1772794618526993000,0.894992919921875,-0.6727408558875322,0.26976788494102655,-0.21705157274324446
1772794618537036500,0.90503662109375,-0.6601409020334482,0.40382841873206193,-0.12751166013684123
1772794618547081700,0.915081787109375,-0.5430050534278154,0.47397616006098686,-0.06090961032444611
1772794618557126000,0.9251259765625,-0.31215397831499575,0.5909156823769212,0.11820384316332637
1772794618567169800,0.935169677734375,-0.08813187243938446,0.5117831089511513,0.3043935917128809
1772794618577214700,0.945214599609375,0.007125321835279464,0.20187091821357606,0.31981793707162137
1772794618587259000,0.9552587890625,0.04791618190705776,0.019297898856457323,0.18658490361329166
1772794618597302800,0.965302734375,0.09040098641514778,-0.09226363848187029,0.03292392608895898
1772794618607347700,0.97534765625,0.12533552167415618,-0.21317023779787123,0.022166430896939707
1772794618617391900,0.985391845703125,0.11413432870209217,-0.2842253397626802,0.04647420293781906
1772794618627435800,0.995435791015625,0.10687632039785384,-0.2577474845405668,0.09162177864806725
1772794618637480700,1.005480712890625,0.0710112262904644,-0.206356575727649,0.13339526568218132
1772794618647524900,1.01552490234375,-0.02262567330598831,-0.13598759286347775,0.14003910587714052
1772794618657568800,1.02556884765625,-0.03138298025727272,-0.016979666775651277,0.157857022708375
1772794618667613700,1.03561376953125,0.011748305460810661,0.08051723271720111,0.23491542020859196
1772794618677657900,1.045657958984375,0.12170271812975406,0.17881317363325505,0.3780672604119405
1772794618687701800,1.05570166015625,0.20945815847218036,0.3334223917931318,0.5233027202226221
1772794618697746700,1.06574658203125,0.2790799762308597,0.470203436589241,0.6238706611912698
1772794618707790800,1.075790771484375,0.30451603078246114,0.6348315426014364,0.674794208220765
1772794618717834800,1.085834716796875,0.30696985367536544,0.8050126796308904,0.7607462524030357
1772794618727879700,1.095879638671875,0.31963819659054277,0.9560412262924015,0.8469780633747577
1772794618737923800,1.105923828125,0.3259498639553785,1.0388819335211068,0.9613327568292617
1772794618747967700,1.1159677734375,0.31145956631004806,1.042987834469974,1.0657817039497195
1772794618758012700,1.1260126953125,0.30987142033576964,0.9958351112160831,1.055010719088465
1772794618768056800,1.136056884765625,0.33713702840209003,0.9099483873549848,0.9743991591513156
1772794618778100700,1.146100830078125,0.4422983615756035,0.7452727158740162,0.8491893096834421
1772794618788145700,1.156145751953125,0.5371715249687433,0.5119084888964891,0.7295180973812937
1772794618798189800,1.16618994140625,0.6060702891498804,0.2763350614368915,0.6278581233922392
1772794618808234800,1.17623486328125,0.6746493198573589,0.08586787303015589,0.5419633623551577
1772794618818279000,1.18627880859375,0.707327600622177,-0.030636399673670527,0.4734202066786587
1772794618828322600,1.196322509765625,0.7164724455863237,-0.10247669719941914,0.3749704999729991
1772794618838368000,1.206367919921875,0.627775925001502,-0.14292349307388066,0.25393797272238877
1772794618848412000,1.216411865234375,0.5012006323993206,-0.15476692947223783,0.12537778991330414
1772794618858455800,1.226455810546875,0.3578659281760454,-0.1320833154339343,0.03318392873201519
1772794618868501000,1.2365009765625,0.2864940518796444,-0.052843628371879454,-0.005589819363690913
1772794618878545000,1.246544921875,0.22250877870321273,0.042824630921706554,-0.04479538300540298
1772794618888588800,1.2565888671875,0.16153963847756383,0.13327617848031223,-0.06979132910668849
1772794618898634000,1.266634033203125,0.10558043536841868,0.22023988392315805,-0.03742408705241978
1772794618908678000,1.276677978515625,0.028878303959965705,0.2598571336383,-0.03372599971946329
1772794618918721800,1.2867216796875,0.00864741683602333,0.29917817688584325,-0.03904277429543435
1772794618928767000,1.29676708984375,0.022847207102179527,0.3081193525040522,-0.03675740330461413
1772794618938811000,1.306810791015625,0.019154197803139685,0.2796338107213378,0.0041029783394187684
1772794618948855000,1.31685498046875,0.038677228918671605,0.2528876234192401,-0.012723470635898411
1772794618958899700,1.326899658203125,0.08807926546931266,0.2060263208599761,-0.047170295443199575
1772794618968943900,1.33694384765625,0.10127250904142857,0.06865059810634702,-0.06197126647289842
1772794618978988000,1.346988037109375,0.12347908015251159,-0.126039687888138,-0.055161769121140236
1772794618989032700,1.35703271484375,0.19560323612093924,-0.28993405453199517,-0.09999441539701073
1772794618999076900,1.367076904296875,0.2975081978470087,-0.41817054007835686,-0.11546371414232999
1772794619009121000,1.37712109375,0.40754795071184635,-0.5519047279918566,-0.14520060769300908
1772794619019165700,1.387165771484375,0.4377203861355781,-0.6780001646552235,-0.19544015451371669
1772794619029209900,1.3972099609375,0.38056408219635485,-0.7204184067331254,-0.2538711180312559
1772794619039254800,1.4072548828125,0.2867459808140993,-0.6612484979491681,-0.221760627217032
1772794619049298700,1.417298583984375,0.1279360595613718,-0.6382805140115321,-0.2297070196442306
1772794619059342800,1.4273427734375,0.11098609380424022,-0.6239565128438175,-0.196049883909896
1772794619069388000,1.437387939453125,0.1706166789025068,-0.6981173622716218,-0.18773860369306056
1772794619079431700,1.447431640625,0.23821721996665,-0.788098808100447,-0.17288462383449077
1772794619089475800,1.457475830078125,0.25756430999338625,-0.7893658323615789,-0.12491134144533425
1772794619099521000,1.46752099609375,0.21238661313951016,-0.8179520945724099,-0.09436444668602198
1772794619109564700,1.477564697265625,0.24524843377768993,-0.7747442364867776,-0.017893347554467618
1772794619119608800,1.48760888671875,0.2762479676753282,-0.7152933918695896,0.05513210463523865
1772794619129654000,1.497654052734375,0.27926643871366974,-0.7170856821138412,0.12490907642301172
1772794619139697700,1.50769775390625,0.290034500965476,-0.7283795948706567,0.18802143922243267
1772794619149741800,1.517741943359375,0.29694588778913017,-0.6561818622093647,0.20103651321604846
1772794619159787000,1.527787109375,0.19084347437322138,-0.7210162264958023,0.27289862071480603
1772794619169831000,1.537830810546875,-0.11880582764446734,-0.9847705502357333,0.6219399123243987
1772794619179874800,1.547874755859375,-0.20718027666807173,-0.8097142814505844,0.4267779171649366
1772794619189920000,1.557919921875,-0.28863223295211793,-0.6022001697182655,0.34024485822431744
1772794619199964000,1.5679638671875,-0.36238545142710205,-0.5360208570962771,0.3797104245090857
1772794619210007800,1.5780078125,-0.41994215286076064,-0.587075629290007,0.47977125620581207
1772794619220053000,1.588052978515625,-0.4252724079728126,-0.662997971965,0.6045560851946473
1772794619230097000,1.598096923828125,-0.39109132142961023,-0.7595871454957872,0.693088355128467
1772794619240141800,1.608141845703125,-0.3520604567676782,-0.8952344370216131,0.7016615376845001
1772794619250186000,1.61818603515625,-0.38421792852878567,-1.0756721796493978,0.7014210069268941
1772794619260230000,1.62822998046875,-0.4812093992501497,-1.2595574323825538,0.7143468317344784
1772794619270274800,1.63827490234375,-0.6114145727872848,-1.375084969008714,0.729680375270918
1772794619280318700,1.648318603515625,-0.7339198394715786,-1.4991314737856387,0.7793444968238472
1772794619290363000,1.65836279296875,-0.823066441911459,-1.6312898272171616,0.7991931066319345
1772794619300407800,1.66840771484375,-0.8424047641098499,-1.6960209503248334,0.7419742588505148
1772794619310451700,1.67845166015625,-0.8457447221875191,-1.6678268292367457,0.6846655408285558
1772794619320495900,1.688495849609375,-0.8185381508320569,-1.4936746696844696,0.6383358974605798
1772794619330540800,1.698540771484375,-0.7030377944737672,-1.3507538069590925,0.6357721113871783
1772794619340584700,1.708584716796875,-0.5376169306486844,-1.2627156041525303,0.6022428398162126
1772794619350628900,1.71862890625,-0.38740474187135693,-1.2569861205898225,0.5595949902335181
1772794619360673800,1.728673828125,-0.32290392038822174,-1.2734377814359963,0.43401239846311507
1772794619370717700,1.7387177734375,-0.431122303044796,-1.221168884212151,0.36074605018962175
1772794619380761900,1.748761962890625,-0.7136655714720487,-1.160374662161991,0.3804863773176446
1772794619390807000,1.75880712890625,-0.9989081619858741,-1.1077021525733173,0.29785719394776966
1772794619400850700,1.7688505859375,-1.1655202814221381,-1.0003818147350103,0.12830182413384317
1772794619410894800,1.778894775390625,-1.3017413542479277,-0.866657892487198,0.02038355693500489
1772794619420940000,1.78893994140625,-1.4468758013695477,-0.6490862779252231,-0.023446743897907435
1772794619430983700,1.798983642578125,-1.524703721937537,-0.3638003962589428,0.014221161847747861
1772794619441027800,1.80902783203125,-1.5502683713048695,-0.03612542554400861,0.03122515934705734
1772794619451073000,1.819072998046875,-1.5166390734255313,0.2653542149509303,0.08492642746157944
1772794619461116700,1.82911669921875,-1.3755319821238516,0.5105554668523371,0.1857285425122827
1772794619471161900,1.839161865234375,-1.1420657560765743,0.7318446406327188,0.29458478468097743
1772794619481206000,1.8492060546875,-0.809520731639862,0.8974195259757339,0.40748650284819304
1772794619491250000,1.85925,-0.47851066168546674,0.9698447107173502,0.4921337480422109
1772794619501294800,1.869294921875,-0.14191256246566772,1.0322606887504457,0.4891909725885838
1772794619511339000,1.879339111328125,0.17528876236677168,1.0415661311037838,0.47121086006611584
1772794619521383000,1.8893828125,0.39506022506058214,0.9817471838265657,0.49024508475139733
1772794619531427800,1.899427734375,0.5166454542905092,0.95564769693017,0.4636044401830062
1772794619541472000,1.909471923828125,0.5789467199027538,0.9700023854970932,0.3569620016062632
1772794619551516000,1.919515869140625,0.5957160683959722,1.0431002818685025,0.2121581016132608
1772794619561560800,1.929560791015625,0.6350006155580282,1.1150743618417531,0.10428195652309805
1772794619571604700,1.939604736328125,0.6502139667809009,1.15825956970416,0.08298888352774084
1772794619581649000,1.94964892578125,0.639083500957489,1.1536316907078028,0.07763444382250309
1772794619591693800,1.95969384765625,0.6130278532028198,1.118422576291114,0.09563618365488946
1772794619601737700,1.96973779296875,0.5536433518201113,1.0166847147602587,0.08401515783555805
1772794619611782000,1.979781982421875,0.5796919853121042,0.8357485941562801,0.045472624679841096
1772794619621826800,1.989826904296875,0.6892535992711782,0.6204208860635757,0.033183636471070345
1772794619631870700,1.99987060546875,0.8584954826891422,0.357313701120764,-0.020963767975755034
1772794619641915000,2.009914794921875,1.0249205551207066,0.24856062706559895,-0.143798705005832
1772794619651959800,2.019959716796875,1.0080600212126969,0.07000014955177902,-0.10739563156422227
1772794619662003700,2.030003662109375,0.9903829102247953,-0.014474369423836468,-0.1514245237091556
1772794619672047900,2.0400478515625,0.9284498934030533,-0.07458908477723598,-0.0728751204662025
1772794619682092800,2.0500927734375,0.8593886321365832,-0.02247479359321296,-0.030158881822414694
1772794619692136700,2.06013671875,0.7509457930743694,0.04603307157419622,0.03548164774775505
1772794619702182000,2.070181884765625,0.5997364099532365,0.11993205519542097,0.05428352498188615
1772794619712225800,2.080225830078125,0.43860476775467394,0.1841702071543783,0.04064597170837223
1772794619722269700,2.090269775390625,0.2762719330728054,0.27113288968391713,0.07329056939929723
1772794619732315000,2.10031494140625,0.11435586249828338,0.36220088864043354,0.1046880896385759
1772794619742359000,2.110359130859375,-0.05114332726001739,0.41310434272997076,0.1606002387356013
1772794619752402700,2.120402587890625,-0.14871172108650207,0.4213324381753802,0.20447741091754287
1772794619762448000,2.13044775390625,-0.18619009560942648,0.415372726053372,0.20381511108390984
1772794619772492000,2.140491943359375,-0.1967027217954397,0.3920610432446003,0.2346617194421589
1772794619782535700,2.15053564453125,-0.1699421406418085,0.36450500086434184,0.24657763655483722
1772794619792580900,2.160580810546875,-0.07464286079108715,0.3101248105749488,0.2474922671817243
1772794619802625000,2.170625,-0.0031260230660438535,0.22757621816061435,0.2122580548563972
1772794619812669000,2.1806689453125,0.0559358222335577,0.1183282001953572,0.13519096259307115
1772794619822713900,2.1907138671875,0.20468436819911,0.03153758629709482,0.03681117931846529
1772794619832758000,2.200758056640625,0.43083939445018765,-0.09584018179439008,-0.024342267965525386
1772794619842802400,2.210802490234375,0.6938309901893138,-0.2508729956611991,-0.04324420804064721
1772794619852847600,2.22084765625,0.9333955331116914,-0.380473335172981,-0.030655360102467236
1772794619862891500,2.2308916015625,1.1157061569392681,-0.5076914557233453,0.0028269670542329546
1772794619872935400,2.240935302734375,1.2136012985020874,-0.6030534255467355,-0.03755282799862325
1772794619882980600,2.250980712890625,1.2713883015602827,-0.6615430969815701,-0.0972803706653416
1772794619893024500,2.2610244140625,1.2899562239080666,-0.692323142909631,-0.14857720798663795
1772794619903069400,2.2710693359375,1.3108593112051485,-0.7012433122724294,-0.13960362793616948
1772794619913113600,2.281113525390625,1.250700902840495,-0.6942023807849734,-0.13610614120922981
1772794619923157500,2.291157470703125,1.2456032874405383,-0.6609043606866151,-0.17288192042075096
1772794619933202400,2.301202392578125,1.1368816314369439,-0.6796754043910652,-0.20752715387698262
1772794619943246600,2.31124658203125,0.9679255792230367,-0.712202440116927,-0.2626548015328124
1772794619953290500,2.32129052734375,0.7235258712291717,-0.6924819136679172,-0.3071444430572912
1772794619963335400,2.33133544921875,0.4633241984695196,-0.6419096642941237,-0.34475802479982376
1772794619973379600,2.341379638671875,0.26594109319448467,-0.5499281306892633,-0.3575792201891541
1772794619983423500,2.351423583984375,0.2455418637663126,-0.33329306632503863,-0.48094782570451494
1772794619993468400,2.361468505859375,-0.07058920148611068,-0.7149543691735715,0.07589194753672927
1772794620003512600,2.3715126953125,-0.17399287733733654,-0.6269922272779047,-0.031415311624296005
1772794620013556500,2.381556396484375,-0.15243571004569528,-0.38395558779817074,-0.3308306582668796
1772794620023601400,2.391601318359375,-0.16092998214662074,-0.363359630221501,-0.44005281113851813
1772794620033645600,2.4016455078125,-0.22500936334729194,-0.45197501186151057,-0.3877138443531468
1772794620043689500,2.411689453125,-0.23962241058945655,-0.47983332512397314,-0.36465032761916516
1772794620053734700,2.421734619140625,-0.2741583019196987,-0.48062389097977426,-0.43182975719440725
1772794620063778300,2.4317783203125,-0.3480851233959198,-0.4669778256062418,-0.4522157252822071
1772794620073822500,2.441822509765625,-0.390879139983654,-0.42786359350979325,-0.5129841553039849
1772794620083867600,2.45186767578125,-0.4090209458738565,-0.419682332880795,-0.6075908132480458
1772794620093911300,2.461911376953125,-0.4214087182819843,-0.43345392433013763,-0.6512092614285647
1772794620103956500,2.47195654296875,-0.46000177604854103,-0.46458084746710954,-0.6823819599360227
1772794620114000600,2.482000732421875,-0.5033598562598228,-0.5463242244457825,-0.6577198854316025
1772794620124044500,2.49204443359375,-0.497408254379034,-0.6422760864537209,-0.5994214622525498
1772794620134089500,2.50208935546875,-0.42779052827358244,-0.6410586734879762,-0.6219502875879407
1772794620144133600,2.512133544921875,-0.3765922559559345,-0.7240154813770204,-0.5801216089010238
1772794620154177500,2.522177490234375,-0.5951899986952542,-1.1672533157598226,-0.15319763432890177
1772794620164222500,2.532222412109375,-0.7429267372697591,-1.0907204765036702,-0.349918914694339
1772794620174266600,2.5422666015625,-0.8264005547702312,-0.9699334119141101,-0.560848497425951
1772794620184310500,2.552310546875,-1.0011661700457335,-0.9959602719657122,-0.6460208990052342
1772794620194355500,2.56235546875,-1.1614467483729123,-0.9074488256242126,-0.7220088907949626
1772794620204399600,2.572399658203125,-1.2818804694801569,-0.6737181764870882,-0.731331795739755
1772794620214443500,2.582443603515625,-1.462474352517724,-0.36536190995462237,-0.6424157141201198
1772794620224488400,2.592488525390625,-1.6321230631709098,-0.04067607458569109,-0.47935799922980366
1772794620234532600,2.60253271484375,-1.7619255011260508,0.30128420925438404,-0.36088454534485936
1772794620244576500,2.612576416015625,-1.7936399052947758,0.6453869119506329,-0.25052381689734754
1772794620254621400,2.622621337890625,-1.7000263865739107,0.893415258770436,-0.11235533633083104
1772794620264665600,2.63266552734375,-1.4703823491632937,0.8438216451704501,0.17616788328886032
1772794620274710500,2.64271044921875,-1.0407155056238173,1.1162723394546656,0.003909428528696298
1772794620284754400,2.65275439453125,-0.6538157906651496,1.1842305348500608,-0.25824666623435916
1772794620294798600,2.662798583984375,-0.32201018641889095,1.0183271482050418,-0.19075725739449262
1772794620304843500,2.672843505859375,0.04374152657091617,0.8038552532240748,0.01213708558268845
1772794620314887400,2.682887451171875,0.4940454999476671,0.7515072263494134,0.14576098152212796
1772794620324931600,2.692931640625,0.8744991075068712,0.770670411176607,0.1710419551098719
1772794620334976500,2.7029765625,1.0374848531395195,0.7432430366773158,0.20473576959278433
1772794620345020400,2.7130205078125,1.0929425364673138,0.7396755534540861,0.22804807345606384
1772794620355064600,2.723064697265625,1.1166139194339513,0.7844950845200568,0.2460772127520293
1772794620365109500,2.733109619140625,1.1009358733087777,0.820776650473848,0.25493005249965933
1772794620375153700,2.743153564453125,1.075503910410404,0.7924005238823593,0.29773813414536415
1772794620385197300,2.753197265625,1.032883496823907,0.7685583143934607,0.3726714292503893
1772794620395242500,2.763242431640625,0.9484855502158402,0.771421448739618,0.44211942481212313
1772794620405286700,2.77328662109375,0.8109417043536901,0.8027202578447759,0.5300503678519278
1772794620415330300,2.783330322265625,0.7094049914181232,0.8801558180943131,0.6203730283338577
1772794620425375500,2.79337548828125,0.6585580167561769,0.8969723667301237,0.651317471043393
1772794620435419600,2.803419677734375,0.6517781473577022,0.8980239216096698,0.6481739123206586
1772794620445464600,2.813464599609375,0.618012655878067,0.8324525482855737,0.6380934670068323
1772794620455508500,2.823508544921875,0.527957121899724,0.7439620716668665,0.5895502392426133
1772794620465552600,2.833552734375,0.42654549664855,0.7318712363786996,0.49933301189653573
1772794620475597600,2.84359765625,0.3205097187280655,0.7576995051182807,0.4216553134541958
1772794620485641500,2.853641357421875,0.21035656861662863,0.7164969955056906,0.3430699255824089
1772794620495685600,2.863685546875,0.1251291854470968,0.6745465901352464,0.2699626037955284
1772794620505730600,2.87373046875,0.0821697491645813,0.5957623917557299,0.17589776111058888
1772794620515774500,2.8837744140625,0.01577332319319248,0.4972139008507132,0.11701985754314809
1772794620525818600,2.893818603515625,-0.04905950672328472,0.4336369162142277,0.106289971877262
1772794620535863300,2.90386328125,-0.13139409106075764,0.4056028079934418,0.09936411813683807
1772794620545907500,2.913907470703125,-0.23244623534977435,0.4490164177842438,0.14265267677586524
1772794620555951600,2.92395166015625,-0.33258827905654903,0.5251411876961588,0.18743081638552248
1772794620565996300,2.933996337890625,-0.4332674983799457,0.5879331594347953,0.26218981436956673
1772794620576040400,2.94404052734375,-0.48800388169586656,0.6264189574345946,0.2740348216705024
1772794620586084600,2.954084716796875,-0.5127659825086593,0.6647327598683536,0.27550536914709955
1772794620596129500,2.964129638671875,-0.4936825118541717,0.6577114829294383,0.28354517547879365
1772794620606173400,2.97417333984375,-0.43519408252835273,0.5860873854376375,0.2863562508441508
1772794620616217600,2.984217529296875,-0.34000878444612026,0.485613041036576,0.2551521708177402
1772794620626262500,2.994262451171875,-0.17001520587801933,0.3368315426494926,0.16012253822125494
1772794620636306400,3.004306396484375,-0.002419336101412773,0.1945247932344675,0.16231292440500109
1772794620646351600,3.0143515625,0.13171908523142337,0.07141980709135531,0.17575769505277275
1772794620656395500,3.0243955078125,0.18472937540709972,-0.08569222420230507,0.13091018000133334
1772794620666439400,3.034439453125,0.22630407933294772,-0.23266842673309146,0.026132695046253502
1772794620676484600,3.044484619140625,0.27086159846186636,-0.38891646160855886,-0.07403842862453311
1772794620686528500,3.054528564453125,0.34350539439022537,-0.5042507406849414,-0.0926809140458703
1772794620696572400,3.064572509765625,0.4107353485763073,-0.6102100923683494,-0.081878182339482
1772794620706617600,3.07461767578125,0.47047173213660715,-0.6713449445497244,-0.06376689945170655
1772794620716661500,3.08466162109375,0.5464817896276712,-0.7005526996597647,-0.08923482871260494
1772794620726705700,3.09470556640625,0.6095476098716258,-0.7171701455269008,-0.09612287119328976
1772794620736750600,3.10475048828125,0.5955459725260734,-0.7711881514403969,-0.06349496890883892
1772794620746794500,3.11479443359375,0.6018301673620939,-0.8028742062974721,-0.04920028516715392
1772794620756838700,3.124838623046875,0.6431243007808923,-0.7807426001187413,-0.046479244439117606
1772794620766883600,3.134883544921875,0.6506710628986359,-0.7517190424691885,-0.0240966226413846
1772794620776927500,3.144927490234375,0.6434376045137643,-0.7428771990396082,0.0046302353502251205
1772794620786972400,3.154972412109375,0.48809214450120925,-0.7279824122466146,0.04667178960284218
1772794620797016600,3.1650166015625,0.3711468500316143,-0.6578354746352881,0.06782028476204723
1772794620807060500,3.175060546875,0.2360521508872509,-0.605977642430365,0.12721395583190023
1772794620817105400,3.18510546875,0.15035539664030073,-0.5182512089867145,0.20015090775424613
1772794620827149600,3.195149658203125,0.12808511264324188,-0.41850218318551774,0.2607181526481174
1772794620837193500,3.205193359375,0.08007131558060646,-0.3601129033852368,0.32554869927596297
1772794620847238700,3.21523876953125,0.023375614890456198,-0.31314978441931307,0.39531825494226064
1772794620857282300,3.2252822265625,-0.028560324051976203,-0.2698578282468021,0.4850176689593121
1772794620867326500,3.235326416015625,-0.06923252618014812,-0.23411102675683795,0.5045715701371432
1772794620877371600,3.24537158203125,-0.08827157317101955,-0.24943616779111324,0.5183257355276495
1772794620887415300,3.255415283203125,-0.11983926234543323,-0.2942773261670023,0.5320634612400085
1772794620897459500,3.26545947265625,-0.14703940396010876,-0.34345307968109845,0.5358835309848189
1772794620907504600,3.275504638671875,-0.18169687584340571,-0.3916048969749361,0.5220769778199493
1772794620917548500,3.285548583984375,-0.1989332573264837,-0.4071208844061941,0.5223749743858352
1772794620927593500,3.295593505859375,-0.19768530309200286,-0.38692550698705014,0.5813727414732799
1772794620937637600,3.3056376953125,-0.2694382876604795,-0.35548180951848624,0.6549526857405901
1772794620947681500,3.315681640625,-0.40928514976799485,-0.2970638881456107,0.6611151538930833
1772794620957726500,3.3257265625,-0.5172866748034953,-0.24192360020391643,0.5885733935670927
1772794620967770600,3.3357705078125,-0.524818239352107,-0.17939546703323722,0.5507588824249804
1772794620977814500,3.345814453125,-0.5258581037938594,-0.20905732258632778,0.6715520844943821
1772794620987859500,3.355859375,-0.5064233354836702,-0.2552489457231015,0.8045787451930344
1772794620997903600,3.365903564453125,-0.4721171612560749,-0.30390016390644015,0.7517636122632771
1772794621007947500,3.375947509765625,-0.5668260739982128,-0.42850766356699166,0.6408038219440728
1772794621017992400,3.385992431640625,-0.8304249879807233,-0.6190359345111995,0.5154441156767309
1772794621028036400,3.396036376953125,-1.1713567324906586,-0.8373431698713452,0.39295441188775
1772794621038080500,3.40608056640625,-1.4544997203767298,-1.0008016475822776,0.1618897670894861
1772794621048125400,3.41612548828125,-1.6774825463324785,-0.9642443334270268,-0.2429584231443703
1772794621058169300,3.42616943359375,-1.8266554551899432,-0.8684650149744003,-0.46496290558725595
1772794621068213500,3.436213623046875,-1.9349059865504503,-0.7383562144838273,-0.39980267034731803
1772794621078258400,3.446258544921875,-1.9354466692984102,-0.5097383052505553,-0.23462167969271538
1772794621088302300,3.45630224609375,-1.7954770575940608,-0.23908428512476385,-0.19644692040346562
1772794621098347500,3.466347412109375,-1.475437878987193,0.04876140055954456,-0.2933376341640949
1772794621108391400,3.476391357421875,-1.2093214292258023,0.27554383799396454,-0.09140446436926722
1772794621118435300,3.486435302734375,-1.0277052174031733,0.4337831197518855,0.17972594109661877
1772794621128480500,3.49648046875,-0.8464414722800254,0.6318102220188826,0.4454310335781425
1772794621138524400,3.5065244140625,-0.6244499954491853,0.7717384057343005,0.612436317050457
1772794621148568300,3.516568359375,-0.36653029614686966,0.792219541292265,0.7266548899699002
1772794621158613500,3.526613525390625,-0.1608750370889902,0.6832311241112649,0.6796096456784755
1772794621168657700,3.53665771484375,0.07930383833944797,0.560370906509459,0.43306912626363336
1772794621178701300,3.546701416015625,0.2913607811331749,0.43174730307534337,0.33997846237309276
1772794621188746500,3.55674658203125,0.40654140401780603,0.3046675680823624,0.34566469131596383
1772794621198790700,3.566790771484375,0.5220131188035011,0.22319062348753213,0.29291590162068604
1772794621208834300,3.576834228515625,0.617221797761321,0.13915537271201608,0.1783287876497954
1772794621218879500,3.58687939453125,0.7049643786221742,0.06320807825885713,0.07900887398086488
1772794621228923600,3.596923583984375,0.7770733370214701,0.01949365889057517,0.02607449858561158
1772794621238968300,3.60696826171875,0.7571224358826876,-0.001471679987758398,0.03566124209836125
1772794621249012500,3.617012451171875,0.597333440464735,-0.026765841850638388,0.07016345035471022
1772794621259056600,3.627056640625,0.4389344381004572,0.06424187828600406,0.024063304893672467
1772794621269101300,3.637101318359375,0.34795185240507126,0.17287556374520063,-0.004450622733309865
1772794621279145500,3.6471455078125,0.416468923792243,0.33697760005667804,-0.037439065425843
1772794621289189600,3.657189697265625,0.49270285316705703,0.4889864629924297,0.009962664153054355
1772794621299234300,3.667234375,0.471542576238513,0.5390975245952606,0.13761932225115597
1772794621309278500,3.677278564453125,0.3916349267870188,0.5849456680566072,0.2591808783445507
1772794621319322600,3.687322509765625,0.3711433429002762,0.6608503654770552,0.26345833646804095
1772794621329367300,3.6973671875,0.4238140258580446,0.7200006197124719,0.2221083081435412
1772794621339411500,3.707411376953125,0.5534691642969847,0.7326084646120667,0.16676131864860652
1772794621349455400,3.717455322265625,0.7196504911005497,0.7397691500216722,0.13092033606916664
1772794621359500300,3.727500244140625,0.8510305536359548,0.7158665886476635,0.12712949241884053
1772794621369544400,3.73754443359375,0.8880062393337488,0.6692733259074389,0.11839929267019032
1772794621379589600,3.747589599609375,0.851621505266428,0.6852484552830457,0.09483286791536956
1772794621389633500,3.757633544921875,0.6852519624143838,0.7153301436834036,0.07025861782487482
1772794621399677400,3.767677490234375,0.46413668389618395,0.7463648950248957,0.019582615815661845
1772794621409722600,3.77772265625,0.38075112920105453,0.8153190426550805,-0.07337558080162852
1772794621419766500,3.7877666015625,0.40925007845461364,0.8334956275977193,-0.1529764293262735
1772794621429810400,3.797810546875,0.5064648365378379,0.7484105755083262,-0.26365491848606615
1772794621439855600,3.807855712890625,0.6147983700066805,0.6306070567741989,-0.3110747682435438
1772794621449899500,3.8178994140625,0.6095078623831272,0.5297703088015318,-0.29923209903016684
1772794621459943400,3.827943359375,0.57541036247015,0.45605464585795996,-0.26624093465758486
1772794621469988600,3.837988525390625,0.6154267310380935,0.38235944118052717,-0.2492168076856993
1772794621480032500,3.848032470703125,0.7455676071673631,0.28784605101048943,-0.23385383712537586
1772794621490076400,3.858076416015625,0.9918336935549974,0.11458382603526114,-0.26324799991929904
1772794621500121300,3.868121337890625,1.131161500224471,-0.10326412125006318,-0.27134919931571927
1772794621510165500,3.87816552734375,1.1304817012667656,-0.2982569703876972,-0.2747011035595089
1772794621520210400,3.88821044921875,0.9995563967615365,-0.3774361594341695,-0.2641146997512318
1772794621530254300,3.89825439453125,0.9122615596681832,-0.19318996443413197,-0.4787107873674482
1772794621540298500,3.908298583984375,0.7018254960745572,-0.2485037092465907,-0.2867035664444789
1772794621550343400,3.918343505859375,0.4765460836142301,-0.6482260808993131,0.41050311072301116
1772794621560387300,3.92838720703125,0.5262772059887647,-0.2369299566350877,0.015513978137262165
1772794621570431500,3.938431396484375,0.5260311222732067,-0.06321655382625758,-0.19154596008677036
1772794621580476400,3.948476318359375,0.39709026958346366,-0.16988865688890217,-0.08228939348887651
1772794621590520300,3.958520263671875,0.32800095126628875,-0.1582758143760264,0.0440691510900855
1772794621600564500,3.968564453125,0.22752748364806175,-0.07234422845989465,0.13222111646942794
1772794621610609400,3.978609375,0.12631868749260902,-0.09008892479129135,0.19108670854456722
1772794621620651500,3.988651611328125,0.12799568079411983,-0.1203136749241501,0.21727482357248662
1772794621630696400,3.998696533203125,0.09774959561228752,-0.13690832443758844,0.18732746560890226
1772794621640740400,4.008740234375,0.06987023956179618,-0.159828669841215,0.155379033488594
1772794621650785500,4.01878564453125,0.0024760347247123715,-0.25056487956009804,0.18829470320586114
1772794621660829400,4.028829345703125,-0.06020867724716663,-0.2992649053212255,0.21886077758967876
1772794621670873300,4.038873291015625,-0.17058043854534624,-0.3556085046380758,0.22818434012159705
1772794621680918500,4.04891845703125,-0.25639585073590276,-0.3854097686618566,0.15589381461031734
1772794621690962400,4.05896240234375,-0.26504502113759515,-0.42471294745914634,0.10434935920350252
1772794621701006300,4.06900634765625,-0.19722762245237827,-0.5045728853113949,0.06298475436437875
1772794621711051500,4.079051513671875,-0.08578560157418251,-0.6466520365156233,0.06923132060375065
1772794621721095700,4.089095703125,0.035275896042585374,-0.7801265871122479,0.0588657016729936
1772794621731139300,4.099139404296875,0.10447159734368323,-0.8477057200621813,0.028273616065084932
1772794621741184500,4.1091845703125,0.09746493345201016,-0.9175496561389416,-0.008624437819235026
1772794621751228700,4.119228759765625,0.04749474162459373,-0.999770770164579,-0.06376943846866488
1772794621761273300,4.1292734375,-0.020823592320084572,-1.045511946120113,-0.1218751520872116
1772794621771317500,4.1393173828125,-0.1157148758918047,-1.0823460313901305,-0.1799260302459821
1772794621781361700,4.149361572265625,-0.16809388242661952,-1.1213620638091117,-0.24760175543818622
1772794621791406300,4.15940625,-0.17335984013080596,-1.130203541912511,-0.2991799304515123
1772794621801450500,4.169450439453125,-0.1692144108891487,-1.1024689280949533,-0.32181740379314866
1772794621811494700,4.17949462890625,-0.1948953801125288,-1.0612073817715049,-0.3625206951793283
1772794621821539300,4.189539306640625,-0.2034475198805332,-0.9694567343130707,-0.391208043144457
1772794621831583500,4.19958349609375,-0.1720417432695627,-0.8194129609052091,-0.35074736487511543
1772794621841627400,4.20962744140625,-0.15701602357327937,-0.6633936932843179,-0.2526055185422301
1772794621851672600,4.219672607421875,-0.22161036855876445,-0.5680837459091097,-0.06534772063605487
1772794621861716500,4.229716552734375,-0.3238987766444683,-0.5675391541710123,0.12181107387505472
1772794621871760600,4.2397607421875,-0.43625674332380293,-0.6020899508094415,0.244838464737311
1772794621881805600,4.2498056640625,-0.4718541264057159,-0.6577525455921888,0.23867252598609773
1772794621891849500,4.259849365234375,-0.4753577506124973,-0.6386286698620766,0.16777517186626792
1772794621901894700,4.269894775390625,-0.4657195691734552,-0.5828493168318644,0.04979607736952603
1772794621911938600,4.2799384765625,-0.5029390004992484,-0.4944196670223027,-0.08013999690264463
1772794621921982500,4.289982421875,-0.6029138709455728,-0.40852074126675725,-0.15334931775927543
1772794621932027600,4.300027587890625,-0.6721539959102869,-0.316587065391615,-0.2459056921100244
1772794621942071600,4.310071533203125,-0.6736486183822155,-0.22472590676341206,-0.30718546918742357
1772794621952115500,4.320115478515625,-0.6727496237158775,-0.1723103310778737,-0.3584988923173398
1772794621962160600,4.33016064453125,-0.6449275508105754,-0.08267229185923934,-0.3489144868921488
1772794621972205600,4.34020556640625,-0.5816548098176717,0.021982480031624434,-0.40779107528533787
1772794621982249500,4.35024951171875,-0.4351140030294656,0.14212087145410476,-0.4434151637110859
1772794621992293600,4.360293701171875,-0.32954233548939227,0.22934220491982996,-0.46701198360417034
1772794622002338600,4.370338623046875,-0.2736924379736185,0.26724698816128073,-0.45737493467628954
1772794622012382500,4.380382568359375,-0.2788321389496326,0.27736805774644013,-0.47426060302555556
1772794622022426600,4.390426513671875,-0.2440641924291849,0.30574827599115667,-0.5135290027704089
1772794622032471600,4.400471435546875,-0.16269757634103296,0.30450514406226575,-0.5338739447280765
1772794622042515500,4.410515380859375,-0.04623158982098102,0.2796164211951196,-0.5444985433885827
1772794622052559600,4.4205595703125,0.03642331251204014,0.21902159417457878,-0.5542625066317618
1772794622062604500,4.4306044921875,0.04530278453826904,0.17871501048840582,-0.5925104042224586
1772794622072648400,4.4406484375,-0.02154781494140625,0.1986765060864389,-0.6232473416611551
1772794622082693600,4.450693603515625,-0.07490881825089454,0.26797208756543694,-0.651124798015505
1772794622092737800,4.46073779296875,-0.048750294643640515,0.36487799889519806,-0.7481213833034038
1772794622102781400,4.470781494140625,-0.0010848726272583008,0.4549819020599127,-0.7681336592406034
1772794622112826600,4.48082666015625,0.024125556474924086,0.5444918579194694,-0.756925744266808
1772794622122870800,4.490870849609375,-0.005405073913931847,0.6881505334001035,-0.7508994697146117
1772794622132914400,4.50091455078125,-0.08011632376611233,0.8801278341088443,-0.7001121162854135
1772794622142959600,4.510959716796875,-0.15152560946345328,1.1127317442383617,-0.5933886848943307
1772794622153003800,4.521003662109375,-0.16917407887876032,1.3152455634653568,-0.43047355681248006
1772794622163047700,4.531047607421875,-0.1514420228332281,1.3334654030278323,-0.22638328204900024
1772794622173092600,4.541092529296875,0.10680617777109146,1.4726505863562225,-0.005177366105280816
1772794622183136800,4.55113671875,0.5048807822167873,1.873642539553344,-0.36865079543218016
1772794622193181400,4.561181396484375,0.6841665052652358,1.7111977689296005,-0.40988096023667603
1772794622203225600,4.5712255859375,0.8617489315271377,1.3279609603926539,-0.10061283955629914
1772794622213269800,4.581269775390625,0.9813742588609456,1.0932820706199855,0.10202237756066024
1772794622223314400,4.591314453125,1.0179559768050908,0.9974249376907944,0.16720045898454264
1772794622233358600,4.601358642578125,0.9962684611320495,0.9790549490679055,0.21041052729357032
1772794622243402500,4.611402587890625,0.9587550152957439,0.8898605619635432,0.22279705759268253
1772794622253447400,4.621447509765625,0.9431213928341865,0.7996138893272727,0.23433902682643382
1772794622263491600,4.63149169921875,0.9388362628608942,0.7131566721018403,0.2516140780857764
1772794622273535500,4.641535400390625,0.8981371727257966,0.6531812921538949,0.24734741535093635
1772794622283580400,4.651580322265625,0.7661398550748825,0.6370156086422503,0.22068897939752785
1772794622293624600,4.66162451171875,0.6331979500502347,0.6495583524163812,0.16135891161579638
1772794622303669800,4.671669677734375,0.446678184095025,0.6895970058813691,0.14121734674312172
1772794622313713700,4.681713623046875,0.28546704691946506,0.7435412889715284,0.13219970835521816
1772794622323757600,4.691757568359375,0.15676409463882446,0.8338349425546825,0.13274236386455596
1772794622333802800,4.701802734375,0.07145429388284683,0.9030855889134108,0.12954957743892445
1772794622343846700,4.7118466796875,0.014949147328734397,0.9309782428368926,0.13729093054700642
1772794622353890600,4.721890625,-0.12249240720272063,0.9105624276001005,0.10187149784788489
1772794622363935700,4.731935791015625,-0.20828151590824126,0.8867989824358373,0.0718159668020904
1772794622373979600,4.741979736328125,-0.22113632130622862,0.838135416227579,0.02911631396692246
1772794622384023600,4.7520234375,-0.17790917399823664,0.7463250014059245,0.025078984742239116
1772794622394068500,4.762068359375,-0.13671207121312617,0.620828590081632,0.012353102953545749
1772794622404112600,4.772112548828125,-0.0666933630913496,0.4914847826141864,0.013799155309703201
1772794622414157600,4.782157470703125,0.0017190788775682448,0.2934931169867515,-0.0014896905684843658
1772794622424201500,4.792201416015625,0.036170214533805846,0.08509528122246265,-0.012177088799513876
1772794622434245600,4.80224560546875,0.06822013426721095,-0.1044335303556174,0.002618658065795898
1772794622444290600,4.81229052734375,0.08809680112600327,-0.22476444867551326,0.011062387289572507
1772794622454334500,4.82233447265625,0.03235153302848339,-0.2925318707391619,0.05250920878574252
1772794622464378600,4.832378662109375,-0.05151917483508586,-0.3043727498542517,0.09823423732407391
1772794622474423600,4.842423583984375,-0.17182722373604772,-0.28053616638854145,0.13542466175109147
1772794622484467500,4.852467529296875,-0.2596370246142149,-0.27008973730653524,0.12248665331536904
1772794622494511600,4.86251171875,-0.32751346001029014,-0.2845700250145048,0.11697669425485654
1772794622504556500,4.872556640625,-0.34249241795539853,-0.35570268572755154,0.0731907805529423
1772794622514600400,4.882600341796875,-0.31912440184950824,-0.41142713023275135,0.07219515711171552
1772794622524644600,4.89264453125,-0.31543957585692406,-0.45184312911015,0.06988348263585939
1772794622534689800,4.902689697265625,-0.3202957837164402,-0.46862840582486237,0.03214779061730951
1772794622544733400,4.9127333984375,-0.34776071374714373,-0.39456338145434855,-0.021315412691328674
1772794622554778600,4.922778564453125,-0.37058161736428735,-0.28361115338709203,-0.046872079681605096
1772794622564822800,4.93282275390625,-0.38449265381693837,-0.20339326894264667,-0.086270279818587
1772794622574866400,4.942866455078125,-0.3751578392386436,-0.18230185599923132,-0.09746884244214743
1772794622584911600,4.95291162109375,-0.42807402139008044,-0.10927633074428886,-0.18292338543105868
1772794622594955800,4.962955810546875,-0.46089024932086464,-0.13095548044778405,-0.24198070068601518
1772794622604999400,4.97299951171875,-0.42269466643929476,-0.2040023772843182,-0.2279154235197231
1772794622615044600,4.983044677734375,-0.3197954329788685,-0.31758893591053783,-0.20503643303979188
1772794622625088800,4.9930888671875,-0.20444705231189728,-0.4788278013432398,-0.14825250607691703
1772794622635132700,5.003132568359375,-0.12538228342533111,-0.6507360178936272,-0.06890789733566344
1772794622645177600,5.013177490234375,-0.0728495476335287,-0.7316431267112493,-0.06018624621964991
1772794622655221800,5.0232216796875,-0.0617132365912199,-0.8193944023352115,-0.04596687447018921
1772794622665266400,5.033266357421875,-0.04292904114425182,-0.90187716297172,-0.016410378987714646
1772794622675310600,5.043310546875,-0.0006686930418014526,-0.9950057477198541,0.02220105468574911
1772794622685354800,5.053354736328125,0.045316813063621515,-1.0839381228871643,0.05577051213663071
1772794622695399400,5.0633994140625,0.08482873924076556,-1.1413885874673724,0.0670937240531668
1772794622705443600,5.073443603515625,0.07444295430481433,-1.121720156531781,0.08612210351955145
1772794622715487500,5.083487548828125,0.041675826212763785,-1.0767966536346822,0.13859879827518015
1772794622725532400,5.093532470703125,-0.09841595056653023,-0.9906494522064924,0.1550220002118498
1772794622735576600,5.10357666015625,-0.2681260360181332,-0.8670286254957318,0.23950587153770028
1772794622745620500,5.113620361328125,-0.39088089354932304,-0.7457194367282092,0.298637786398828
1772794622755665700,5.123665771484375,-0.44460839208364483,-0.6406831912390888,0.38581959157176315
1772794622765709600,5.13370947265625,-0.41503742968440055,-0.6093492012226954,0.5184256157055497
1772794622775754800,5.143754638671875,-0.2503922264069319,-0.5752539297994226,0.5627708072580396
1772794622785798700,5.153798583984375,-0.10157646042406558,-0.5349737957287579,0.5235130750376731
1772794622795842600,5.163842529296875,0.006505144110321998,-0.5531339044606313,0.5212703376121819
1772794622805887700,5.1738876953125,0.0040653497427701945,-0.5952146947450936,0.5403209289103746
1772794622815931600,5.183931640625,-0.0729582687050104,-0.5614100768314674,0.4858437810525298
1772794622825975600,5.1939755859375,-0.1560427946269512,-0.5525593194430694,0.46987625046148895
1772794622836020700,5.204020751953125,-0.18511106820106504,-0.5114067499194294,0.42658845900744197
1772794622846064600,5.214064697265625,-0.23058920930624008,-0.5040452081754804,0.3567372894722968
1772794622856108500,5.224108642578125,-0.32896833499372,-0.5558740700142458,0.3483423130273819
1772794622866153700,5.23415380859375,-0.48536710345149037,-0.6500635254595428,0.34550394779630006
1772794622876197600,5.24419775390625,-0.6076210257232189,-0.7575206414200365,0.24335290235467252
1772794622886242600,5.25424267578125,-0.6570329991459846,-0.8640595465570687,0.07026829896867275
1772794622896286700,5.26428662109375,-0.6479600503742694,-0.9301517288848757,-0.08729096463583409
1772794622906330600,5.27433056640625,-0.7268845340073108,-0.7989685040958225,-0.43993623555414374
1772794622916375600,5.28437548828125,-0.9214356307268142,-0.6671444241199642,-0.6445032609838992
1772794622926419700,5.294419677734375,-1.1666402253627777,-0.40301213391311463,-0.6524889259755611
1772794622936463600,5.304463623046875,-1.3706436255604029,-0.029260727406293152,-0.5957097847856581
1772794622946508500,5.314508544921875,-1.534961496579647,0.3205121664134785,-0.4088593255713582
1772794622956552700,5.324552734375,-1.5459610294997692,0.6867318257085978,-0.21719152920320628
1772794622966596600,5.3345966796875,-1.4071516937464474,1.038654700636491,-0.10504428266510367
1772794622976641500,5.3446416015625,-1.1931243276625871,0.8725758112940937,0.2484792323924601
1772794622986685700,5.354685791015625,-0.6511240673631429,1.224799203538522,0.13648527671992777
1772794622996730600,5.364730712890625,-0.21063889268934727,1.1713212227858603,0.14605506909787655
1772794623006774800,5.37477490234375,0.16049392881691454,0.711303080124408,0.3337272199586034
1772794623016818400,5.384818359375,0.5955220071285963,0.41178609973825514,0.3874012347400188
1772794623026863600,5.394863525390625,0.8475602471768856,0.1814821371141821,0.3619152035668492
1772794623036907800,5.40490771484375,0.9220435334920882,-0.01019822647459805,0.31008783956542607
1772794623046951400,5.414951416015625,0.9101666332155466,-0.11612784060686826,0.2119913302116096
1772794623056996600,5.42499658203125,0.8192349009245634,-0.14710487041175366,0.1399614283978939
1772794623067040800,5.435040771484375,0.7062608481734991,-0.08410897359885275,0.10814707098603248
1772794623077084400,5.44508447265625,0.5980483107358217,0.044545024973526595,0.1525613822519779
1772794623087129600,5.455129638671875,0.5328074845403432,0.26335268413648005,0.20861849277764558
1772794623097173800,5.465173828125,0.5045411749988794,0.46831280053704977,0.259248902079463
1772794623107218700,5.47521875,0.4800333412081003,0.6646528995651751,0.33152707956582306
1772794623117262600,5.4852626953125,0.4904249713629484,0.8138932476356625,0.4143547081172466
1772794623127306800,5.495306640625,0.504666847205162,0.9540080399643629,0.48336935376301404
1772794623137351700,5.5053515625,0.5354810876637697,1.05342732235454,0.5491163759149611
1772794623147395600,5.5153955078125,0.5577548787921667,1.116160841904208,0.6508297605916857
1772794623157439700,5.525439697265625,0.5792752212047576,1.1098730668716132,0.7531191915906965
1772794623167484400,5.535484375,0.5698743556529283,1.0699277907785028,0.798632111748308
1772794623177528600,5.545528564453125,0.5716793592482805,1.007087230657786,0.7922118694424629
1772794623187572700,5.55557275390625,0.57755497328341,0.8765403310108929,0.7338624101959168
1772794623197617400,5.565617431640625,0.5417255350112915,0.7608389721877873,0.7085572885476052
1772794623207661600,5.57566162109375,0.5285492425739765,0.6242528654418885,0.6961119407333434
1772794623217706800,5.585706787109375,0.5270329927921295,0.4949386493951082,0.6962848130822181
1772794623227750700,5.595750732421875,0.5477817663103342,0.3239722802720964,0.6730160195671021
1772794623237794600,5.605794677734375,0.6203939980566501,0.17697087023481725,0.5818506246507168
1772794623247839700,5.61583984375,0.6865782425820827,0.03185140148662031,0.5201273050568997
1772794623257883600,5.625883544921875,0.6771984198182821,-0.09140387984737754,0.4391812524683773
1772794623267927600,5.635927490234375,0.6028273617058992,-0.15459756425470114,0.3558265313029289
1772794623277972700,5.64597265625,0.487771826505661,-0.16629720826819538,0.32045477367043496
1772794623288016600,5.6560166015625,0.33470132568776606,-0.17554551360681653,0.3190611273549497
1772794623298061600,5.6660615234375,0.20637889715731142,-0.11561799138858914,0.3337890331484377
1772794623308105700,5.676105712890625,0.07791092267632484,-0.08697342311926186,0.36775676920190453
1772794623318149600,5.686149658203125,-0.021996727752685546,-0.052307329538092015,0.36666225196346636
1772794623328194600,5.696194580078125,-0.08152969769537448,-0.01701345944739878,0.35504444101452826
1772794623338238700,5.70623876953125,-0.10288812754452228,-0.021242109993100167,0.3376132676117122
1772794623348282600,5.71628271484375,-0.05796469771265983,-0.08366276420131326,0.3300299728758633
1772794623358327600,5.72632763671875,-0.053285015463829036,-0.19486827290989459,0.40001667842417954
1772794623368371700,5.736371826171875,-0.10704641626775264,-0.26925942396223546,0.44199981702044605
1772794623378415600,5.74641552734375,-0.13365619077384472,-0.32691016035489734,0.46041854015588757
1772794623388460500,5.75646044921875,-0.0848532891601324,-0.3413782461684197,0.4793263619825244
1772794623398504700,5.766504638671875,-0.003134206372499466,-0.421609976475127,0.49787959821783
1772794623408549600,5.776549560546875,0.11420447132885456,-0.5007284483103082,0.44017135948427016
1772794623418593500,5.786593505859375,0.22240473380684853,-0.5722907691448926,0.34719043957851825
1772794623428637700,5.7966376953125,0.27294892612993715,-0.6679311905834824,0.3168834179896861
1772794623438682600,5.8066826171875,0.27364626074433324,-0.7458912861637771,0.2633005155578256
1772794623448726500,5.8167265625,0.2346621578335762,-0.8196850558448583,0.20917064676769076
1772794623458770700,5.826770751953125,0.24041385322809217,-0.8285846208110451,0.13226364043690264
1772794623468815600,5.836815673828125,0.26265374208688735,-0.8406926994949578,0.11249803273715078
1772794623478859800,5.84685986328125,0.2594721894413233,-0.8112369609732181,0.10570289270430802
1772794623488903400,5.8569033203125,0.27457448150515557,-0.7790323621347546,0.0940081440616399
1772794623498948600,5.866948486328125,0.2528565706938505,-0.7347652042545377,0.08823781703189015
1772794623508992800,5.87699267578125,0.23480653474032878,-0.6934260626502334,0.05263283516541123
1772794623519037700,5.88703759765625,0.18663725485503674,-0.663216656216979,0.04854096274189651
1772794623529081600,5.89708154296875,0.15445932482779026,-0.6326844475701451,0.029301497808098792
1772794623539125800,5.907125732421875,0.13962883544266222,-0.5930171116355806,0.008781199283525347
1772794623549170700,5.917170654296875,0.07876140202581881,-0.5985016074612737,-0.040029301114752884
1772794623559214600,5.927214599609375,0.03120996177792549,-0.6642540364407002,-0.1293436613369733
1772794623569258800,5.9372587890625,0.030206337693333623,-0.7298389268334955,-0.26519940798170866
1772794623579303700,5.9473037109375,0.03520867602527141,-0.7545601841792464,-0.3440099098462611
1772794623589347600,5.95734765625,-0.018615268620848655,-0.7327805332433432,-0.3677605685941875
1772794623599391700,5.967391845703125,-0.09616495676934718,-0.6814238554935902,-0.3939746217809617
1772794623609436700,5.977436767578125,-0.1572451561540365,-0.6502117748238146,-0.42592305390127
1772794623619480600,5.98748046875,-0.1682201391547918,-0.6485214836493134,-0.42042357970215377
1772794623629525800,5.99752587890625,-0.15988836413919924,-0.6780545982562005,-0.39626331724002956
1772794623639569400,6.0075693359375,-0.12287936069369315,-0.7191879881553351,-0.41472631790861486
1772794623649613600,6.017613525390625,-0.11695347777605056,-0.7930912095602601,-0.4082118945132941
1772794623659658800,6.02765869140625,-0.1679553507387638,-0.8404024113114923,-0.312185250236094
1772794623669702700,6.03770263671875,-0.3199854025930166,-0.8791249406766146,-0.1513136472132057
1772794623679746600,6.04774658203125,-0.5054933611571788,-0.8492318336509168,0.024185835294798015
1772794623689791700,6.057791748046875,-0.5460913290053606,-0.7940455146104097,0.15495894491299986
1772794623699835600,6.067835693359375,-0.549615411478281,-0.7173065583229065,0.2541621003344655
1772794623709880600,6.077880615234375,-0.6300163974046706,-0.6812232183549553,0.31902013775743543
1772794623719924700,6.0879248046875,-0.7518366044342517,-0.6361198288463056,0.4651073555592447
1772794623729968600,6.09796875,-0.8435656245827674,-0.5473896251875907,0.5489133276235312
1772794623740013600,6.108013671875,-0.89121175737679,-0.4210703166404739,0.5563763569805771
1772794623750057700,6.1180576171875,-0.8160521792352199,-0.2944831509374082,0.5550893128447234
1772794623760101600,6.1281015625,-0.7574538597941398,-0.17969130817465484,0.639248847587034
1772794623770146600,6.138146484375,-0.753986475944519,0.016753018412925303,0.6108470750976354
1772794623780190700,6.148190673828125,-0.8485884211808442,0.22586601670924572,0.5721257878415286
1772794623790234600,6.158234619140625,-0.9719500124335289,0.45019335260912774,0.6137088942695409
1772794623800279600,6.168279541015625,-1.0142752424657344,0.6125087246995419,0.6615507688313722
1772794623810323700,6.17832373046875,-0.965860463386774,0.7049087759774177,0.659543666792661
1772794623820368600,6.18836865234375,-0.7889239338129759,0.7225144291643053,0.6005065906081348
1772794623830412500,6.19841259765625,-0.523956654086709,0.6933906990759074,0.5682045227445661
1772794623840456700,6.208456787109375,-0.1851864715248346,0.6477194465514272,0.5401548516284674
1772794623850501000,6.218501220703125,0.03770809162557125,0.6316287279721349,0.48867403604239223
1772794623860545300,6.228545166015625,0.10230828182995319,0.6117028151441365,0.5475787180189043
1772794623870589000,6.2385888671875,0.10477087255120276,0.5986539484787732,0.5967734684944153
1772794623880634000,6.248634033203125,0.17298925325274467,0.588469166007638,0.6130753456063568
1772794623890678300,6.25867822265625,0.3378858009427786,0.5708996801126748,0.6297238441988825
1772794623900723000,6.268722900390625,0.5747896002233028,0.5244052746370435,0.6138835201840848
1772794623910767000,6.27876708984375,0.7309843705415725,0.4695356203302741,0.5886551900990307
1772794623920811300,6.288811279296875,0.7757756984263658,0.3875237651411444,0.618126710711792
1772794623930856000,6.29885595703125,0.7440308991193771,0.35717969947755335,0.6578158200867473
1772794623940900000,6.308900146484375,0.6433762297153472,0.3587177957650274,0.6824720493722707
1772794623950944300,6.3189443359375,0.5850631569564342,0.3816157832063734,0.7571244086440652
1772794623960989000,6.328989013671875,0.554203323790431,0.4049126337721944,0.8736619260303675
1772794623971033000,6.339033203125,0.5522387457191944,0.503986902116984,0.9245305280022322
1772794623981077200,6.3490771484375,0.48740182414948935,0.5979474076446145,0.9991793801426887
1772794623991122000,6.359121826171875,0.43034313536584373,0.6719707482978701,1.1261526590865105
1772794624001166000,6.369166015625,0.4195972849458456,0.7644638116214424,1.195615852217376
1772794624011211300,6.379211181640625,0.35663784768581386,0.8112632644582539,1.2737184980735181
1772794624021255000,6.3892548828125,0.3598813596516847,0.8746637965492904,1.2756962278872728
1772794624031299000,6.399299072265625,0.3543354159623384,0.9395615083955228,1.2703975369572638
1772794624041344300,6.40934423828125,0.4227355829715729,0.9027467854131013,1.2494032642453907
1772794624051388000,6.419387939453125,0.5088040931403637,0.8888676054034381,1.1988755116004497
1772794624061432000,6.42943212890625,0.5301128386288881,0.8260498416364193,1.1620778128180653
1772794624071477200,6.439477294921875,0.4943810155123472,0.7299952864389866,1.1488697370029985
1772794624081521200,6.449521240234375,0.35327509325444695,0.656248497704789,1.1894912318572401
1772794624091566000,6.459566162109375,0.21728315300941467,0.5590277482721955,1.1458081574752925
1772794624101610200,6.4696103515625,0.2131499987274408,0.4888290804736316,0.9718748283054679
1772794624111654100,6.479654052734375,0.21009704089760778,0.4160024753242731,0.8837612221751362
1772794624121699000,6.489698974609375,0.17658757000565528,0.3585626052033156,0.8536634594228119
1772794624131743200,6.4997431640625,0.09919044207036494,0.3060520081780851,0.8618306915264576
1772794624141787100,6.509787109375,-0.017165069812536238,0.31547998093254864,0.8735981400791555
1772794624151832000,6.51983203125,-0.13694587996900082,0.3427907433148473,0.8834102898456155
1772794624161876200,6.529876220703125,-0.3028933980166912,0.34122517449855805,0.8991611820112914
1772794624171920100,6.539920166015625,-0.38400866969227787,0.36210305428914724,0.8619256032682955
1772794624181965000,6.549965087890625,-0.42580666097998615,0.3635326487008482,0.8402451018579303
1772794624192009200,6.56000927734375,-0.4614852926045656,0.3740834880053997,0.8182122068133205
1772794624202054100,6.57005419921875,-0.46036417962014675,0.36574119159579277,0.782946320708096
1772794624212098000,6.58009814453125,-0.5013286426931619,0.3455494674384594,0.7765224982056766
1772794624222142000,6.590141845703125,-0.50813949175179,0.31305604172125456,0.7393665605701506
1772794624232187100,6.600187255859375,-0.46064650369286536,0.2717934724844992,0.6691757107518613
1772794624242231000,6.61023095703125,-0.4681470885813236,0.2195286669138819,0.6438753383439034
1772794624252275000,6.62027490234375,-0.5540069244354963,0.18941987131088972,0.6572416734606027
1772794624262320000,6.630320068359375,-0.5991372750163078,0.1824239480089396,0.6640200815543532
1772794624272364000,6.640364013671875,-0.5468523765057325,0.16661759932897985,0.6120340929251163
1772794624282409200,6.6504091796875,-0.43035248771607876,0.11700403891950845,0.5819936863832176
1772794624292453000,6.660453125,-0.28675182603299615,0.0336855581112206,0.5358619767401367
1772794624302497000,6.6704970703125,-0.13985446089208126,-0.027768589152395724,0.49946884017065163
1772794624312542200,6.680542236328125,-0.0041249709755182265,-0.09259681595899164,0.4709675528295338
1772794624322586000,6.690586181640625,0.05917524254620075,-0.21642712070196865,0.47515623669102786
1772794624332630300,6.70063037109375,0.07108896770179271,-0.3278901113029569,0.47782662494406103
1772794624342675200,6.71067529296875,0.0755512078076601,-0.41734629114866256,0.4721926376450807
1772794624352719000,6.720718994140625,0.0594867927134037,-0.5037799083027988,0.4956992585040629
1772794624362763300,6.73076318359375,0.107183778911829,-0.5671075212880968,0.4762287612933665
1772794624372808000,6.740807861328125,0.20675299116671084,-0.6009959815602749,0.42141441737040874
1772794624382852000,6.75085205078125,0.25810908439457414,-0.6398492976982146,0.3501779309567064
1772794624392897000,6.76089697265625,0.1955009447902441,-0.6527366171263158,0.3276869168810546
1772794624402941000,6.77094091796875,0.05006546889543533,-0.5651503228057175,0.3292867532931268
1772794624412985000,6.780985107421875,-0.06394318760037422,-0.4388006556529552,0.34748606152422723
1772794624423030000,6.791030029296875,-0.12872224150300024,-0.28718576047085226,0.4577152725465595
1772794624433074000,6.801073974609375,-0.10926993753612041,-0.14097301659323275,0.5616292360074818
1772794624443118000,6.8111181640625,-0.014368132570385932,0.07139891043379902,0.5785596202813088
1772794624453163300,6.821163330078125,0.10586451300680637,0.2052831378098577,0.5731712052412331
1772794624463207000,6.83120703125,0.22328034759759902,0.24666626468636094,0.5932168719913811
1772794624473252000,6.841252197265625,0.2880705074161291,0.2414873276785016,0.5729178880672902
1772794624483296300,6.851296142578125,0.21173370218873022,0.2615462192364037,0.5793002095155417
1772794624493340000,6.86133984375,0.08476561087667941,0.2844662723790854,0.5732597603075206
1772794624503385000,6.871385009765625,-0.01028174003958702,0.30406309938319026,0.5501368050038814
1772794624513429200,6.88142919921875,-0.027100188371539113,0.3267503666833043,0.4749049653436988
1772794624523473200,6.89147314453125,-0.09267126943469046,0.4080748971953988,0.3940481254085898
1772794624533518000,6.90151806640625,-0.17865443940758705,0.5528740479480475,0.3595838380098343
1772794624543562200,6.911562255859375,-0.3142477357238531,0.6641147741004825,0.40902028828673065
1772794624553606100,6.921606201171875,-0.38524317992329593,0.6976049557700753,0.5769903251379728
1772794624563651000,6.931651123046875,-0.37408290348351,0.6053259005233645,0.6862749487865716
1772794624573695200,6.9416953125,-0.29360066901445386,0.42508616468571125,0.589497120815888
1772794624583740000,6.951739990234375,-0.2067851398706436,0.19261187228523194,0.38505087222158907
1772794624593784000,6.9617841796875,-0.11954115618169307,-0.0401570191476494,0.16289602152258156
1772794624603828200,6.971828125,-0.11691489933133124,-0.2626571761529893,-0.015461188504099844
1772794624613873000,6.981872802734375,-0.22117080809772013,-0.47855523147955537,-0.20254582180045544
1772794624623917000,6.9919169921875,-0.46062838351428503,-0.5338393118061125,-0.3431246514443308
1772794624633961200,7.001961181640625,-0.7650801168888807,-0.39490086978040634,-0.30416575604006646
1772794624644006000,7.012005859375,-1.0117957006096838,-0.17359269903860985,-0.14122633376717567
1772794624654050000,7.022050048828125,-1.1522878748834133,0.20017149388454852,-0.024135931738466024
1772794624664095200,7.03209521484375,-1.2379583256453275,0.6711481068033724,-0.007263707392662763
1772794624674139100,7.04213916015625,-1.2459826421469449,0.9880283099226653,0.1956136113844812
1772794624684183000,7.05218310546875,-1.1202502301096915,1.135984755662456,0.3828824421413243
1772794624694228200,7.062228271484375,-0.7866548198372125,1.2426005984932182,0.40341333512514826
1772794624704272100,7.072272216796875,-0.5387812982529402,1.2438435842916369,0.6210267430022358
1772794624714316000,7.08231591796875,-0.28814824882745743,1.3167001461878418,0.6350595792036503
1772794624724361200,7.092361328125,-0.08226210362315177,1.2054966102406381,0.5553215872306376
1772794624734405000,7.102405029296875,0.14934008211791513,1.0126204609960316,0.408980906124413
1772794624744450000,7.112449951171875,0.3535568328052759,0.7824665743671357,0.27392573527283964
1772794624754494200,7.122494140625,0.4384352564066648,0.5188054818686098,0.20279241697266698
1772794624764538000,7.1325380859375,0.4641524659872055,0.31087891687788066,0.13090966854467986
1772794624774583000,7.1425830078125,0.5207698407441377,0.19166297406256197,-0.011941636075824498
1772794624784627200,7.152627197265625,0.5985445698201656,0.09499277118481696,-0.14464067225530744
1772794624794671000,7.162671142578125,0.6896604265064,0.016352730516344307,-0.1906267628826201
1772794624804716000,7.172716064453125,0.7886778500974178,-0.013922653825208544,-0.2566045250505209
1772794624814760200,7.18276025390625,0.8396978432387113,0.014305515662953256,-0.3034212943483144
1772794624824805000,7.19280517578125,0.8292758179455995,-0.0003757014445960521,-0.2328382303420454
1772794624834849000,7.20284912109375,0.7613678183674812,0.2419079642433673,-0.45908846059590575
1772794624844893000,7.212892822265625,0.48802667804956434,0.3573638969380408,-0.35938999593816695
1772794624854938000,7.222938232421875,0.1885474723905325,0.49287324129790067,-0.1882607644036412
1772794624864982000,7.23298193359375,-0.05300736756622791,0.6643962213903665,-0.0743158207938075
1772794624875026200,7.243026123046875,-0.22875439509451387,0.748602152557671,0.009781243171542883
1772794624885071000,7.253071044921875,-0.35235739388763904,0.7543683879341929,0.04851370940878987
1772794624895115300,7.263115234375,-0.43065702362060543,0.7474111892074347,0.031168022332340478
1772794624905159200,7.2731591796875,-0.4518839360445738,0.7264245883453637,-0.03776522864028811
1772794624915204000,7.2832041015625,-0.4255301821261644,0.692365374616161,-0.06843743027970195
1772794624925248300,7.293248291015625,-0.37191023561954495,0.6311568726766854,-0.06626447015479206
1772794624935293200,7.303293212890625,-0.2674485751479864,0.5513311293549835,-0.08544555596485734
1772794624945337000,7.313337158203125,-0.14330489360690116,0.4612894777715206,-0.12378317766562104
1772794624955381200,7.32338134765625,-0.0035509704798460003,0.3358987918440252,-0.2004467306293547
1772794624965426200,7.33342626953125,0.12233224820494651,0.24417057541310785,-0.1737105532646179
1772794624975470000,7.343469970703125,0.132344523653388,0.19798150955960153,-0.19808891545683144
1772794624985514200,7.35351416015625,0.07606207993924617,0.147451564957574,-0.23259485004022717
1772794624995559200,7.36355908203125,0.07609715125262737,0.10500409678518771,-0.2320975680425763
1772794625005603000,7.37360302734375,0.15451660797297953,0.04352715316787362,-0.20024258635938166
1772794625015648000,7.38364794921875,0.30700901664197444,-0.070446870405972,-0.15122779556065796
1772794625025692200,7.393692138671875,0.43083588731884953,-0.19187961248792706,-0.16147300298213957
1772794625035736000,7.403736083984375,0.5389262596815824,-0.2641582283657044,-0.19453750658556818
1772794625045781200,7.41378125,0.5953296994268894,-0.3111522539265454,-0.24926789855211973
1772794625055825200,7.4238251953125,0.5432546442747116,-0.3843322025582194,-0.2250361052237451
1772794625065869000,7.433869140625,0.46926410991251466,-0.4339476626638323,-0.17633125715702772
1772794625075914200,7.443914306640625,0.41979894499778747,-0.41052777024023235,-0.14336422257870435
1772794625085958100,7.453958251953125,0.4032382708191871,-0.3948766121219843,-0.10045213256925344
1772794625096003000,7.464003173828125,0.43692835897505283,-0.3552815377060324,-0.06355243471711873
1772794625106047200,7.474047119140625,0.4467915813416242,-0.28767705111913383,-0.011796090125292539
1772794625116091100,7.484091064453125,0.4779729015469551,-0.2654004835117608,-0.00945697965323925
1772794625126136000,7.494135986328125,0.4618944579273462,-0.3220527834516018,-0.04733545940965414
1772794625136180200,7.50418017578125,0.4411638045877218,-0.40276378517523403,-0.07830284460335969
1772794625146224000,7.51422412109375,0.3831973533093929,-0.48378173395618795,-0.06385244057700037
1772794625156269000,7.52426904296875,0.33022447253465653,-0.5238249905310571,-0.07014291902333497
1772794625166313200,7.534313232421875,0.24251637846529484,-0.5550356829613446,-0.06719488287270069
1772794625176358100,7.544358154296875,0.1487409471809864,-0.5946854832392185,-0.07115063476115464
1772794625186402000,7.554402099609375,0.07315349901616573,-0.592556289190799,-0.058580199262499806
1772794625196446200,7.5644462890625,0.019953239226341245,-0.6166140411265194,-0.0028192952044308185
1772794625206491100,7.5744912109375,0.011176058530807494,-0.6089752898763865,0.013257979371398687
1772794625216535000,7.58453515625,0.03774374746084213,-0.5926686635240912,0.05455182052925229
1772794625226579200,7.5945791015625,0.06325754342377185,-0.5357040827646852,0.09969356928691267
1772794625236624100,7.6046240234375,0.08958148672580718,-0.5041635007929056,0.0919619521215558
1772794625246668000,7.61466796875,0.09338321709632873,-0.49798123196139926,0.06289835472255945
1772794625256713200,7.624713134765625,0.04287701869606971,-0.49184711312055585,0.07759075081124901
1772794625266757400,7.63475732421875,0.07024550261497498,-0.436727064249292,0.12640987290740013
1772794625276801000,7.644801025390625,0.18210194951295852,-0.33410116783753036,0.1535131300188601
1772794625286846200,7.65484619140625,0.20719664328098297,-0.2315529397718608,0.13818521250560878
1772794625296890000,7.66489013671875,0.04503331994712353,-0.20507840901799498,0.2500989425487816
1772794625306934000,7.67493408203125,-0.1425625508069992,-0.06176474758274853,0.3429837086036801
1772794625316979200,7.684979248046875,-0.32587446063160896,0.09883424904383718,0.3705050449967384
1772794625327023000,7.695023193359375,-0.37245442549884317,0.18249686711467802,0.29685163363441824
1772794625337068000,7.705068115234375,-0.26260464224815366,0.14514752579890192,0.2611437759153545
1772794625347112200,7.7151123046875,-0.051048634713888166,0.02958016861900687,0.2483678809724748
1772794625357156000,7.725156005859375,0.08549626323878765,-0.0923177067566663,0.1575521762765944
