time,seconds_elapsed,z,y,x
1772794617703357000,0.07135693359375,-0.3098754286766052,0.0639168992638588,-0.16951535642147064
1772794617713400800,0.08140087890625,-0.2692927420139313,0.14783918857574463,-0.11265119910240173
1772794617723445000,0.091445068359375,-0.23396004736423492,0.22366710007190704,-0.08182483911514282
1772794617733490000,0.101489990234375,-0.21074382960796356,0.27896925806999207,-0.07532808184623718
1772794617743533800,0.111533935546875,-0.19291582703590393,0.31813955307006836,-0.08657913655042648
1772794617753578000,0.121577880859375,-0.18491145968437195,0.3526912331581116,-0.11095008999109268
1772794617763623000,0.131622802734375,-0.18389040231704712,0.3716537356376648,-0.14888735115528107
1772794617773666800,0.141666748046875,-0.18091098964214325,0.3827839493751526,-0.19495558738708496
1772794617783711000,0.1517109375,-0.16730622947216034,0.3916112780570984,-0.22384582459926605
1772794617793756000,0.161755859375,-0.15274231135845184,0.4013003706932068,-0.23515279591083527
1772794617803799800,0.1717998046875,-0.138424351811409,0.406816303730011,-0.23490405082702637
1772794617813844000,0.181843994140625,-0.1204678863286972,0.4097543954849243,-0.22964736819267273
1772794617823889000,0.191888916015625,-0.10182628780603409,0.41189318895339966,-0.22719992697238922
1772794617833932800,0.201932861328125,-0.08092638105154037,0.3825942575931549,-0.2255701720714569
1772794617843976700,0.211976806640625,-0.04935406520962715,0.33551332354545593,-0.21994131803512573
1772794617854022000,0.22202197265625,-0.02915136143565178,0.28216293454170227,-0.2095101773738861
1772794617864065500,0.2320654296875,-0.011418169364333153,0.26370298862457275,-0.1905234456062317
1772794617874109700,0.242109619140625,-0.007247094996273518,0.2889982759952545,-0.1632585972547531
1772794617884155000,0.25215478515625,0.011079980991780758,0.33938369154930115,-0.13891570270061493
1772794617894198800,0.26219873046875,0.055836256593465805,0.3709428310394287,-0.13390430808067322
1772794617904242700,0.27224267578125,0.12367548793554306,0.2591438591480255,-0.16404198110103607
1772794617914287900,0.282287841796875,0.12135109305381775,0.2509342432022095,-0.20657676458358765
1772794617924331800,0.292331787109375,0.12917546927928925,0.2075902372598648,-0.24022793769836426
1772794617934376700,0.302376708984375,0.14459167420864105,0.21957415342330933,-0.2541612684726715
1772794617944420900,0.3124208984375,0.14305929839611053,0.23357704281806946,-0.24340662360191345
1772794617954464800,0.32246484375,0.11102034151554108,0.21709448099136353,-0.22935816645622253
1772794617964509700,0.332509765625,0.08188296109437943,0.13031962513923645,-0.21314777433872223
1772794617974553900,0.342553955078125,0.053956106305122375,0.06570878624916077,-0.1845993548631668
1772794617984597800,0.35259765625,0.0407223254442215,-0.008986495435237885,-0.14763440191745758
1772794617994642700,0.362642578125,0.050768207758665085,-0.09292176365852356,-0.1216505691409111
1772794618004686800,0.372686767578125,0.09285973757505417,-0.21958276629447937,-0.12364474684000015
1772794618014730800,0.382730712890625,0.10997112095355988,-0.1308916211128235,-0.09531313925981522
1772794618024775700,0.392775634765625,0.0894882082939148,-0.09218630939722061,-0.06275972723960876
1772794618034819800,0.40281982421875,0.04398966580629349,-0.13449743390083313,-0.02224116027355194
1772794618044863700,0.41286376953125,0.015172663144767284,-0.1663120985031128,0.04003579542040825
1772794618054908700,0.42290869140625,0.014896111562848091,-0.20095938444137573,0.1052604615688324
1772794618064952800,0.432952880859375,0.07014897465705872,-0.2931577265262604,0.14048077166080475
1772794618074996700,0.442996826171875,0.10272348672151566,-0.2595404386520386,0.1512199193239212
1772794618085041700,0.453041748046875,0.12943312525749207,-0.14055918157100677,0.17235848307609558
1772794618095085800,0.4630859375,0.17839518189430237,-0.06835165619850159,0.179836243391037
1772794618105129700,0.473129638671875,0.2015226036310196,-0.02762340009212494,0.15506458282470703
1772794618115174700,0.483174560546875,0.27423524856567383,-0.10459749400615692,0.06731629371643066
1772794618125218800,0.49321875,0.2724735736846924,-0.030345100909471512,-0.050029776990413666
1772794618135262700,0.5032626953125,0.28345853090286255,0.13998328149318695,-0.14878728985786438
1772794618145308000,0.513307861328125,0.31261271238327026,0.31187596917152405,-0.22266097366809845
1772794618155351800,0.523351806640625,0.3344574272632599,0.4368554949760437,-0.27342087030410767
1772794618165395700,0.533395751953125,0.361311674118042,0.4953363537788391,-0.27635249495506287
1772794618175441000,0.54344091796875,0.3839845359325409,0.5477851033210754,-0.22948287427425385
1772794618185484500,0.553484619140625,0.37776631116867065,0.5780324935913086,-0.17596212029457092
1772794618195528700,0.56352880859375,0.35589247941970825,0.5569958090782166,-0.13489660620689392
1772794618205574000,0.573573974609375,0.3186337947845459,0.5148922801017761,-0.10498558729887009
1772794618215617500,0.583617431640625,0.26310083270072937,0.4910142123699188,-0.08825332671403885
1772794618225661700,0.59366162109375,0.21597565710544586,0.4825059473514557,-0.08277866989374161
1772794618235707000,0.603706787109375,0.1764853149652481,0.473896861076355,-0.08206527680158615
1772794618245750800,0.613750732421875,0.14257633686065674,0.4613179564476013,-0.08411537855863571
1772794618255795700,0.623795654296875,0.13390669226646423,0.44239896535873413,-0.0716383084654808
1772794618265839900,0.63383984375,0.14870640635490417,0.3950040340423584,-0.04532521590590477
1772794618275883800,0.6438837890625,0.18862980604171753,0.3318246006965637,-0.0021733641624450684
1772794618285928700,0.6539287109375,0.24210795760154724,0.27352720499038696,0.03764781728386879
1772794618295972900,0.663972900390625,0.2992743253707886,0.22290712594985962,0.05947806313633919
1772794618306016800,0.674016845703125,0.33622220158576965,0.22779031097888947,0.05954650789499283
1772794618316061700,0.684061767578125,0.3431711494922638,0.2558272182941437,0.054587770253419876
1772794618326105900,0.69410595703125,0.31648626923561096,0.2643067240715027,0.06063900515437126
1772794618336149800,0.704149658203125,0.3078904151916504,0.23883214592933655,0.0778236836194992
1772794618346194700,0.714194580078125,0.3242504894733429,0.19191284477710724,0.11458835005760193
1772794618356238800,0.72423876953125,0.3071759045124054,0.18164603412151337,0.16672511398792267
1772794618366282800,0.73428271484375,0.2720051407814026,0.18969731032848358,0.2286212295293808
1772794618376327700,0.74432763671875,0.21953582763671875,0.25159719586372375,0.30043092370033264
1772794618386371800,0.754371826171875,0.19889526069164276,0.22040866315364838,0.3673788011074066
1772794618396415700,0.764415771484375,0.1765376776456833,0.15552671253681183,0.4124428331851959
1772794618406460700,0.774460693359375,0.1678033024072647,0.11215739697217941,0.4256715476512909
1772794618416504800,0.7845048828125,0.17600585520267487,0.06872917711734772,0.41762620210647583
1772794618426548700,0.794548828125,0.1941204071044922,-0.014217635616660118,0.396396279335022
1772794618436593700,0.80459375,0.19169479608535767,-0.1338130086660385,0.36621999740600586
1772794618446637800,0.814637939453125,0.1610061228275299,-0.19474773108959198,0.3484974801540375
1772794618456681700,0.824681640625,0.11187402158975601,-0.18002887070178986,0.34100082516670227
1772794618466726700,0.8347265625,0.0468718521296978,-0.15346890687942505,0.33930546045303345
1772794618476770800,0.844770751953125,-0.029677025973796844,-0.17537914216518402,0.3229849934577942
1772794618486814700,0.854814697265625,-0.1143767312169075,-0.2256668210029602,0.28617849946022034
1772794618496860000,0.86485986328125,-0.17714837193489075,-0.27437981963157654,0.23265857994556427
1772794618506903600,0.874903564453125,-0.2227528840303421,-0.28939712047576904,0.17540381848812103
1772794618516947700,0.88494775390625,-0.24033577740192413,-0.28959012031555176,0.12472543865442276
1772794618526993000,0.894992919921875,-0.22919711470603943,-0.2657356560230255,0.10674430429935455
1772794618537036500,0.90503662109375,-0.1929534524679184,-0.22603993117809296,0.12182394415140152
1772794618547081700,0.915081787109375,-0.16905450820922852,-0.18780891597270966,0.1507309526205063
1772794618557126000,0.9251259765625,-0.12054204940795898,-0.20466607809066772,0.1838371306657791
1772794618567169800,0.935169677734375,-0.03392859175801277,-0.2156124711036682,0.1952061653137207
1772794618577214700,0.945214599609375,0.031773410737514496,-0.21330368518829346,0.17960014939308167
1772794618587259000,0.9552587890625,0.04852788895368576,-0.2102746069431305,0.14728882908821106
1772794618597302800,0.965302734375,0.030047481879591942,-0.18723735213279724,0.09622902423143387
1772794618607347700,0.97534765625,-0.004341649357229471,-0.16578719019889832,0.049400534480810165
1772794618617391900,0.985391845703125,-0.03884720429778099,-0.1578010469675064,0.011535612866282463
1772794618627435800,0.995435791015625,-0.06718750298023224,-0.156281977891922,-0.002799650887027383
1772794618637480700,1.005480712890625,-0.08803354203701019,-0.1647627204656601,0.017109481617808342
1772794618647524900,1.01552490234375,-0.11220864951610565,-0.1877780258655548,0.07868842035531998
1772794618657568800,1.02556884765625,-0.1441863775253296,-0.21785971522331238,0.15430085361003876
1772794618667613700,1.03561376953125,-0.17543324828147888,-0.26082074642181396,0.22604401409626007
1772794618677657900,1.045657958984375,-0.202612966299057,-0.2975985109806061,0.2838330566883087
1772794618687701800,1.05570166015625,-0.2154744267463684,-0.3345876932144165,0.31338855624198914
1772794618697746700,1.06574658203125,-0.22200259566307068,-0.3711354434490204,0.3284829258918762
1772794618707790800,1.075790771484375,-0.2237408459186554,-0.4021168053150177,0.34270527958869934
1772794618717834800,1.085834716796875,-0.20934799313545227,-0.4162520468235016,0.3616001307964325
1772794618727879700,1.095879638671875,-0.17067170143127441,-0.4108210802078247,0.380504310131073
1772794618737923800,1.105923828125,-0.1003519594669342,-0.394034743309021,0.3965318500995636
1772794618747967700,1.1159677734375,-0.016793154180049896,-0.35947516560554504,0.4031530022621155
1772794618758012700,1.1260126953125,0.07314138114452362,-0.29279908537864685,0.3954550325870514
1772794618768056800,1.136056884765625,0.1557965874671936,-0.20330701768398285,0.37449249625205994
1772794618778100700,1.146100830078125,0.21916146576404572,-0.10695070773363113,0.3310300409793854
1772794618788145700,1.156145751953125,0.2537735104560852,-0.02863939292728901,0.2632880210876465
1772794618798189800,1.16618994140625,0.264779657125473,0.029904179275035858,0.17796073853969574
1772794618808234800,1.17623486328125,0.26348403096199036,0.05779626592993736,0.07829459011554718
1772794618818279000,1.18627880859375,0.25972458720207214,0.06246744841337204,-0.031939487904310226
1772794618828322600,1.196322509765625,0.2471931129693985,0.04430815577507019,-0.14500798285007477
1772794618838368000,1.206367919921875,0.21944941580295563,0.029363930225372314,-0.24872544407844543
1772794618848412000,1.216411865234375,0.1721724569797516,0.008971042931079865,-0.32641464471817017
1772794618858455800,1.226455810546875,0.12543773651123047,-0.021952999755740166,-0.3775668442249298
1772794618868501000,1.2365009765625,0.06747270375490189,-0.07850096374750137,-0.410611093044281
1772794618878545000,1.246544921875,0.015185274183750153,-0.14562903344631195,-0.42980751395225525
1772794618888588800,1.2565888671875,-0.033896252512931824,-0.21678443253040314,-0.4289504885673523
1772794618898634000,1.266634033203125,-0.08408946543931961,-0.27725768089294434,-0.4190932810306549
1772794618908678000,1.276677978515625,-0.12751337885856628,-0.3140076994895935,-0.40240031480789185
1772794618918721800,1.2867216796875,-0.15270350873470306,-0.3036850690841675,-0.38994064927101135
1772794618928767000,1.29676708984375,-0.16347332298755646,-0.25441738963127136,-0.3746602237224579
1772794618938811000,1.306810791015625,-0.15571123361587524,-0.18054647743701935,-0.3543892204761505
1772794618948855000,1.31685498046875,-0.14989249408245087,-0.10050863027572632,-0.3251226842403412
1772794618958899700,1.326899658203125,-0.14389672875404358,-0.010727033019065857,-0.29316428303718567
1772794618968943900,1.33694384765625,-0.1398676335811615,0.07440783828496933,-0.2554478049278259
1772794618978988000,1.346988037109375,-0.14591364562511444,0.12068372964859009,-0.20803819596767426
1772794618989032700,1.35703271484375,-0.16182123124599457,0.11774839460849762,-0.16606011986732483
1772794618999076900,1.367076904296875,-0.19068646430969238,0.07319524884223938,-0.12228915095329285
1772794619009121000,1.37712109375,-0.22925063967704773,0.010614162310957909,-0.09512277692556381
1772794619019165700,1.387165771484375,-0.2762439250946045,-0.049662068486213684,-0.07746298611164093
1772794619029209900,1.3972099609375,-0.3196004629135132,-0.056956738233566284,-0.05622800439596176
1772794619039254800,1.4072548828125,-0.3534230887889862,-0.03636613488197327,-0.03503682091832161
1772794619049298700,1.417298583984375,-0.3800690770149231,-0.0007527479901909828,-0.018582481890916824
1772794619059342800,1.4273427734375,-0.4108632206916809,0.026557808741927147,-0.0023665910121053457
1772794619069388000,1.437387939453125,-0.45438939332962036,-0.000273803249001503,0.001446789363399148
1772794619079431700,1.447431640625,-0.4966292977333069,-0.013633497059345245,-0.017249450087547302
1772794619089475800,1.457475830078125,-0.5243387222290039,0.0018703611567616463,-0.0553683377802372
1772794619099521000,1.46752099609375,-0.5404322743415833,0.05023672431707382,-0.0971287190914154
1772794619109564700,1.477564697265625,-0.5489599704742432,0.09817975759506226,-0.1543446034193039
1772794619119608800,1.48760888671875,-0.5540872812271118,0.10592330992221832,-0.2073451429605484
1772794619129654000,1.497654052734375,-0.5621479153633118,0.07353448122739792,-0.2566085457801819
1772794619139697700,1.50769775390625,-0.5723516941070557,0.02667674422264099,-0.3058858811855316
1772794619149741800,1.517741943359375,-0.5953488349914551,-0.03866258263587952,-0.37080737948417664
1772794619159787000,1.527787109375,-0.5997592806816101,-0.13627628982067108,-0.4082420766353607
1772794619169831000,1.537830810546875,-0.553895115852356,-0.07508189231157303,-0.4230673611164093
1772794619179874800,1.547874755859375,-0.5250396728515625,-0.02841244265437126,-0.4269658625125885
1772794619189920000,1.557919921875,-0.5109670162200928,0.006791883148252964,-0.4184674322605133
1772794619199964000,1.5679638671875,-0.4925024211406708,0.06327619403600693,-0.3903873562812805
1772794619210007800,1.5780078125,-0.4621373116970062,0.12113098055124283,-0.3365499675273895
1772794619220053000,1.588052978515625,-0.42090505361557007,0.1446118950843811,-0.27695462107658386
1772794619230097000,1.598096923828125,-0.376647025346756,0.13853004574775696,-0.2322382777929306
1772794619240141800,1.608141845703125,-0.34259065985679626,0.11423945426940918,-0.19716911017894745
1772794619250186000,1.61818603515625,-0.317390501499176,0.09303323924541473,-0.1694653183221817
1772794619260230000,1.62822998046875,-0.30252477526664734,0.0873422771692276,-0.14638790488243103
1772794619270274800,1.63827490234375,-0.27976059913635254,0.0795983374118805,-0.10331552475690842
1772794619280318700,1.648318603515625,-0.251303106546402,0.08462249487638474,-0.04930912330746651
1772794619290363000,1.65836279296875,-0.22159501910209656,0.08451410382986069,0.012934808619320393
1772794619300407800,1.66840771484375,-0.2064264863729477,0.058685656636953354,0.08038368821144104
1772794619310451700,1.67845166015625,-0.19463880360126495,0.019878601655364037,0.16923871636390686
1772794619320495900,1.688495849609375,-0.1750597059726715,-0.0037032123655080795,0.26894912123680115
1772794619330540800,1.698540771484375,-0.13578234612941742,-0.016746044158935547,0.34754350781440735
1772794619340584700,1.708584716796875,-0.09177765250205994,-0.010075355879962444,0.3668266832828522
1772794619350628900,1.71862890625,-0.049880798906087875,-0.00020488165318965912,0.3307158052921295
1772794619360673800,1.728673828125,-0.011870875023305416,-0.0002095676027238369,0.24911166727542877
1772794619370717700,1.7387177734375,0.016635866835713387,-0.04663192480802536,0.16490569710731506
1772794619380761900,1.748761962890625,0.039203718304634094,-0.11611075699329376,0.1364699751138687
1772794619390807000,1.75880712890625,0.04135235399007797,-0.1755535900592804,0.14895115792751312
1772794619400850700,1.7688505859375,0.00411132862791419,-0.2403080314397812,0.17910976707935333
1772794619410894800,1.778894775390625,-0.06886620819568634,-0.31839272379875183,0.2215653508901596
1772794619420940000,1.78893994140625,-0.15503308176994324,-0.38358214497566223,0.26886793971061707
1772794619430983700,1.798983642578125,-0.22169654071331024,-0.40469807386398315,0.3138551414012909
1772794619441027800,1.80902783203125,-0.26085397601127625,-0.365642786026001,0.36038368940353394
1772794619451073000,1.819072998046875,-0.27442917227745056,-0.27406519651412964,0.402593731880188
1772794619461116700,1.82911669921875,-0.2628463804721832,-0.16195228695869446,0.4403126835823059
1772794619471161900,1.839161865234375,-0.2333792895078659,-0.03927510604262352,0.46786919236183167
1772794619481206000,1.8492060546875,-0.18964846432209015,0.05907340720295906,0.47604256868362427
1772794619491250000,1.85925,-0.1391722410917282,0.1198725774884224,0.4784836173057556
1772794619501294800,1.869294921875,-0.09553150832653046,0.15457116067409515,0.47636720538139343
1772794619511339000,1.879339111328125,-0.06142387166619301,0.15265315771102905,0.4615887999534607
1772794619521383000,1.8893828125,-0.028591245412826538,0.09924932569265366,0.43554922938346863
1772794619531427800,1.899427734375,-0.008405016735196114,0.028473688289523125,0.41575899720191956
1772794619541472000,1.909471923828125,-0.0021875379607081413,-0.03177357092499733,0.39685526490211487
1772794619551516000,1.919515869140625,-0.003683435497805476,-0.06358689069747925,0.3866276443004608
1772794619561560800,1.929560791015625,-0.0002482971758581698,-0.06941356509923935,0.385314404964447
1772794619571604700,1.939604736328125,0.025921521708369255,-0.049238789826631546,0.391665518283844
1772794619581649000,1.94964892578125,0.06154218316078186,-0.00854803528636694,0.4021662771701813
1772794619591693800,1.95969384765625,0.10468699038028717,0.054101765155792236,0.4180949032306671
1772794619601737700,1.96973779296875,0.14440856873989105,0.12024350464344025,0.44993168115615845
1772794619611782000,1.979781982421875,0.16408613324165344,0.1927454024553299,0.47517019510269165
1772794619621826800,1.989826904296875,0.16269563138484955,0.2535094618797302,0.47812172770500183
1772794619631870700,1.99987060546875,0.14771001040935516,0.2223036140203476,0.4481411874294281
1772794619641915000,2.009914794921875,0.12492308020591736,0.1575760692358017,0.37711432576179504
1772794619651959800,2.019959716796875,0.04119915887713432,0.10171572118997574,0.2797049582004547
1772794619662003700,2.030003662109375,-0.03165493533015251,0.014909250661730766,0.18094933032989502
1772794619672047900,2.0400478515625,-0.08778771013021469,-0.005594959482550621,0.06852558255195618
1772794619682092800,2.0500927734375,-0.11195028573274612,-0.034220267087221146,-0.047316547483205795
1772794619692136700,2.06013671875,-0.12001407146453857,-0.054975081235170364,-0.15014253556728363
1772794619702182000,2.070181884765625,-0.1175430417060852,-0.06455565243959427,-0.2387564778327942
1772794619712225800,2.080225830078125,-0.12103897333145142,-0.07362211495637894,-0.3045538663864136
1772794619722269700,2.090269775390625,-0.11654126644134521,-0.08069519698619843,-0.3466525673866272
1772794619732315000,2.10031494140625,-0.09775985777378082,-0.08844233304262161,-0.3642142415046692
1772794619742359000,2.110359130859375,-0.06973636150360107,-0.09056662023067474,-0.3506114184856415
1772794619752402700,2.120402587890625,-0.03883889317512512,-0.07751313596963882,-0.32104209065437317
1772794619762448000,2.13044775390625,0.0016055500600486994,-0.05599102005362511,-0.2667813003063202
1772794619772492000,2.140491943359375,0.05470125749707222,-0.02478489838540554,-0.20381991565227509
1772794619782535700,2.15053564453125,0.11372866481542587,0.00825017411261797,-0.12745288014411926
1772794619792580900,2.160580810546875,0.17499123513698578,0.03896307945251465,-0.05449797585606575
1772794619802625000,2.170625,0.2302245944738388,0.07001899927854538,0.024786200374364853
1772794619812669000,2.1806689453125,0.2743145823478699,0.10461293160915375,0.1071910634636879
1772794619822713900,2.1907138671875,0.30557501316070557,0.15439583361148834,0.17717984318733215
1772794619832758000,2.200758056640625,0.32747629284858704,0.19582130014896393,0.21898747980594635
1772794619842802400,2.210802490234375,0.34295469522476196,0.22050927579402924,0.23114776611328125
1772794619852847600,2.22084765625,0.36009451746940613,0.22907160222530365,0.20596519112586975
1772794619862891500,2.2308916015625,0.3742975890636444,0.23226165771484375,0.17112191021442413
1772794619872935400,2.240935302734375,0.38063910603523254,0.23025070130825043,0.13132043182849884
1772794619882980600,2.250980712890625,0.37341275811195374,0.2144317328929901,0.08480595052242279
1772794619893024500,2.2610244140625,0.35616984963417053,0.17996323108673096,0.030775204300880432
1772794619903069400,2.2710693359375,0.33992287516593933,0.1462079882621765,-0.035970840603113174
1772794619913113600,2.281113525390625,0.3388293981552124,0.11782242357730865,-0.10885303467512131
1772794619923157500,2.291157470703125,0.3440527021884918,0.10336374491453171,-0.19029080867767334
1772794619933202400,2.301202392578125,0.348186731338501,0.08824817836284637,-0.280163437128067
1772794619943246600,2.31124658203125,0.34488019347190857,0.06199957802891731,-0.3472898006439209
1772794619953290500,2.32129052734375,0.336630254983902,0.04599185287952423,-0.3939358592033386
1772794619963335400,2.33133544921875,0.33113840222358704,0.040346160531044006,-0.41033291816711426
1772794619973379600,2.341379638671875,0.3191451132297516,0.031374234706163406,-0.3972671926021576
1772794619983423500,2.351423583984375,0.2942636013031006,-0.032058633863925934,-0.3939271867275238
1772794619993468400,2.361468505859375,0.34931114315986633,-0.01169717125594616,-0.338172048330307
1772794620003512600,2.3715126953125,0.40234872698783875,0.021960394456982613,-0.2792852818965912
1772794620013556500,2.381556396484375,0.4046313464641571,0.0355350598692894,-0.23907582461833954
1772794620023601400,2.391601318359375,0.39512550830841064,0.036095649003982544,-0.20003041625022888
1772794620033645600,2.4016455078125,0.3989540636539459,0.054635778069496155,-0.16269849240779877
1772794620043689500,2.411689453125,0.41119709610939026,0.04763486608862877,-0.11922983825206757
1772794620053734700,2.421734619140625,0.41912558674812317,0.012826018035411835,-0.07860571146011353
1772794620063778300,2.4317783203125,0.42807435989379883,-0.010375496000051498,-0.03567177802324295
1772794620073822500,2.441822509765625,0.434671014547348,-0.015006201341748238,0.012011055834591389
1772794620083867600,2.45186767578125,0.43361327052116394,0.0025708721950650215,0.0496777780354023
1772794620093911300,2.461911376953125,0.43051254749298096,0.032528236508369446,0.07924047112464905
1772794620103956500,2.47195654296875,0.427640825510025,0.06303634494543076,0.10451947152614594
1772794620114000600,2.482000732421875,0.4331488013267517,0.10422506183385849,0.1198347806930542
1772794620124044500,2.49204443359375,0.4387722909450531,0.14280526340007782,0.1244068443775177
1772794620134089500,2.50208935546875,0.4280003309249878,0.15320917963981628,0.1125645637512207
1772794620144133600,2.512133544921875,0.4146619141101837,0.08627375960350037,0.0964580774307251
1772794620154177500,2.522177490234375,0.44620946049690247,0.07272891700267792,0.10685531795024872
1772794620164222500,2.532222412109375,0.4304226338863373,-0.006337818689644337,0.10812663286924362
1772794620174266600,2.5422666015625,0.3763974905014038,-0.13073725998401642,0.11718165129423141
1772794620184310500,2.552310546875,0.3058449923992157,-0.2618986964225769,0.14467176795005798
1772794620194355500,2.56235546875,0.20772375166416168,-0.38892829418182373,0.18575289845466614
1772794620204399600,2.572399658203125,0.10133913904428482,-0.5350911021232605,0.22511737048625946
1772794620214443500,2.582443603515625,0.015670841559767723,-0.6602553725242615,0.2603493630886078
1772794620224488400,2.592488525390625,-0.03872451186180115,-0.7151500582695007,0.2934630811214447
1772794620234532600,2.60253271484375,-0.059646304696798325,-0.6871383786201477,0.3243589699268341
1772794620244576500,2.612576416015625,-0.040011197328567505,-0.5556222200393677,0.34776267409324646
1772794620254621400,2.622621337890625,0.039349667727947235,-0.3423858880996704,0.3595801889896393
1772794620264665600,2.63266552734375,0.15623833239078522,-0.08103980869054794,0.3628215491771698
1772794620274710500,2.64271044921875,0.21731553971767426,0.12990838289260864,0.3477800190448761
1772794620284754400,2.65275439453125,0.22538253664970398,0.29190707206726074,0.3597176969051361
1772794620294798600,2.662798583984375,0.22925369441509247,0.41962215304374695,0.4163154661655426
1772794620304843500,2.672843505859375,0.24997682869434357,0.47832515835762024,0.4716508686542511
1772794620314887400,2.682887451171875,0.26703864336013794,0.41035810112953186,0.49046212434768677
1772794620324931600,2.692931640625,0.26837849617004395,0.26254358887672424,0.4830811619758606
1772794620334976500,2.7029765625,0.25552767515182495,0.10998973995447159,0.4674960672855377
1772794620345020400,2.7130205078125,0.2405438870191574,0.001741886604577303,0.4527740776538849
1772794620355064600,2.723064697265625,0.22215689718723297,-0.06356122344732285,0.4328722655773163
1772794620365109500,2.733109619140625,0.20185048878192902,-0.10777497291564941,0.4187006950378418
1772794620375153700,2.743153564453125,0.18792401254177094,-0.13675469160079956,0.39519110321998596
1772794620385197300,2.753197265625,0.17583401501178741,-0.1380852609872818,0.37162724137306213
1772794620395242500,2.763242431640625,0.17118334770202637,-0.11417992413043976,0.3456805944442749
1772794620405286700,2.77328662109375,0.18453411757946014,-0.07648240029811859,0.3180176615715027
1772794620415330300,2.783330322265625,0.2108890265226364,-0.02532040886580944,0.2923754155635834
1772794620425375500,2.79337548828125,0.2317429482936859,0.019497981294989586,0.269074022769928
1772794620435419600,2.803419677734375,0.2491765320301056,0.05857960134744644,0.23267951607704163
1772794620445464600,2.813464599609375,0.2557995319366455,0.09058137238025665,0.1775263547897339
1772794620455508500,2.823508544921875,0.25519421696662903,0.10079672932624817,0.1099555715918541
1772794620465552600,2.833552734375,0.25620678067207336,0.10711497068405151,0.040990982204675674
1772794620475597600,2.84359765625,0.26338905096054077,0.12473950535058975,-0.024049535393714905
1772794620485641500,2.853641357421875,0.2705548107624054,0.15408901870250702,-0.075349360704422
1772794620495685600,2.863685546875,0.2563244700431824,0.16705568134784698,-0.11713995039463043
1772794620505730600,2.87373046875,0.2213829606771469,0.14736290276050568,-0.1561402976512909
1772794620515774500,2.8837744140625,0.1726417988538742,0.11777171492576599,-0.1923198699951172
1772794620525818600,2.893818603515625,0.11944176256656647,0.08141977339982986,-0.2233821451663971
1772794620535863300,2.90386328125,0.06632182002067566,0.060321684926748276,-0.24908430874347687
1772794620545907500,2.913907470703125,0.022482827305793762,0.04920607805252075,-0.2655928432941437
1772794620555951600,2.92395166015625,-0.00635414756834507,0.045552488416433334,-0.266126811504364
1772794620565996300,2.933996337890625,-0.01903333142399788,0.027437876909971237,-0.2508902847766876
1772794620576040400,2.94404052734375,-0.0274590402841568,0.02583012357354164,-0.21540075540542603
1772794620586084600,2.954084716796875,-0.032306309789419174,0.030011290684342384,-0.17395316064357758
1772794620596129500,2.964129638671875,-0.032008569687604904,0.05783279985189438,-0.1346246600151062
1772794620606173400,2.97417333984375,-0.024680033326148987,0.10382958501577377,-0.10335703194141388
1772794620616217600,2.984217529296875,-0.024138612672686577,0.14952409267425537,-0.0816541314125061
1772794620626262500,2.994262451171875,-0.02777639403939247,0.2000848948955536,-0.08949306607246399
1772794620636306400,3.004306396484375,-0.01778421550989151,0.24490323662757874,-0.1165718212723732
1772794620646351600,3.0143515625,0.005248733796179295,0.28511232137680054,-0.14751675724983215
1772794620656395500,3.0243955078125,0.021896153688430786,0.31492239236831665,-0.17096827924251556
1772794620666439400,3.034439453125,0.00943331141024828,0.34175488352775574,-0.1919272392988205
1772794620676484600,3.044484619140625,-0.018710441887378693,0.35035449266433716,-0.20376606285572052
1772794620686528500,3.054528564453125,-0.051674194633960724,0.3429725170135498,-0.2117174118757248
1772794620696572400,3.064572509765625,-0.0829615443944931,0.29710620641708374,-0.21650205552577972
1772794620706617600,3.07461767578125,-0.11398223042488098,0.23420213162899017,-0.21500222384929657
1772794620716661500,3.08466162109375,-0.14853620529174805,0.1705387383699417,-0.21071533858776093
1772794620726705700,3.09470556640625,-0.18723401427268982,0.10442735254764557,-0.215356707572937
1772794620736750600,3.10475048828125,-0.22391799092292786,0.039610277861356735,-0.22608418762683868
1772794620746794500,3.11479443359375,-0.24521838128566742,0.0013475827872753143,-0.23776531219482422
1772794620756838700,3.124838623046875,-0.26759716868400574,-0.0484284982085228,-0.2565997242927551
1772794620766883600,3.134883544921875,-0.2926187515258789,-0.08595947176218033,-0.2606438994407654
1772794620776927500,3.144927490234375,-0.3156343400478363,-0.129682719707489,-0.26467806100845337
1772794620786972400,3.154972412109375,-0.34625595808029175,-0.14759977161884308,-0.2706945538520813
1772794620797016600,3.1650166015625,-0.36595481634140015,-0.13798362016677856,-0.27274784445762634
1772794620807060500,3.175060546875,-0.37729352712631226,-0.11394119262695312,-0.2675298750400543
1772794620817105400,3.18510546875,-0.3764258623123169,-0.10073138028383255,-0.24521897733211517
1772794620827149600,3.195149658203125,-0.3810369670391083,-0.12793375551700592,-0.21106839179992676
1772794620837193500,3.205193359375,-0.3864554166793823,-0.16424062848091125,-0.17176972329616547
1772794620847238700,3.21523876953125,-0.37781381607055664,-0.18851466476917267,-0.13644015789031982
1772794620857282300,3.2252822265625,-0.36328333616256714,-0.1857878565788269,-0.11099525541067123
1772794620867326500,3.235326416015625,-0.3384326696395874,-0.16595891118049622,-0.10557448118925095
1772794620877371600,3.24537158203125,-0.3141164183616638,-0.13350722193717957,-0.11367128789424896
1772794620887415300,3.255415283203125,-0.29731205105781555,-0.10923326760530472,-0.13109375536441803
1772794620897459500,3.26545947265625,-0.2893255054950714,-0.0936838686466217,-0.149642676115036
1772794620907504600,3.275504638671875,-0.29054298996925354,-0.07158814370632172,-0.17129680514335632
1772794620917548500,3.285548583984375,-0.2883259057998657,-0.060982100665569305,-0.19661948084831238
1772794620927593500,3.295593505859375,-0.27273041009902954,-0.08015111088752747,-0.2099176049232483
1772794620937637600,3.3056376953125,-0.2576662302017212,-0.10360663384199142,-0.19348910450935364
1772794620947681500,3.315681640625,-0.24746383726596832,-0.11455617100000381,-0.15273241698741913
1772794620957726500,3.3257265625,-0.24139928817749023,-0.1114240288734436,-0.10065563023090363
1772794620967770600,3.3357705078125,-0.24141940474510193,-0.14266759157180786,-0.05879800766706467
1772794620977814500,3.345814453125,-0.21294701099395752,-0.21453857421875,-0.015567713417112827
1772794620987859500,3.355859375,-0.1648263782262802,-0.2847859859466553,0.02358720265328884
1772794620997903600,3.365903564453125,-0.12030577659606934,-0.35488250851631165,0.03195112571120262
1772794621007947500,3.375947509765625,-0.09405960142612457,-0.44366878271102905,0.04567195847630501
1772794621017992400,3.385992431640625,-0.09133998304605484,-0.5064093470573425,0.06634873896837234
1772794621028036400,3.396036376953125,-0.0926385447382927,-0.5477089881896973,0.09619516879320145
1772794621038080500,3.40608056640625,-0.13244934380054474,-0.5783113837242126,0.12002353370189667
1772794621048125400,3.41612548828125,-0.23075167834758759,-0.5840484499931335,0.1281590759754181
1772794621058169300,3.42616943359375,-0.3509089946746826,-0.5564485192298889,0.12906214594841003
1772794621068213500,3.436213623046875,-0.4551711082458496,-0.49177286028862,0.12945574522018433
1772794621078258400,3.446258544921875,-0.5179889798164368,-0.4002738296985626,0.1306224763393402
1772794621088302300,3.45630224609375,-0.5922786593437195,-0.26560965180397034,0.11763972789049149
1772794621098347500,3.466347412109375,-0.6397524476051331,-0.14802470803260803,0.09333118796348572
1772794621108391400,3.476391357421875,-0.6351122856140137,-0.02121083252131939,0.07699938118457794
1772794621118435300,3.486435302734375,-0.5699114203453064,0.053242363035678864,0.10202430188655853
1772794621128480500,3.49648046875,-0.4410895109176636,0.14483380317687988,0.15534824132919312
1772794621138524400,3.5065244140625,-0.2693696916103363,0.24925154447555542,0.20529396831989288
1772794621148568300,3.516568359375,-0.07912412285804749,0.3421340882778168,0.26514506340026855
1772794621158613500,3.526613525390625,0.04343721643090248,0.38993915915489197,0.3276885747909546
1772794621168657700,3.53665771484375,0.08383212238550186,0.3679279088973999,0.3782307803630829
1772794621178701300,3.546701416015625,0.09854263067245483,0.31122785806655884,0.429958701133728
1772794621188746500,3.55674658203125,0.11723466217517853,0.24556435644626617,0.4790264964103699
1772794621198790700,3.566790771484375,0.12904097139835358,0.1837015151977539,0.5199505090713501
1772794621208834300,3.576834228515625,0.12202873826026917,0.11664892733097076,0.5467872023582458
1772794621218879500,3.58687939453125,0.09086097031831741,0.061645589768886566,0.5471706986427307
1772794621228923600,3.596923583984375,0.05180087313055992,0.012227019295096397,0.5227962732315063
1772794621238968300,3.60696826171875,0.017167529091238976,-0.00833950936794281,0.4893083870410919
1772794621249012500,3.617012451171875,-0.006662489380687475,0.005172306671738625,0.4507250487804413
1772794621259056600,3.627056640625,-0.027622630819678307,0.06075141578912735,0.4222339987754822
1772794621269101300,3.637101318359375,-0.05647321045398712,0.13040031492710114,0.4048602879047394
1772794621279145500,3.6471455078125,-0.08762314170598984,0.17734386026859283,0.3760813772678375
1772794621289189600,3.657189697265625,-0.11627356708049774,0.16665716469287872,0.33966678380966187
1772794621299234300,3.667234375,-0.1310807317495346,0.14958924055099487,0.2965629994869232
1772794621309278500,3.677278564453125,-0.11795130372047424,0.17064620554447174,0.25621864199638367
1772794621319322600,3.687322509765625,-0.09648063778877258,0.22929967939853668,0.2136131227016449
1772794621329367300,3.6973671875,-0.0769626572728157,0.29522132873535156,0.16044484078884125
1772794621339411500,3.707411376953125,-0.06780537217855453,0.34623655676841736,0.09657397121191025
1772794621349455400,3.717455322265625,-0.05958499759435654,0.37079918384552,0.01491346675902605
1772794621359500300,3.727500244140625,-0.053260792046785355,0.3619191348552704,-0.07421933859586716
1772794621369544400,3.73754443359375,-0.05325745418667793,0.3063880503177643,-0.17389456927776337
1772794621379589600,3.747589599609375,-0.051819879561662674,0.23000936210155487,-0.25738757848739624
1772794621389633500,3.757633544921875,-0.045971326529979706,0.17287617921829224,-0.30641499161720276
1772794621399677400,3.767677490234375,-0.03400867059826851,0.15108993649482727,-0.3168915808200836
1772794621409722600,3.77772265625,-0.020320938900113106,0.1573687642812729,-0.2984967529773712
1772794621419766500,3.7877666015625,0.0034557629842311144,0.1615091860294342,-0.2631123960018158
1772794621429810400,3.797810546875,0.01379621122032404,0.14733536541461945,-0.23325921595096588
1772794621439855600,3.807855712890625,0.01323002390563488,0.09209047257900238,-0.20755118131637573
1772794621449899500,3.8178994140625,0.017201783135533333,0.02007758617401123,-0.1778636872768402
1772794621459943400,3.827943359375,0.04033906012773514,-0.00447622686624527,-0.1354919970035553
1772794621469988600,3.837988525390625,0.07173310965299606,0.025247421115636826,-0.09753696620464325
1772794621480032500,3.848032470703125,0.10319063812494278,0.07566665858030319,-0.0839681625366211
1772794621490076400,3.858076416015625,0.11748774349689484,0.0950436070561409,-0.1078258603811264
1772794621500121300,3.868121337890625,0.11291749030351639,0.06501699984073639,-0.16196712851524353
1772794621510165500,3.87816552734375,0.08823322504758835,0.015204058960080147,-0.2251981943845749
1772794621520210400,3.88821044921875,0.05865082889795303,-0.03266812860965729,-0.2798942029476166
1772794621530254300,3.89825439453125,-0.014492291957139969,-0.12140828371047974,-0.32930129766464233
1772794621540298500,3.908298583984375,-0.04385124519467354,-0.13886024057865143,-0.322751522064209
1772794621550343400,3.918343505859375,0.022863643243908882,-0.12957043945789337,-0.2984865605831146
1772794621560387300,3.92838720703125,0.01629309169948101,-0.21133321523666382,-0.307576984167099
1772794621570431500,3.938431396484375,-0.006802446208894253,-0.2584135830402374,-0.3089299201965332
1772794621580476400,3.948476318359375,-0.014364758506417274,-0.25962746143341064,-0.29412034153938293
1772794621590520300,3.958520263671875,-0.007921773009002209,-0.28491896390914917,-0.2908529043197632
1772794621600564500,3.968564453125,0.019797472283244133,-0.3044862747192383,-0.2938729524612427
1772794621610609400,3.978609375,0.05678071081638336,-0.2846187651157379,-0.2981353998184204
1772794621620651500,3.988651611328125,0.09408733993768692,-0.23578280210494995,-0.310825377702713
1772794621630696400,3.998696533203125,0.13007554411888123,-0.1943858116865158,-0.33659064769744873
1772794621640740400,4.008740234375,0.16572275757789612,-0.16116395592689514,-0.3598480224609375
1772794621650785500,4.01878564453125,0.204662024974823,-0.12946918606758118,-0.36833834648132324
1772794621660829400,4.028829345703125,0.2486177682876587,-0.0787077322602272,-0.3562028706073761
1772794621670873300,4.038873291015625,0.2919011414051056,-0.00712250079959631,-0.3253166079521179
1772794621680918500,4.04891845703125,0.3282080292701721,0.062432873994112015,-0.28663820028305054
1772794621690962400,4.05896240234375,0.3583076596260071,0.11162694543600082,-0.24557586014270782
1772794621701006300,4.06900634765625,0.3749276399612427,0.13015800714492798,-0.21408025920391083
1772794621711051500,4.079051513671875,0.39145010709762573,0.11738427728414536,-0.1929553598165512
1772794621721095700,4.089095703125,0.4056876301765442,0.09123922884464264,-0.18141961097717285
1772794621731139300,4.099139404296875,0.41504570841789246,0.07119494676589966,-0.1715259701013565
1772794621741184500,4.1091845703125,0.42445653676986694,0.06523451954126358,-0.15821869671344757
1772794621751228700,4.119228759765625,0.42884087562561035,0.0505615659058094,-0.14128711819648743
1772794621761273300,4.1292734375,0.42200297117233276,0.032770320773124695,-0.1179109513759613
1772794621771317500,4.1393173828125,0.4081045389175415,0.018111001700162888,-0.09815968573093414
1772794621781361700,4.149361572265625,0.38842645287513733,0.022165929898619652,-0.07968107610940933
1772794621791406300,4.15940625,0.373301237821579,0.04523199424147606,-0.0724874958395958
1772794621801450500,4.169450439453125,0.3588234782218933,0.08344888687133789,-0.07097934931516647
1772794621811494700,4.17949462890625,0.3512515425682068,0.14077140390872955,-0.0701291561126709
1772794621821539300,4.189539306640625,0.3529628813266754,0.1886475831270218,-0.05919741094112396
1772794621831583500,4.19958349609375,0.3604525029659271,0.19334988296031952,-0.03365359827876091
1772794621841627400,4.20962744140625,0.38478928804397583,0.18046630918979645,0.0032136079389601946
1772794621851672600,4.219672607421875,0.40346550941467285,0.17294920980930328,0.05434661731123924
1772794621861716500,4.229716552734375,0.4168718755245209,0.1717153638601303,0.09781952202320099
1772794621871760600,4.2397607421875,0.41062700748443604,0.17259976267814636,0.12013500928878784
1772794621881805600,4.2498056640625,0.39654740691185,0.15478773415088654,0.12365543842315674
1772794621891849500,4.259849365234375,0.37363943457603455,0.13674135506153107,0.11016200482845306
1772794621901894700,4.269894775390625,0.34954074025154114,0.11522088199853897,0.09772077947854996
1772794621911938600,4.2799384765625,0.33217689394950867,0.12694156169891357,0.10238440334796906
1772794621921982500,4.289982421875,0.3047657907009125,0.1422155797481537,0.131417915225029
1772794621932027600,4.300027587890625,0.26319363713264465,0.11597631126642227,0.1677417755126953
1772794621942071600,4.310071533203125,0.2155129462480545,0.08767196536064148,0.20176498591899872
1772794621952115500,4.320115478515625,0.1825827658176422,0.06655198335647583,0.2241142839193344
1772794621962160600,4.33016064453125,0.1603778600692749,0.07338032871484756,0.22901849448680878
1772794621972205600,4.34020556640625,0.15549519658088684,0.0913587436079979,0.2198394387960434
1772794621982249500,4.35024951171875,0.1649121344089508,0.1063251718878746,0.21102090179920197
1772794621992293600,4.360293701171875,0.17546029388904572,0.113379567861557,0.20776499807834625
1772794622002338600,4.370338623046875,0.19527527689933777,0.13659808039665222,0.2158181220293045
1772794622012382500,4.380382568359375,0.21200060844421387,0.14874863624572754,0.23107784986495972
1772794622022426600,4.390426513671875,0.2288546860218048,0.1317475438117981,0.2490672469139099
1772794622032471600,4.400471435546875,0.2366466373205185,0.0943860113620758,0.25397419929504395
1772794622042515500,4.410515380859375,0.23678699135780334,0.0376066230237484,0.2526479661464691
1772794622052559600,4.4205595703125,0.2263573855161667,-0.02318621054291725,0.2401130050420761
1772794622062604500,4.4306044921875,0.21063114702701569,-0.08296885341405869,0.23686476051807404
1772794622072648400,4.4406484375,0.19169284403324127,-0.1147843524813652,0.2366965115070343
1772794622082693600,4.450693603515625,0.15328660607337952,-0.14901317656040192,0.23017655313014984
1772794622092737800,4.46073779296875,0.10236351191997528,-0.1966567486524582,0.21319425106048584
1772794622102781400,4.470781494140625,0.04706510156393051,-0.24551111459732056,0.1901235580444336
1772794622112826600,4.48082666015625,-0.0038397107273340225,-0.2680593430995941,0.1716407686471939
1772794622122870800,4.490870849609375,-0.03697263076901436,-0.2526092827320099,0.16429656744003296
1772794622132914400,4.50091455078125,-0.04855773597955704,-0.20464633405208588,0.1716277301311493
1772794622142959600,4.510959716796875,-0.03359023854136467,-0.1263110488653183,0.2023363709449768
1772794622153003800,4.521003662109375,0.03960293158888817,0.008289583027362823,0.23753410577774048
1772794622163047700,4.531047607421875,0.09832216799259186,0.10133083909749985,0.24790392816066742
1772794622173092600,4.541092529296875,0.10460758209228516,0.19725769758224487,0.22354423999786377
1772794622183136800,4.55113671875,0.10258171707391739,0.3241810202598572,0.19979257881641388
1772794622193181400,4.561181396484375,0.1273418664932251,0.38880103826522827,0.16449126601219177
1772794622203225600,4.5712255859375,0.14443323016166687,0.35441216826438904,0.11269091814756393
1772794622213269800,4.581269775390625,0.14704450964927673,0.3052905797958374,0.07337397336959839
1772794622223314400,4.591314453125,0.13747070729732513,0.2815796434879303,0.05105295404791832
1772794622233358600,4.601358642578125,0.11649502068758011,0.23900343477725983,0.025424843654036522
1772794622243402500,4.611402587890625,0.09109831601381302,0.1831289827823639,-0.008378925733268261
1772794622253447400,4.621447509765625,0.06017818674445152,0.11929775774478912,-0.05507579818367958
1772794622263491600,4.63149169921875,0.019395601004362106,0.049022261053323746,-0.10470007359981537
1772794622273535500,4.641535400390625,-0.028599321842193604,-0.016729537397623062,-0.14938664436340332
1772794622283580400,4.651580322265625,-0.08195948600769043,-0.0919068455696106,-0.18117626011371613
1772794622293624600,4.66162451171875,-0.14090244472026825,-0.16793540120124817,-0.20226813852787018
1772794622303669800,4.671669677734375,-0.19352410733699799,-0.2243933528661728,-0.21685932576656342
1772794622313713700,4.681713623046875,-0.2383905053138733,-0.2667097747325897,-0.2148064821958542
1772794622323757600,4.691757568359375,-0.27377939224243164,-0.3031383454799652,-0.20414851605892181
1772794622333802800,4.701802734375,-0.30838945508003235,-0.3218420147895813,-0.1939445286989212
1772794622343846700,4.7118466796875,-0.3311091363430023,-0.2922830581665039,-0.18426527082920074
1772794622353890600,4.721890625,-0.34699133038520813,-0.20920780301094055,-0.18187333643436432
1772794622363935700,4.731935791015625,-0.3493975102901459,-0.0947778970003128,-0.19212943315505981
1772794622373979600,4.741979736328125,-0.353992760181427,0.009295403957366943,-0.21932314336299896
1772794622384023600,4.7520234375,-0.35357198119163513,0.10854848474264145,-0.24515686929225922
1772794622394068500,4.762068359375,-0.35415560007095337,0.20273853838443756,-0.2702285349369049
1772794622404112600,4.772112548828125,-0.361355185508728,0.26933592557907104,-0.2946438789367676
1772794622414157600,4.782157470703125,-0.37385836243629456,0.29779863357543945,-0.3178881108760834
1772794622424201500,4.792201416015625,-0.39313140511512756,0.29972755908966064,-0.3322625458240509
1772794622434245600,4.80224560546875,-0.4232931435108185,0.24322599172592163,-0.33973297476768494
1772794622444290600,4.81229052734375,-0.45226675271987915,0.1588226854801178,-0.32529759407043457
1772794622454334500,4.82233447265625,-0.47570642828941345,0.046020448207855225,-0.2879989445209503
1772794622464378600,4.832378662109375,-0.49912014603614807,-0.05869637429714203,-0.24013446271419525
1772794622474423600,4.842423583984375,-0.5159042477607727,-0.13162778317928314,-0.19838252663612366
1772794622484467500,4.852467529296875,-0.5294557213783264,-0.1870172768831253,-0.16753645241260529
1772794622494511600,4.86251171875,-0.5492530465126038,-0.20421096682548523,-0.15334151685237885
1772794622504556500,4.872556640625,-0.5649518370628357,-0.200771763920784,-0.1630370318889618
1772794622514600400,4.882600341796875,-0.5760900974273682,-0.2022802233695984,-0.1813056915998459
1772794622524644600,4.89264453125,-0.589773952960968,-0.1938164383172989,-0.19799280166625977
1772794622534689800,4.902689697265625,-0.6000604033470154,-0.20030143857002258,-0.19981685280799866
1772794622544733400,4.9127333984375,-0.5967850089073181,-0.22671014070510864,-0.17983436584472656
1772794622554778600,4.922778564453125,-0.5927310585975647,-0.2567506730556488,-0.14979305863380432
1772794622564822800,4.93282275390625,-0.577842116355896,-0.2967817187309265,-0.11090344935655594
1772794622574866400,4.942866455078125,-0.5737217664718628,-0.3221815526485443,-0.08409532159566879
1772794622584911600,4.95291162109375,-0.5543395280838013,-0.2654319703578949,-0.0687485858798027
1772794622594955800,4.962955810546875,-0.5183886885643005,-0.16634279489517212,-0.06443388760089874
1772794622604999400,4.97299951171875,-0.48237770795822144,-0.07575029879808426,-0.07633901387453079
1772794622615044600,4.983044677734375,-0.4512070119380951,-0.016230352222919464,-0.08942755311727524
1772794622625088800,4.9930888671875,-0.43169084191322327,-0.008678426966071129,-0.091284841299057
1772794622635132700,5.003132568359375,-0.42625394463539124,-0.03787418454885483,-0.08673984557390213
1772794622645177600,5.013177490234375,-0.42202112078666687,-0.07360529154539108,-0.06717813014984131
1772794622655221800,5.0232216796875,-0.42757850885391235,-0.10994395613670349,-0.049608372151851654
1772794622665266400,5.033266357421875,-0.43774592876434326,-0.15929366648197174,-0.03551439195871353
1772794622675310600,5.043310546875,-0.4590800404548645,-0.22201915085315704,-0.03149507939815521
1772794622685354800,5.053354736328125,-0.48919397592544556,-0.28804582357406616,-0.03875964879989624
1772794622695399400,5.0633994140625,-0.5247982740402222,-0.35544443130493164,-0.051304105669260025
1772794622705443600,5.073443603515625,-0.5632895231246948,-0.41656583547592163,-0.06988684087991714
1772794622715487500,5.083487548828125,-0.592866837978363,-0.4604234993457794,-0.07887639105319977
1772794622725532400,5.093532470703125,-0.610510528087616,-0.46857917308807373,-0.07393170148134232
1772794622735576600,5.10357666015625,-0.6096101403236389,-0.43016281723976135,-0.06229555234313011
1772794622745620500,5.113620361328125,-0.5978437662124634,-0.35683825612068176,-0.04505984112620354
1772794622755665700,5.123665771484375,-0.5644389986991882,-0.2782033681869507,-0.020931854844093323
1772794622765709600,5.13370947265625,-0.5314141511917114,-0.20895878970623016,-0.017386123538017273
1772794622775754800,5.143754638671875,-0.506613552570343,-0.17052586376667023,-0.02616128697991371
1772794622785798700,5.153798583984375,-0.4980224370956421,-0.16917191445827484,-0.04313148185610771
1772794622795842600,5.163842529296875,-0.48478755354881287,-0.1885910928249359,-0.05923141539096832
1772794622805887700,5.1738876953125,-0.47865402698516846,-0.19136904180049896,-0.06304985284805298
1772794622815931600,5.183931640625,-0.4631863832473755,-0.19309119880199432,-0.04987610504031181
1772794622825975600,5.1939755859375,-0.4473174214363098,-0.19040647149085999,-0.0308371689170599
1772794622836020700,5.204020751953125,-0.43550172448158264,-0.2294829785823822,-0.007377708796411753
1772794622846064600,5.214064697265625,-0.42286449670791626,-0.28144869208335876,0.018309811130166054
1772794622856108500,5.224108642578125,-0.40786853432655334,-0.32906150817871094,0.04570788890123367
1772794622866153700,5.23415380859375,-0.4060101807117462,-0.3576925992965698,0.06343362480401993
1772794622876197600,5.24419775390625,-0.4235686659812927,-0.3884774148464203,0.061259686946868896
1772794622886242600,5.25424267578125,-0.473158597946167,-0.483569860458374,0.024846818298101425
1772794622896286700,5.26428662109375,-0.5654720067977905,-0.5916385650634766,-0.030213238671422005
1772794622906330600,5.27433056640625,-0.6706410646438599,-0.6677082777023315,-0.068242646753788
1772794622916375600,5.28437548828125,-0.7600448727607727,-0.7203776836395264,-0.07873455435037613
1772794622926419700,5.294419677734375,-0.8298130035400391,-0.7365686297416687,-0.04223593696951866
1772794622936463600,5.304463623046875,-0.8540211915969849,-0.6808847188949585,0.03615026921033859
1772794622946508500,5.314508544921875,-0.838912308216095,-0.5734538435935974,0.13292048871517181
1772794622956552700,5.324552734375,-0.7733852863311768,-0.41054531931877136,0.2420852929353714
1772794622966596600,5.3345966796875,-0.6718013882637024,-0.19139301776885986,0.33855777978897095
1772794622976641500,5.3446416015625,-0.5727055072784424,-0.07121499627828598,0.39557716250419617
1772794622986685700,5.354685791015625,-0.4792703092098236,0.11376870423555374,0.41964441537857056
1772794622996730600,5.364730712890625,-0.4062376618385315,0.21383896470069885,0.41762775182724
1772794623006774800,5.37477490234375,-0.35985761880874634,0.19062018394470215,0.3676149249076843
1772794623016818400,5.384818359375,-0.3403351604938507,0.11997275054454803,0.2984011173248291
1772794623026863600,5.394863525390625,-0.3460657298564911,0.044052157551050186,0.23179224133491516
1772794623036907800,5.40490771484375,-0.37318649888038635,-0.030124438926577568,0.17906099557876587
1772794623046951400,5.414951416015625,-0.42348000407218933,-0.12178404629230499,0.13512761890888214
1772794623056996600,5.42499658203125,-0.4725240170955658,-0.20032723248004913,0.11755439639091492
1772794623067040800,5.435040771484375,-0.5094082951545715,-0.24518471956253052,0.10368358343839645
1772794623077084400,5.44508447265625,-0.5298247337341309,-0.25513002276420593,0.09180346876382828
1772794623087129600,5.455129638671875,-0.5317166447639465,-0.23528440296649933,0.07144679874181747
1772794623097173800,5.465173828125,-0.5169601440429688,-0.19727715849876404,0.04098482429981232
1772794623107218700,5.47521875,-0.48980867862701416,-0.15024147927761078,0.013625637628138065
1772794623117262600,5.4852626953125,-0.4478560984134674,-0.10598905384540558,-0.009365709498524666
1772794623127306800,5.495306640625,-0.4016164541244507,-0.0785856619477272,-0.02546451799571514
1772794623137351700,5.5053515625,-0.34216004610061646,-0.06203880533576012,-0.03608211502432823
1772794623147395600,5.5153955078125,-0.27573493123054504,-0.04130742698907852,-0.048194970935583115
1772794623157439700,5.525439697265625,-0.2039945274591446,-0.014010023325681686,-0.05798552930355072
1772794623167484400,5.535484375,-0.13411371409893036,0.026508376002311707,-0.07265715301036835
1772794623177528600,5.545528564453125,-0.07752950489521027,0.06499669700860977,-0.08817651122808456
1772794623187572700,5.55557275390625,-0.029463712126016617,0.08980963379144669,-0.10204492509365082
1772794623197617400,5.565617431640625,0.014245584607124329,0.10567872226238251,-0.10507894307374954
1772794623207661600,5.57566162109375,0.05831583961844444,0.12179376184940338,-0.1029508113861084
1772794623217706800,5.585706787109375,0.09539274126291275,0.14299999177455902,-0.112824447453022
1772794623227750700,5.595750732421875,0.12080249935388565,0.16049429774284363,-0.1388230174779892
1772794623237794600,5.605794677734375,0.13459263741970062,0.15988171100616455,-0.17230583727359772
1772794623247839700,5.61583984375,0.1323971301317215,0.14022783935070038,-0.21457898616790771
1772794623257883600,5.625883544921875,0.12862585484981537,0.13079924881458282,-0.2615838348865509
1772794623267927600,5.635927490234375,0.12251576036214828,0.11752818524837494,-0.29348212480545044
1772794623277972700,5.64597265625,0.12006938457489014,0.09653981775045395,-0.3110131621360779
1772794623288016600,5.6560166015625,0.1227240189909935,0.08317660540342331,-0.30599445104599
1772794623298061600,5.6660615234375,0.13693952560424805,0.07150641828775406,-0.2810209393501282
1772794623308105700,5.676105712890625,0.15316005051136017,0.06288550049066544,-0.24087485671043396
1772794623318149600,5.686149658203125,0.16986943781375885,0.06224080175161362,-0.1953388750553131
1772794623328194600,5.696194580078125,0.18599994480609894,0.07091791182756424,-0.15012478828430176
1772794623338238700,5.70623876953125,0.19700682163238525,0.08499862998723984,-0.1211715042591095
1772794623348282600,5.71628271484375,0.21839706599712372,0.09466350823640823,-0.10893294215202332
1772794623358327600,5.72632763671875,0.24910399317741394,0.12429399788379669,-0.10191112756729126
1772794623368371700,5.736371826171875,0.28571048378944397,0.18510408699512482,-0.08804059028625488
1772794623378415600,5.74641552734375,0.3274136185646057,0.24315029382705688,-0.08043878525495529
1772794623388460500,5.75646044921875,0.3715643286705017,0.2917577624320984,-0.0781114473938942
1772794623398504700,5.766504638671875,0.40823259949684143,0.3216182589530945,-0.09208565205335617
1772794623408549600,5.776549560546875,0.4310886561870575,0.3405463993549347,-0.11414647847414017
1772794623418593500,5.786593505859375,0.44966697692871094,0.34068232774734497,-0.14200754463672638
1772794623428637700,5.7966376953125,0.4642738997936249,0.3329136073589325,-0.16085952520370483
1772794623438682600,5.8066826171875,0.47385838627815247,0.3228529989719391,-0.16930387914180756
1772794623448726500,5.8167265625,0.4796161353588104,0.3182918131351471,-0.16982026398181915
1772794623458770700,5.826770751953125,0.4837064743041992,0.2934833765029907,-0.1600789576768875
1772794623468815600,5.836815673828125,0.4916496276855469,0.24595209956169128,-0.14302220940589905
1772794623478859800,5.84685986328125,0.49439847469329834,0.1833442747592926,-0.1241898164153099
1772794623488903400,5.8569033203125,0.5030636191368103,0.13206537067890167,-0.11073552072048187
1772794623498948600,5.866948486328125,0.5187570452690125,0.10432231426239014,-0.10345406085252762
1772794623508992800,5.87699267578125,0.5373523235321045,0.09701433777809143,-0.10153818875551224
1772794623519037700,5.88703759765625,0.5581045746803284,0.09720608592033386,-0.10882514715194702
1772794623529081600,5.89708154296875,0.5838592052459717,0.09390909224748611,-0.11014554649591446
1772794623539125800,5.907125732421875,0.6078565120697021,0.10236255079507828,-0.10428181290626526
1772794623549170700,5.917170654296875,0.6261841058731079,0.11689062416553497,-0.08910498768091202
1772794623559214600,5.927214599609375,0.6267076134681702,0.11877389997243881,-0.07395525276660919
1772794623569258800,5.9372587890625,0.6277062892913818,0.10515423119068146,-0.045392055064439774
1772794623579303700,5.9473037109375,0.6376432180404663,0.08376538008451462,-0.011137450113892555
1772794623589347600,5.95734765625,0.6504898071289062,0.06508250534534454,0.03663220256567001
1772794623599391700,5.967391845703125,0.663350522518158,0.06904454529285431,0.08210401982069016
1772794623609436700,5.977436767578125,0.6805968880653381,0.08989842236042023,0.11548727750778198
1772794623619480600,5.98748046875,0.6985487341880798,0.11713414639234543,0.13477058708667755
1772794623629525800,5.99752587890625,0.7062636017799377,0.13542047142982483,0.13920049369335175
1772794623639569400,6.0075693359375,0.7044427990913391,0.14220643043518066,0.126050665974617
1772794623649613600,6.017613525390625,0.702663004398346,0.13811714947223663,0.1171189472079277
1772794623659658800,6.02765869140625,0.7040281295776367,0.137490376830101,0.12132924795150757
1772794623669702700,6.03770263671875,0.7109704613685608,0.14752623438835144,0.14335359632968903
1772794623679746600,6.04774658203125,0.7282813191413879,0.17547038197517395,0.17230896651744843
1772794623689791700,6.057791748046875,0.7491154670715332,0.1894700825214386,0.19124937057495117
1772794623699835600,6.067835693359375,0.765203595161438,0.19448330998420715,0.19980467855930328
1772794623709880600,6.077880615234375,0.785446286201477,0.18743686378002167,0.21891792118549347
1772794623719924700,6.0879248046875,0.8079209923744202,0.16794560849666595,0.24369341135025024
1772794623729968600,6.09796875,0.8252512812614441,0.15157702565193176,0.2616548240184784
1772794623740013600,6.108013671875,0.8345718383789062,0.133442223072052,0.2596108317375183
1772794623750057700,6.1180576171875,0.853783369064331,0.06013365834951401,0.23850953578948975
1772794623760101600,6.1281015625,0.8676010370254517,-0.021022820845246315,0.22292432188987732
1772794623770146600,6.138146484375,0.8760675191879272,-0.0755302682518959,0.2229786366224289
1772794623780190700,6.148190673828125,0.9009580612182617,-0.09453804790973663,0.2388491928577423
1772794623790234600,6.158234619140625,0.9384777545928955,-0.07350333780050278,0.26777830719947815
1772794623800279600,6.168279541015625,0.9870726466178894,-0.010357926599681377,0.3079976737499237
1772794623810323700,6.17832373046875,1.0308939218521118,0.07534525543451309,0.3297237157821655
1772794623820368600,6.18836865234375,1.0726077556610107,0.17486199736595154,0.3306313455104828
1772794623830412500,6.19841259765625,1.102088212966919,0.23732243478298187,0.30977770686149597
1772794623840456700,6.208456787109375,1.1182106733322144,0.2536487281322479,0.28821805119514465
1772794623850501000,6.218501220703125,1.1341478824615479,0.2436530888080597,0.30399593710899353
1772794623860545300,6.228545166015625,1.1431854963302612,0.22260241210460663,0.3440059721469879
1772794623870589000,6.2385888671875,1.1538764238357544,0.19926594197750092,0.39372798800468445
1772794623880634000,6.248634033203125,1.1708647012710571,0.17476728558540344,0.4145279824733734
1772794623890678300,6.25867822265625,1.1761937141418457,0.13590671122074127,0.4052836000919342
1772794623900723000,6.268722900390625,1.1674011945724487,0.08339855819940567,0.37096768617630005
1772794623910767000,6.27876708984375,1.1518239974975586,0.05361242592334747,0.3208928108215332
1772794623920811300,6.288811279296875,1.1345162391662598,0.04345709830522537,0.2701548933982849
1772794623930856000,6.29885595703125,1.1145436763763428,0.05053871124982834,0.22194238007068634
1772794623940900000,6.308900146484375,1.097225546836853,0.054008014500141144,0.18983052670955658
1772794623950944300,6.3189443359375,1.0869613885879517,0.05542295053601265,0.16049687564373016
1772794623960989000,6.328989013671875,1.088387370109558,0.0543178990483284,0.13631704449653625
1772794623971033000,6.339033203125,1.092698574066162,0.06718602031469345,0.12361510097980499
1772794623981077200,6.3490771484375,1.109778881072998,0.06164547801017761,0.12274971604347229
1772794623991122000,6.359121826171875,1.1304351091384888,0.035320401191711426,0.12837298214435577
1772794624001166000,6.369166015625,1.1653709411621094,0.016018502414226532,0.13253909349441528
1772794624011211300,6.379211181640625,1.1990580558776855,0.013820061460137367,0.13627123832702637
1772794624021255000,6.3892548828125,1.23896062374115,0.033913612365722656,0.13132038712501526
1772794624031299000,6.399299072265625,1.2860355377197266,0.07228416204452515,0.11276774108409882
1772794624041344300,6.40934423828125,1.3238813877105713,0.09080464392900467,0.08416533470153809
1772794624051388000,6.419387939453125,1.3505191802978516,0.08247746527194977,0.058939866721630096
1772794624061432000,6.42943212890625,1.3674808740615845,0.05327138304710388,0.041696976870298386
1772794624071477200,6.439477294921875,1.395003318786621,0.01890222355723381,0.04732317104935646
1772794624081521200,6.449521240234375,1.4102106094360352,0.0030844327993690968,0.06489814817905426
1772794624091566000,6.459566162109375,1.4000210762023926,-0.024128811433911324,0.07512681186199188
1772794624101610200,6.4696103515625,1.3742650747299194,-0.08796073496341705,0.07547162473201752
1772794624111654100,6.479654052734375,1.3417372703552246,-0.16438467800617218,0.06567278504371643
1772794624121699000,6.489698974609375,1.3074126243591309,-0.22726541757583618,0.050193481147289276
1772794624131743200,6.4997431640625,1.282467007637024,-0.25064265727996826,0.034002792090177536
1772794624141787100,6.509787109375,1.2714999914169312,-0.23514363169670105,0.01151750423014164
1772794624151832000,6.51983203125,1.2705012559890747,-0.19896379113197327,-0.0032694311812520027
1772794624161876200,6.529876220703125,1.2721282243728638,-0.15071561932563782,-0.018298931419849396
1772794624171920100,6.539920166015625,1.269930362701416,-0.09924391657114029,-0.03408348560333252
1772794624181965000,6.549965087890625,1.2703031301498413,-0.05778871476650238,-0.049048978835344315
1772794624192009200,6.56000927734375,1.2736449241638184,-0.009373513981699944,-0.06300687044858932
1772794624202054100,6.57005419921875,1.2777249813079834,0.05777532234787941,-0.0801953598856926
1772794624212098000,6.58009814453125,1.2831746339797974,0.12421320378780365,-0.09852376580238342
1772794624222142000,6.590141845703125,1.278944492340088,0.18279427289962769,-0.11556724458932877
1772794624232187100,6.600187255859375,1.274025321006775,0.19594097137451172,-0.11707726120948792
1772794624242231000,6.61023095703125,1.2698343992233276,0.19766664505004883,-0.08846156299114227
1772794624252275000,6.62027490234375,1.2610665559768677,0.1876630187034607,-0.033370621502399445
1772794624262320000,6.630320068359375,1.249273657798767,0.16768041253089905,0.032214391976594925
1772794624272364000,6.640364013671875,1.2379202842712402,0.1307426244020462,0.09686955064535141
1772794624282409200,6.6504091796875,1.2175003290176392,0.09561969339847565,0.13980351388454437
1772794624292453000,6.660453125,1.1960296630859375,0.08477556705474854,0.1572461575269699
1772794624302497000,6.6704970703125,1.1662694215774536,0.08261196315288544,0.1574675291776657
1772794624312542200,6.680542236328125,1.1372199058532715,0.08794920146465302,0.1537172645330429
1772794624322586000,6.690586181640625,1.0988991260528564,0.10037711262702942,0.1453935205936432
1772794624332630300,6.70063037109375,1.0551974773406982,0.102340929210186,0.14414183795452118
1772794624342675200,6.71067529296875,1.015136480331421,0.11179615557193756,0.1421291083097458
1772794624352719000,6.720718994140625,0.9711637496948242,0.11793634295463562,0.1378406286239624
1772794624362763300,6.73076318359375,0.9135842323303223,0.1031971350312233,0.12414713203907013
1772794624372808000,6.740807861328125,0.8409092426300049,0.054850105196237564,0.10326769202947617
1772794624382852000,6.75085205078125,0.7574823498725891,-0.005258399061858654,0.08969450742006302
1772794624392897000,6.76089697265625,0.6797225475311279,-0.024659261107444763,0.09702113270759583
1772794624402941000,6.77094091796875,0.6105382442474365,-0.00977469515055418,0.11028775572776794
1772794624412985000,6.780985107421875,0.5678703784942627,0.022761410102248192,0.12096117436885834
1772794624423030000,6.791030029296875,0.5478742718696594,0.06748504191637039,0.13341696560382843
1772794624433074000,6.801073974609375,0.5436965227127075,0.1194467768073082,0.1379035860300064
1772794624443118000,6.8111181640625,0.5481725931167603,0.16274520754814148,0.13845409452915192
1772794624453163300,6.821163330078125,0.5503140091896057,0.1554444134235382,0.12541872262954712
1772794624463207000,6.83120703125,0.5375460982322693,0.09847529232501984,0.11425457894802094
1772794624473252000,6.841252197265625,0.5276806950569153,0.04411271959543228,0.11427668482065201
1772794624483296300,6.851296142578125,0.5177515149116516,0.012595167383551598,0.13247047364711761
1772794624493340000,6.86133984375,0.50584876537323,-0.006358817219734192,0.14572502672672272
1772794624503385000,6.871385009765625,0.48492324352264404,-0.035341255366802216,0.16466307640075684
1772794624513429200,6.88142919921875,0.4695807695388794,-0.044901736080646515,0.17890992760658264
1772794624523473200,6.89147314453125,0.4581448435783386,-0.05249999836087227,0.20834985375404358
1772794624533518000,6.90151806640625,0.46116751432418823,-0.042007144540548325,0.2594875991344452
1772794624543562200,6.911562255859375,0.49590402841567993,-0.032161813229322433,0.3191629946231842
1772794624553606100,6.921606201171875,0.5511606335639954,-0.041674092411994934,0.35845446586608887
1772794624563651000,6.931651123046875,0.58833247423172,-0.055150218307971954,0.36695876717567444
1772794624573695200,6.9416953125,0.5987579226493835,-0.0803849995136261,0.34653711318969727
1772794624583740000,6.951739990234375,0.57301926612854,-0.1334354281425476,0.2792222797870636
1772794624593784000,6.9617841796875,0.511445939540863,-0.20928221940994263,0.18614311516284943
1772794624603828200,6.971828125,0.4138536751270294,-0.2998304069042206,0.08150366693735123
1772794624613873000,6.981872802734375,0.29455792903900146,-0.3604260981082916,-0.003950243815779686
1772794624623917000,6.9919169921875,0.18576183915138245,-0.38124725222587585,-0.05751539394259453
1772794624633961200,7.001961181640625,0.11340082436800003,-0.3550390899181366,-0.07560039311647415
1772794624644006000,7.012005859375,0.07176682353019714,-0.2944006323814392,-0.06880681961774826
1772794624654050000,7.022050048828125,0.054193951189517975,-0.16552332043647766,-0.029775535687804222
1772794624664095200,7.03209521484375,0.09346623718738556,0.01342836394906044,0.029223021119832993
1772794624674139100,7.04213916015625,0.14739924669265747,0.18670587241649628,0.07668907195329666
1772794624684183000,7.05218310546875,0.23601636290550232,0.26557254791259766,0.13361160457134247
1772794624694228200,7.062228271484375,0.3399837911128998,0.28928425908088684,0.1903313398361206
1772794624704272100,7.072272216796875,0.4405997693538666,0.27931976318359375,0.23931093513965607
1772794624714316000,7.08231591796875,0.5258039236068726,0.3028130829334259,0.29094377160072327
1772794624724361200,7.092361328125,0.578158438205719,0.28283706307411194,0.3183814585208893
1772794624734405000,7.102405029296875,0.6084811687469482,0.23200342059135437,0.32966580986976624
1772794624744450000,7.112449951171875,0.6288806200027466,0.1826511025428772,0.3323579430580139
1772794624754494200,7.122494140625,0.6253055930137634,0.14244216680526733,0.33673325181007385
1772794624764538000,7.1325380859375,0.6021034717559814,0.09650727361440659,0.34692612290382385
1772794624774583000,7.1425830078125,0.5662456154823303,0.048836417496204376,0.34224241971969604
1772794624784627200,7.152627197265625,0.5278759002685547,0.0056380294263362885,0.31088507175445557
1772794624794671000,7.162671142578125,0.48594892024993896,-0.03248298913240433,0.24883422255516052
1772794624804716000,7.172716064453125,0.4485856890678406,-0.060409799218177795,0.16594721376895905
1772794624814760200,7.18276025390625,0.42673978209495544,-0.09410011768341064,0.06650824099779129
1772794624824805000,7.19280517578125,0.36817172169685364,-0.13917289674282074,-0.03382522240281105
1772794624834849000,7.20284912109375,0.3420253396034241,-0.1724003553390503,-0.09050953388214111
1772794624844893000,7.212892822265625,0.3407632112503052,-0.21491064131259918,-0.1258506327867508
1772794624854938000,7.222938232421875,0.35693711042404175,-0.2474137246608734,-0.12225084006786346
1772794624864982000,7.23298193359375,0.3909165561199188,-0.26672208309173584,-0.0898226723074913
1772794624875026200,7.243026123046875,0.4237770438194275,-0.28555622696876526,-0.04601473733782768
1772794624885071000,7.253071044921875,0.45481228828430176,-0.2776663303375244,-0.01204001996666193
1772794624895115300,7.263115234375,0.4849832355976105,-0.2379085272550583,0.0023817969486117363
1772794624905159200,7.2731591796875,0.5153385400772095,-0.1654188334941864,-0.0036551172379404306
1772794624915204000,7.2832041015625,0.5563352108001709,-0.06394760310649872,-0.02412816882133484
1772794624925248300,7.293248291015625,0.597593367099762,0.05183982849121094,-0.05766332149505615
1772794624935293200,7.303293212890625,0.626800537109375,0.15176430344581604,-0.0921214297413826
1772794624945337000,7.313337158203125,0.6459636092185974,0.218549445271492,-0.13340921700000763
1772794624955381200,7.32338134765625,0.6581994891166687,0.23494280874729156,-0.16440308094024658
1772794624965426200,7.33342626953125,0.6625173687934875,0.21221554279327393,-0.16638493537902832
1772794624975470000,7.343469970703125,0.6639392375946045,0.18122753500938416,-0.13198567926883698
1772794624985514200,7.35351416015625,0.6614017486572266,0.1490553766489029,-0.0793745368719101
1772794624995559200,7.36355908203125,0.6626760363578796,0.11498741805553436,-0.02680240571498871
1772794625005603000,7.37360302734375,0.6650920510292053,0.08998220413923264,-0.003179900348186493
1772794625015648000,7.38364794921875,0.6634116172790527,0.0661168172955513,0.0025719949044287205
1772794625025692200,7.393692138671875,0.6585751175880432,0.04946977272629738,-0.011925588361918926
1772794625035736000,7.403736083984375,0.6444613933563232,0.016149364411830902,-0.02980205789208412
1772794625045781200,7.41378125,0.6293894052505493,-0.01502213440835476,-0.028901871293783188
1772794625055825200,7.4238251953125,0.6164928078651428,-0.03519291803240776,-0.013363925740122795
1772794625065869000,7.433869140625,0.606476902961731,-0.044797178357839584,0.008202461525797844
1772794625075914200,7.443914306640625,0.6001295447349548,-0.05066678673028946,0.0311751551926136
1772794625085958100,7.453958251953125,0.5993447303771973,-0.06419569998979568,0.046134963631629944
1772794625096003000,7.464003173828125,0.6072636842727661,-0.061422549188137054,0.052459441125392914
1772794625106047200,7.474047119140625,0.625079333782196,-0.044562928378582,0.052775364369153976
1772794625116091100,7.484091064453125,0.6362345218658447,-0.03486822172999382,0.048434678465127945
1772794625126136000,7.494135986328125,0.6358816623687744,-0.04256129637360573,0.05441346392035484
1772794625136180200,7.50418017578125,0.638822078704834,-0.0525638647377491,0.0527481883764267
1772794625146224000,7.51422412109375,0.6332480311393738,-0.057186949998140335,0.05848369374871254
1772794625156269000,7.52426904296875,0.6258864998817444,-0.058094289153814316,0.06393492221832275
1772794625166313200,7.534313232421875,0.618938148021698,-0.04535495489835739,0.07532752305269241
1772794625176358100,7.544358154296875,0.6083611249923706,-0.0157344788312912,0.09423250705003738
1772794625186402000,7.554402099609375,0.5991212725639343,-0.003422950394451618,0.12024387717247009
1772794625196446200,7.5644462890625,0.580930769443512,0.0015299967490136623,0.14258141815662384
1772794625206491100,7.5744912109375,0.561099648475647,-0.0012387852184474468,0.1513146013021469
1772794625216535000,7.58453515625,0.5533208250999451,0.023166688159108162,0.13736389577388763
1772794625226579200,7.5945791015625,0.5431757569313049,0.06445687264204025,0.09844659268856049
1772794625236624100,7.6046240234375,0.5327886343002319,0.1249532401561737,0.05834897607564926
1772794625246668000,7.61466796875,0.5205910205841064,0.18002410233020782,0.027999965474009514
1772794625256713200,7.624713134765625,0.5186788439750671,0.2329869270324707,0.001436531892977655
1772794625266757400,7.63475732421875,0.512682318687439,0.25419265031814575,-0.024567166343331337
1772794625276801000,7.644801025390625,0.4889194369316101,0.23782673478126526,-0.042667340487241745
1772794625286846200,7.65484619140625,0.47998717427253723,0.1963879019021988,-0.0007813486736267805
1772794625296890000,7.66489013671875,0.4782435894012451,0.07468197494745255,0.04691346734762192
1772794625306934000,7.67493408203125,0.50948566198349,0.04886608570814133,0.10342441499233246
1772794625316979200,7.684979248046875,0.5362589359283447,0.05255722999572754,0.149278461933136
1772794625327023000,7.695023193359375,0.5680876970291138,0.05601901561021805,0.14855413138866425
1772794625337068000,7.705068115234375,0.607001543045044,0.0771501362323761,0.09556016325950623
1772794625347112200,7.7151123046875,0.6286632418632507,0.12056897580623627,0.027467913925647736
1772794625357156000,7.725156005859375,0.6336041688919067,0.14905841648578644,-0.011826228350400925
