time,seconds_elapsed,z,y,x
1772794036675950300,0.071950439453125,-0.38860184270143505,0.00255845231115818,0.1250865153491497
1772794036685994500,0.081994384765625,-0.31836627695858477,0.008676058408617973,0.13819684814447536
1772794036696039400,0.092039306640625,-0.2045323925077915,0.03425824343264103,0.16947276956439017
1772794036706084400,0.10208447265625,-0.1212958908945322,0.03477320721745491,0.1602776191851124
1772794036716129300,0.11212939453125,-0.06207856277227401,0.052472530037164684,0.16862413511211052
1772794036726174500,0.122174560546875,0.02583820561170578,0.09906184725463389,0.21717207558406515
1772794036736219400,0.132219482421875,0.14156711002886294,0.13302666069865227,0.2631436079630628
1772794036746264300,0.142264404296875,0.2225929498553276,0.1372071612536907,0.29216418820424006
1772794036756309200,0.152309326171875,0.2988070054858923,0.15345979239642618,0.3336146994948387
1772794036766354400,0.1623544921875,0.3576525776863098,0.19221710081398485,0.37619156620055433
1772794036776399400,0.1723994140625,0.3666121292114258,0.17102818231284617,0.3986790366122499
1772794036786443300,0.182443359375,0.3828197521686554,0.19003449607789516,0.3863079230779782
1772794036796488200,0.19248828125,0.4158446544140577,0.21625614804923532,0.4057938735861331
1772794036806533400,0.202533447265625,0.41870121288895606,0.2180138053715229,0.4212614918310195
1772794036816578300,0.212578369140625,0.4226198476374149,0.22662907350361347,0.4806646613815799
1772794036826623500,0.22262353515625,0.3645914370387792,0.2523515437811613,0.5103685659781098
1772794036836668200,0.232668212890625,0.3069271835774183,0.2552367438286543,0.5215491180209443
1772794036846713300,0.24271337890625,0.25947277396321294,0.24467151067256926,0.5179473672019318
1772794036856758300,0.25275830078125,0.17111293798685073,0.21397125198245048,0.4754666908796876
1772794036866803500,0.262803466796875,0.0940682767510414,0.2276514022886753,0.4259973247138783
1772794036876848000,0.27284814453125,0.07103928334116935,0.2856985175877809,0.41522644945047793
1772794036886892300,0.282892333984375,0.1154004031151533,0.3063923460483551,0.44989232383593913
1772794036896937500,0.2929375,0.11672902137041091,0.29288872135281563,0.4792597264871001
1772794036906982400,0.302982421875,0.14502689509391783,0.291530292481184,0.4893929979667067
1772794036917027300,0.31302734375,0.16119243247509002,0.26162498356103897,0.4789577478658408
1772794036927072300,0.323072265625,0.1103898814767599,0.19097674536406992,0.4400326086007058
1772794036937117400,0.333117431640625,0.06421732836663722,0.1788952624261379,0.37443624696582556
1772794036947162400,0.343162353515625,0.0941775823444128,0.22826398122906683,0.3233884890347719
1772794036957207600,0.35320751953125,0.13338321905136108,0.23507366124391554,0.36365879583116617
1772794036967252200,0.363252197265625,0.1856622723430395,0.2218605439275503,0.4201770941277966
1772794036977297400,0.37329736328125,0.2388005728125572,0.20852526153624057,0.443317804283835
1772794036987341300,0.38334130859375,0.31660335893929004,0.21497370702326296,0.42137872500251977
1772794036997386200,0.39338623046875,0.38383857382237907,0.21293489467203616,0.4137154603656381
1772794037007431200,0.40343115234375,0.4696230063527822,0.23316870440542697,0.3905422361794859
1772794037017476400,0.413476318359375,0.6170458566725253,0.2772171049684286,0.3771938385782763
1772794037027521300,0.423521240234375,0.7957020496457815,0.30905192064642906,0.4205135960731655
1772794037037566500,0.43356640625,1.0004401938587426,0.36958968371748924,0.4757423660159111
1772794037047611100,0.443611083984375,1.165380580690503,0.4268190528929233,0.5786611809596419
1772794037057656300,0.45365625,1.2881734321445226,0.49336745455563064,0.6279406871091574
1772794037067701200,0.463701171875,1.334361767345667,0.5170902754485607,0.6343512848038226
1772794037077746400,0.473746337890625,1.307408293968439,0.5146878904819489,0.6170770555283874
1772794037087791400,0.483791259765625,1.2270505626618862,0.49322950738966465,0.5510373705727979
1772794037097835300,0.493835205078125,1.0789520050376653,0.4350520437091589,0.48472939006984234
1772794037107880400,0.50388037109375,0.8851140250235795,0.3821820387870073,0.4306911450859159
1772794037117925400,0.51392529296875,0.6896113266676664,0.36935353687405587,0.34950521932691336
1772794037127970300,0.52397021484375,0.48159869082868095,0.3685843060672283,0.21549349311366675
1772794037138015200,0.53401513671875,0.2870084311425686,0.4252338295280933,0.008004004365950822
1772794037148060400,0.544060302734375,0.3580348550021648,0.6177478674620389,-0.08243411745550111
1772794037158105300,0.554105224609375,0.4416717541098594,0.7385632813632488,0.028577019458450377
1772794037168150500,0.564150634765625,0.39220249754190445,0.7573606285527348,0.33958895159885283
1772794037178195200,0.5741953125,0.2760679349333048,0.834332809074223,0.7428372323554009
1772794037188240400,0.584240478515625,0.09409633380174637,0.9432079020738601,1.1443531363613904
1772794037198284300,0.5942841796875,-0.24506489390432834,0.971108593173325,1.4210156761869788
1772794037208329500,0.60432958984375,-0.659725306969881,0.9037602733045816,1.515975641080737
1772794037218374100,0.6143740234375,-0.9974205537766218,0.7800619974434375,1.328385907806456
1772794037228419300,0.62441943359375,-1.2242039410591126,0.6593231559097766,0.9519912202492355
1772794037238464300,0.63446435546875,-1.3364794901520014,0.503394927573204,0.5636514625500887
1772794037248509400,0.644509521484375,-1.3838801237523555,0.2528194535538554,0.21435312743950635
1772794037258554000,0.65455419921875,-1.3273913438111542,0.011694821707904339,-0.13039348091715947
1772794037268599300,0.664599365234375,-1.1226333258539438,-0.12202157482057809,-0.4458220056571066
1772794037278644200,0.674644287109375,-0.9218214151740074,-0.29303806669563054,-0.6903174291104078
1772794037288689400,0.684689453125,-0.7430173381626606,-0.5146262234225869,-0.8452673869993537
1772794037298734300,0.694734375,-0.6368517963826656,-0.7461909997627139,-0.9147198395404964
1772794037308778500,0.704778564453125,-0.6148293496668339,-0.9279065803065896,-0.948881929122284
1772794037318823400,0.714823486328125,-0.7432207517802715,-1.0145411999255418,-1.017853758539632
1772794037328868400,0.724868408203125,-0.780592743319273,-0.9495473342284559,-1.0308175042048096
1772794037338913500,0.73491357421875,-0.6984650797307491,-0.7850880089119077,-0.9816096750520169
1772794037348958500,0.74495849609375,-0.5851484971523284,-0.685484894387424,-0.8012873754974454
1772794037359003400,0.75500341796875,-0.5079430923968553,-0.6219593476772308,-0.6272646875437349
1772794037369048300,0.76504833984375,-0.4595762441128492,-0.6015776539057492,-0.49481253879740833
1772794037379093500,0.775093505859375,-0.38645372475683687,-0.5732952700123191,-0.46934323956333096
1772794037389138400,0.785138427734375,-0.3123608990639448,-0.47681145655214785,-0.4425340334950015
1772794037399183600,0.79518359375,-0.22752222295105456,-0.3897501359537244,-0.36855303414613005
1772794037409227300,0.805227294921875,-0.20617372997403144,-0.5384025280684233,-0.46279177209325134
1772794037419272400,0.8152724609375,-0.23083061684668063,-0.4936833886370062,-0.4219800153639167
1772794037429317400,0.8253173828125,-0.2682166369110346,-0.4510214739963412,-0.4169530175147578
1772794037439362600,0.835362548828125,-0.33670974290072914,-0.43960663827359675,-0.426778026762791
1772794037449407200,0.8454072265625,-0.43055707037746904,-0.3867138369977474,-0.3391847547121346
1772794037459452400,0.855452392578125,-0.43419045844376086,-0.2926724482536316,-0.26701160850282757
1772794037469497300,0.865497314453125,-0.32437633102834224,-0.1699973779603839,-0.23809783137068152
1772794037479542500,0.87554248046875,-0.23544249455630778,-0.11705080067068338,-0.14780834250599145
1772794037489587200,0.885587158203125,-0.18649755412340163,-0.12102233465015888,-0.1312818628579378
1772794037499632400,0.89563232421875,-0.16843991938531397,-0.13146686403602362,-0.12519764757342636
1772794037509676500,0.905676513671875,-0.09709610013961792,-0.0635319764509797,-0.12702230571731923
1772794037519721500,0.915721435546875,-0.01588496687412262,0.010526946972310542,-0.08958937777131795
1772794037529766400,0.925766357421875,0.027391280272603034,0.047938393738865846,0.006435512940213084
1772794037539811300,0.935811279296875,0.05201075774431228,0.03353139046281576,0.10649258177727461
1772794037549856500,0.9458564453125,0.07692191163897513,0.03183832280933857,0.2120947905860841
1772794037559901400,0.9559013671875,0.12983517118096352,0.04316957190185785,0.25466676192097365
1772794037569946600,0.965946533203125,0.17336802343726157,0.09071341336518525,0.3264952959436923
1772794037579991300,0.9759912109375,0.25603520072996616,0.13815788610726595,0.3350964624851942
1772794037590036500,0.986036376953125,0.40774844172000885,0.17140461440980434,0.24204678819216788
1772794037600081400,0.996081298828125,0.4852443538546562,0.10097177252918481,0.08294402147270738
1772794037610126600,1.006126708984375,0.6223024620264769,0.00977495956122875,0.010068901006504892
1772794037620170200,1.016170166015625,0.7371960846632719,-0.07914952456057071,-0.0249053817410022
1772794037630215400,1.02621533203125,0.7218406946212053,-0.17656623495668172,-0.031242548873275516
1772794037640260400,1.03626025390625,0.6985322997480631,-0.14817571451365946,-0.035679143081232906
1772794037650305500,1.046305419921875,0.7783522709161043,-0.0007286065354943275,-0.009028671238571404
1772794037660350200,1.05635009765625,0.8943208293080329,0.17097586760371922,0.09660919340550898
1772794037670395400,1.0663955078125,0.9779244106680154,0.33832974531799553,0.11613163999915123
1772794037680440300,1.0764404296875,1.075252565997839,0.47475452402234075,0.16594722578674553
1772794037690485500,1.086485595703125,1.1636819600790738,0.5022580324977636,0.3236488935366273
1772794037700530400,1.096530517578125,1.1514952632009983,0.4722893029525876,0.47167204783707856
1772794037710575400,1.106575439453125,1.1369254705786704,0.48071693955808875,0.5832822648890316
1772794037720620300,1.116620361328125,1.0995078863322734,0.5579027628302574,0.6680174806274474
1772794037730664400,1.12666455078125,1.00046357473433,0.6163391697078943,0.671605422116816
1772794037740709400,1.13670947265625,0.8925017971873282,0.7187982581853866,0.6092283147893846
1772794037750754300,1.14675439453125,0.9458107780486344,0.8421294542998075,0.5444100979201495
1772794037760799500,1.156799560546875,1.1551438488364218,0.915119287186861,0.5244755633942783
1772794037770844400,1.166844482421875,1.3927064042866228,0.9311486309677361,0.5956907878242432
1772794037780889600,1.1768896484375,1.3904519033581018,0.7191366963595152,0.71207318771407
1772794037790934300,1.186934326171875,1.2214321382582187,0.313960735476017,0.7368683140136301
1772794037800979500,1.1969794921875,0.8875725240916014,-0.09648878189623356,0.7335225107170641
1772794037811024400,1.2070244140625,0.484407318508625,-0.41418402772545815,0.6822741156473755
1772794037821069600,1.217069580078125,0.12327742010056972,-0.5558592743039131,0.5638067261770368
1772794037831113200,1.22711328125,-0.21793547943830488,-0.5091892930656671,0.33628041157275435
1772794037841158400,1.237158447265625,-0.5362696076929568,-0.4481631619557738,0.08441708969995379
1772794037851203300,1.247203369140625,-0.751051007014513,-0.3180959355846047,-0.13155147357955574
1772794037861248500,1.25724853515625,-0.7345254041492939,-0.09692629653066397,-0.22617957617044449
1772794037871293200,1.267293212890625,-0.5758183587491512,0.11950111643224953,-0.17981135435774923
1772794037881338400,1.27733837890625,-0.6569207709431648,0.09742693952918052,0.0363137146577239
1772794037891383300,1.28738330078125,-0.8711223245501518,-0.06923398748487233,0.22889862587079404
1772794037901428500,1.297428466796875,-0.9760779060184955,-0.1932069886341691,0.2374361525915563
1772794037911473400,1.307473388671875,-1.0592354971766471,-0.3464274193167686,0.062328738141059874
1772794037921518300,1.317518310546875,-1.0529366892933845,-0.47788171613216396,-0.16778393969461322
1772794037931563300,1.327563232421875,-0.9979588984370231,-0.5630149912774562,-0.3289803176924586
1772794037941607400,1.337607421875,-0.8483131113708019,-0.5184665322378278,-0.44187882098928094
1772794037951652600,1.347652587890625,-0.5766980641931295,-0.4000225236430764,-0.47242213555201884
1772794037961697300,1.357697265625,-0.3017413053721189,-0.3336424642845988,-0.47132308826893565
1772794037971742500,1.367742431640625,-0.017125906845927238,-0.2295794477418065,-0.3900117094993591
1772794037981787400,1.377787353515625,0.3797439979851246,-0.1012006128489971,-0.21001871496438979
1772794037991832600,1.38783251953125,0.7420949626207352,0.021605974869430063,0.010760901858657598
1772794038001877200,1.397877197265625,0.9611246670365333,0.0858490221992135,0.21627514501065015
1772794038011922400,1.40792236328125,1.0920154847502708,0.15139759916961193,0.3550422490574419
1772794038021967400,1.41796728515625,1.202423486405611,0.21689006203860042,0.5064965468503535
1772794038032012500,1.428012451171875,1.2162369077026842,0.1952802877768874,0.6671940354153514
1772794038042056400,1.438056396484375,1.1060784968942403,0.06982932302951812,0.8155113503567873
1772794038052101400,1.448101318359375,0.8494418231397867,-0.10740852757841347,0.8794495695210993
1772794038062146300,1.458146240234375,0.5063368262439966,-0.24382132358402012,0.866084622643888
1772794038072191500,1.46819140625,0.0807400086224079,-0.3975213544771075,0.8770088983707129
1772794038082236400,1.478236328125,-0.46266368873417374,-0.5394859393909573,0.835381879735738
1772794038092281300,1.48828125,-1.0083873534709216,-0.46784050685018297,0.6894457608424127
1772794038102326300,1.498326171875,-1.5281477249115705,-0.24321663568913934,0.5454289195738733
1772794038112371500,1.508371337890625,-2.057851982739568,-0.040543022790551185,0.5103754341103136
1772794038122416400,1.51841650390625,-2.441938393843174,0.12115998955518006,0.4522622678376734
1772794038132461300,1.52846142578125,-2.630319862017035,0.180443076390028,0.32688319928273557
1772794038142506200,1.53850634765625,-2.6016373728901145,0.14102233562767505,0.21874957230016587
1772794038152550400,1.54855029296875,-2.351811548194289,-0.0062593526557087895,0.12462430466488003
1772794038162595600,1.558595703125,-1.9146335983723402,-0.19997253724634645,0.036047611067444085
1772794038172640300,1.56864013671875,-1.4663918182224034,-0.33538024786263704,-0.02397474982738495
1772794038182685400,1.578685546875,-1.0530313818395136,-0.4066378501296043,-0.13834683280810714
1772794038192730400,1.58873046875,-0.6894108356595039,-0.41873569968044755,-0.28711627543121576
1772794038202775600,1.598775634765625,-0.3646586570560932,-0.42204087870568036,-0.3525409337610006
1772794038212820500,1.608820556640625,-0.011013561445474624,-0.27598142569363115,-0.26726678884029387
1772794038222865400,1.618865478515625,0.21331424937844276,-0.14515782799720764,-0.26087401906326413
1772794038232910300,1.628910400390625,0.43549394225776195,-0.10545593220591544,-0.3640422787234187
1772794038242955500,1.63895556640625,0.6317091727972031,-0.10783961247205734,-0.4432911720052361
1772794038253000400,1.64900048828125,0.7101321366488933,-0.1636462553679943,-0.5690986951053142
1772794038263044400,1.65904443359375,0.7182803717911243,-0.21411299854069946,-0.7038496953785419
1772794038273089500,1.669089599609375,0.7198001287043094,-0.19437310980409384,-0.7587558823034167
1772794038283134500,1.679134521484375,0.5995598843425511,-0.23245178830772636,-0.8061435102917254
1772794038293180000,1.689179931640625,0.4030833725184202,-0.29495968240797515,-0.7599429001308977
1772794038303225000,1.69922509765625,0.20722294676601885,-0.26114479882866143,-0.7268177523814141
1772794038313270000,1.70927001953125,0.029624738413095472,-0.21579174540787935,-0.7053723749011754
1772794038323315200,1.719315185546875,-0.16176467940509318,-0.16531798797249794,-0.674116674285382
1772794038333359900,1.72935986328125,-0.29456980630755425,-0.1265522039875388,-0.6160119835801422
1772794038343405000,1.739405029296875,-0.34572482400536536,-0.149017718295753,-0.5945638296209276
1772794038353450000,1.749449951171875,-0.3413169444352388,-0.13651041116118431,-0.547876312725991
1772794038363495200,1.7594951171875,-0.36158757904767985,-0.12031915481686592,-0.46399654477313157
1772794038373539000,1.7695390625,-0.37010406298041343,-0.13228811729103326,-0.35157574199065567
1772794038383584000,1.779583984375,-0.34685704290568825,-0.1334706050738692,-0.2559295483984053
1772794038393629200,1.789629150390625,-0.3166670718252659,-0.18196575591266154,-0.17846213170588016
1772794038403674000,1.799674072265625,-0.2612994048684835,-0.1971697547852993,-0.12322832026183604
1772794038413719000,1.809718994140625,-0.1572410645008087,-0.27738983118683097,-0.14586407657042144
1772794038423764000,1.819763916015625,-0.11655717193484305,-0.355912163759768,-0.05532178198844194
1772794038433809200,1.82980908203125,-0.09209434632956981,-0.34290684397518634,0.12571619155481456
1772794038443854000,1.83985400390625,-0.08027706728577613,-0.33747955822944636,0.21926044443175197
1772794038453899300,1.849899169921875,-0.1217623393625021,-0.44175709430575366,0.06984905064329505
1772794038463944000,1.85994384765625,-0.09493395366966724,-0.5287736989796161,-0.19218144497871398
1772794038473988000,1.869988037109375,0.07519640302062035,-0.5258516740530729,-0.39154038037136196
1772794038484033000,1.880032958984375,0.28922084649503227,-0.5219733713150024,-0.47000367623344064
1772794038494078000,1.890077880859375,0.5031500129014254,-0.5130179114431143,-0.4323087363503873
1772794038504123000,1.900122802734375,0.6821674404025078,-0.4216360972970724,-0.2821209513619542
1772794038514168000,1.91016796875,0.8501941028118133,-0.28707857376933094,-0.26664266559258104
1772794038524213000,1.920212890625,0.8533551971912383,-0.2109983736515045,-0.32131065984740853
1772794038534258200,1.930258056640625,0.8654618145704269,-0.14463292734026909,-0.434569667019695
1772794038544302800,1.940302734375,0.887886412346363,-0.10774024375081062,-0.5533813398830593
1772794038554348000,1.95034814453125,0.9579413608253001,-0.13101239826679228,-0.6466679647371173
1772794038564393000,1.96039306640625,0.9971212785691023,-0.16194471214711664,-0.6823829828493296
1772794038574438100,1.970438232421875,0.9087713794648646,-0.16684709723591803,-0.6903630218178033
1772794038584482000,1.98048193359375,0.7445540462106466,-0.12649579762518406,-0.6735949884988367
1772794038594527000,1.99052685546875,0.5862456447392702,-0.012725041538476943,-0.5581074916221201
1772794038604572200,2.000572265625,0.4462450533747673,0.13668576772809027,-0.36213688349351286
1772794038614617000,2.0106171875,0.2648287480384111,0.1819417905151844,-0.2067635125607252
1772794038624662000,2.020662109375,0.09505670326650142,0.141725515460968,-0.01762245819121599
1772794038634707000,2.03070703125,-0.05030278478264808,0.12946399978101253,0.12125059044808148
1772794038644752100,2.040752197265625,-0.17866846793293953,0.1558691916257143,0.24223873056769368
1772794038654797000,2.050797119140625,-0.3033195144742727,0.13071721471250056,0.3228969061255455
1772794038664842200,2.06084228515625,-0.4123375230759382,0.17049919000267982,0.38152474392205477
1772794038674887000,2.070886962890625,-0.5015817406713963,0.24938684875667094,0.4252861442372203
1772794038684931000,2.08093115234375,-0.5472691406130791,0.42855274481773376,0.46373234087899323
1772794038694976000,2.09097607421875,-0.5767214450687169,0.4897036713510751,0.5017800397224724
1772794038705021200,2.101021240234375,-0.519603719574213,0.5354997923642396,0.4659172837026417
1772794038715065900,2.11106591796875,-0.43556700749397276,0.602264467126131,0.44222062016427516
1772794038725111000,2.121111083984375,-0.32065877180993557,0.6731307319879531,0.36904140218496323
1772794038735156000,2.131156005859375,-0.19526070629358291,0.6952735902130603,0.30669381321296096
1772794038745201200,2.141201171875,-0.12883213161826132,0.639200989857316,0.35908494857698675
1772794038755245800,2.151245849609375,-0.09166121560931205,0.5460562576919794,0.42867739411070943
1772794038765291000,2.161291015625,-0.0801215844631195,0.482587117344141,0.44797421525493264
1772794038775336000,2.1713359375,-0.07976502611041068,0.3633411447167396,0.4665308855563402
1772794038785381000,2.181381103515625,-0.05354921935796737,0.2288835744321346,0.5355901009961962
1772794038795425000,2.191425048828125,0.016340309426188467,0.1673626455426216,0.6071808807402849
1772794038805470000,2.201469970703125,0.08632043910324573,0.10139642768204211,0.6537764815680682
1772794038815515100,2.21151513671875,0.15990063909888266,-0.09190262314975262,0.7539600263290107
1772794038825560000,2.22156005859375,0.2447439913868904,-0.11861001281142235,0.7760958702914417
1772794038835605200,2.231605224609375,0.31528643112182614,0.08914426435232162,0.43307197580784557
1772794038845650000,2.24164990234375,0.287041164368391,0.08031272312104702,0.20346797814667222
1772794038855695000,2.251695068359375,0.2279477548867464,-0.04975450325012207,0.15932532342895864
1772794038865740000,2.261739990234375,0.16101239973306655,-0.07588555432856083,0.06473112310767173
1772794038875785200,2.27178515625,0.09023732028603554,-0.02099485723376274,-0.048729105725139374
1772794038885830000,2.281829833984375,-0.024680267748236655,0.0005015197813510895,-0.11423501259759068
1772794038895875000,2.291875,-0.15776713420152663,0.01811316431760788,-0.10497034064605831
1772794038905919000,2.3019189453125,-0.25846564274728295,0.08165361633598804,-0.05703662308230996
1772794038915964200,2.311964111328125,-0.3471463812410831,0.13842121321856976,-0.020166881977021694
1772794038926008800,2.3220087890625,-0.44123920791149135,0.21606267130374907,0.033021248983591794
1772794038936054000,2.332053955078125,-0.4925111299872398,0.2953898905187845,0.10708908636569976
1772794038946099000,2.342098876953125,-0.5094862301856279,0.3700795130610466,0.24135946351513266
1772794038956144000,2.35214404296875,-0.4575707495093345,0.42941900625824925,0.3792053610637784
1772794038966189000,2.36218896484375,-0.41380876467227934,0.5049135154426098,0.47921983286812897
1772794038976234000,2.37223388671875,-0.3523755140662193,0.5944026477098464,0.5974271100975572
1772794038986279000,2.38227880859375,-0.3095066786766052,0.6444511654704809,0.6877389569245278
1772794038996324000,2.392323974609375,-0.2653442963451147,0.6968851170629262,0.7617825366482138
1772794039006369000,2.402369140625,-0.212519299608469,0.7222504444658756,0.8340424478255212
1772794039016413000,2.412412841796875,-0.20584522867202756,0.7026105089724064,0.8956332270808517
1772794039026458000,2.4224580078125,-0.22310849816203115,0.7125240002214909,0.9280649857386946
1772794039036503000,2.4325029296875,-0.18415829752087592,0.7103899108022451,0.9016006110526621
1772794039046548200,2.44254833984375,-0.1700292344033718,0.6931617126256228,0.9072375940263271
1772794039056593000,2.452593017578125,-0.15608838733434677,0.7174445054888725,0.9125871383607387
1772794039066638000,2.46263818359375,-0.16343056679069995,0.754074154227972,0.9311889629781246
1772794039076683000,2.47268310546875,-0.17220599392056465,0.7509218276768922,0.9518497659519314
1772794039086728200,2.482728271484375,-0.19235212537050245,0.7672159598737954,0.9670385672554374
1772794039096773000,2.492773193359375,-0.180403913423419,0.8256628881454467,0.9871379369542002
1772794039106818000,2.502818115234375,-0.2455062079310417,0.7587275329917669,0.9457710305601358
1772794039116863000,2.512863037109375,-0.3131897511035204,0.6724357354611158,0.8911454141423105
1772794039126907100,2.5229072265625,-0.3152934453845024,0.6554577126532792,0.7632623999424278
1772794039136951800,2.532951904296875,-0.30688918965458867,0.6323515623539686,0.6974919969148934
1772794039146997000,2.5429970703125,-0.34937165607511994,0.5652817671656608,0.6791020614825188
1772794039157042000,2.5530419921875,-0.35780689146518707,0.5312929883241653,0.619214579013735
1772794039167087000,2.563087158203125,-0.4310428080677986,0.4306891723245382,0.5187859734505414
1772794039177132000,2.573132080078125,-0.39957624118030066,0.39553134970366954,0.4251462973751127
1772794039187177000,2.583177001953125,-0.34535949782431125,0.3685714465856552,0.36675109929069877
1772794039197222000,2.593221923828125,-0.2848895392924547,0.29475159261524675,0.3687397888898849
1772794039207267000,2.60326708984375,-0.1918365770637989,0.2216384256094694,0.3514347260847688
1772794039217312000,2.61331201171875,-0.12290157252550124,0.14838029717504977,0.3140836312033236
1772794039227357200,2.623357177734375,-0.06809095492959022,0.10070143115520477,0.24434680876284837
1772794039237401000,2.633401123046875,-0.03312310192286968,0.0412263288795948,0.16168284634053706
1772794039247446000,2.643446044921875,-0.012419921112060545,-0.02749474064707756,0.043448534973710776
1772794039257491200,2.6534912109375,0.03996434611976146,-0.11688391967117785,-0.05483253716677427
1772794039267536000,2.663535888671875,0.06193827751874923,-0.18606793053448198,-0.14283581479042767
1772794039277581000,2.6735810546875,0.09006839345991612,-0.22824936818182467,-0.23763211355507372
1772794039287626000,2.6836259765625,0.0952712228000164,-0.2597153505474329,-0.2809549763225019
1772794039297671200,2.693671142578125,0.039353520745038985,-0.27691782976090906,-0.3528076218731701
1772794039307716000,2.703716064453125,-0.12300561742186546,-0.23814357020854948,-0.5089928937107324
1772794039317761000,2.713760986328125,-0.219376910418272,-0.24167349790036677,-0.584898467914015
1772794039327806000,2.723805908203125,-0.2412754384934902,-0.2612970667809248,-0.5891108249120414
1772794039337851100,2.73385107421875,-0.0624713614821434,-0.24769758049547672,-0.7312533967413007
1772794039347895000,2.74389501953125,0.26448271107971666,-0.04717150101959705,-1.1486129857629537
1772794039357940000,2.75393994140625,0.23205577472746372,-0.29812077678740023,-0.6110344874285161
1772794039367985000,2.76398486328125,0.47821021743416786,-0.5786275709509849,-0.196928785636276
1772794039378030000,2.774030029296875,0.6216875449985265,-0.5159598101139068,0.047865036241710186
1772794039388075000,2.784074951171875,0.853383838763833,-0.3240793939083814,0.05259703319966793
1772794039398120000,2.794119873046875,0.9783826758295298,-0.13914075966477393,0.04054916027039289
1772794039408164900,2.804164794921875,0.7825187429457903,-0.10892799223065376,0.06815554459840059
1772794039418210000,2.8142099609375,0.7215583705484867,-0.07761924625337123,0.05243102898299694
1772794039428255000,2.8242548828125,0.6881260565459728,-0.10062310522198677,0.16306874774098395
1772794039438300200,2.834300048828125,0.6314274332463741,-0.10620002857148647,0.062294397480040786
1772794039448344800,2.8443447265625,0.5167816478908062,-0.20919278553426265,0.14679215120077133
1772794039458389000,2.854388916015625,0.4306014940410852,-0.24069383921325205,0.0687044106528163
1772794039468434200,2.86443408203125,0.3022767274230718,-0.2342868947803974,0.008762421517819165
1772794039478479000,2.87447900390625,0.20730770244002342,-0.2295551900833845,-0.008934270953387021
1772794039488524000,2.88452392578125,0.1165729540258646,-0.19630524691045284,-0.01341813836917281
1772794039498569000,2.89456884765625,0.019409049347043038,-0.16660335160791873,0.04498948080539703
1772794039508614100,2.9046142578125,-0.039563364103436464,-0.11478840869665145,0.09595262919291854
1772794039518659000,2.9146591796875,-0.061169631233811375,-0.02656827345192432,0.14620149183124304
1772794039528704000,2.9247041015625,-0.030780922710895536,0.08962532586753368,0.19713439121097326
1772794039538749000,2.9347490234375,0.11543488990664481,0.16874854694306848,0.20380144788473845
1772794039548794000,2.944794189453125,0.27698329621255396,0.17916531153917312,0.27845205359086395
1772794039558838000,2.954838134765625,0.35180151357054706,0.1896931352943182,0.3871915375120938
1772794039568883000,2.964883056640625,0.36180677475631234,0.23491993198692798,0.3838412041708827
1772794039578927900,2.974927978515625,0.16847440617680548,0.28987141935825345,0.30581410776898266
1772794039588973000,2.98497314453125,0.029109190106391906,0.274431858164072,0.18765256937742233
1772794039599018000,2.99501806640625,-0.14668635273873806,0.26833821746408937,0.1645259608119726
1772794039609063200,3.005063232421875,-0.20537176594138143,0.24076924253702162,0.1955037212692201
1772794039619107800,3.01510791015625,-0.21387772848010062,0.16847440617680548,0.24721798028498887
1772794039629153000,3.025153076171875,-0.2751338689535856,0.08632686884403228,0.22815292207002638
1772794039639198000,3.035197998046875,-0.39439854628145693,0.03348024479746818,0.1554499433003366
1772794039649243100,3.0452431640625,-0.4920364982128143,0.021431495085358618,0.10511793242320418
1772794039659287800,3.055287841796875,-0.5628472334951162,0.04146832094192505,0.09620631169304251
1772794039669333000,3.0653330078125,-0.5527729987263679,0.05113631299734115,0.10548033599480985
1772794039679377200,3.075377197265625,-0.474858568918705,0.08386486264467238,0.1266885437183082
1772794039689422000,3.085422119140625,-0.3304395765900612,0.12137187874019145,0.19584683561846614
1772794039699467000,3.095467041015625,-0.16573299851417542,0.18793430892825125,0.28262787797078487
1772794039709512000,3.105511962890625,-0.014960253244638443,0.23951661212742328,0.39565921386703845
1772794039719557000,3.11555712890625,0.07265782445371151,0.26711948932409285,0.43377720146775245
1772794039729602000,3.12560205078125,0.11218436367809771,0.304531228351593,0.4693019577048719
1772794039739647200,3.135647216796875,0.14723463427126407,0.3254027514666319,0.5021851133920252
1772794039749692000,3.14569189453125,0.17404782239496708,0.31713527385890483,0.48848377416729927
1772794039759737000,3.155737060546875,0.1580173095703125,0.2836678885430097,0.4685439789444208
1772794039769782000,3.165781982421875,0.09346855729222298,0.2466875266700983,0.396350118740648
1772794039779827200,3.1758271484375,0.028845570734143254,0.20397300505936145,0.32947540773302314
1772794039789871000,3.18587109375,-0.04052314904630184,0.1292903967797756,0.22587883965820071
1772794039799916000,3.195916015625,-0.13936287798285482,0.05928513266146183,0.11501607997268437
1772794039809961000,3.2059609375,-0.20234628064036367,-0.04298866237699985,0.03341872386857867
1772794039820006100,3.216006103515625,-0.22470716553032397,-0.12681143944561482,0.017491379157453774
1772794039830051000,3.226051025390625,-0.3102905225306749,-0.17740180899798869,0.013579466410726307
1772794039840096000,3.236095947265625,-0.38047698843479155,-0.19187398646473883,-0.014056582403182983
1772794039850141000,3.246140869140625,-0.4177092792421579,-0.13191431554257868,-0.07102525481581687
1772794039860186000,3.25618603515625,-0.3957955535978079,-0.10856558865904807,-0.07065364502444862
1772794039870231000,3.26623095703125,-0.32728608099520207,-0.06333177770376205,-0.07866364073976874
1772794039880276000,3.27627587890625,-0.2094429609030485,-0.048208442851901054,-0.07956132023185492
1772794039890321000,3.28632080078125,-0.11070435425341128,-0.0255278244882822,-0.10237389441207051
1772794039900365000,3.296364990234375,-0.007756020954251289,-0.018617022186517715,-0.10093976995572447
1772794039910410000,3.306409912109375,0.11074643982946872,-0.0014198036700487136,-0.10737316400408745
1772794039920455000,3.316454833984375,0.20677578752040862,-0.021379472637176513,-0.13170403379276394
1772794039930500000,3.3265,0.24009470427632332,-0.05246785386204719,-0.16701003271266818
1772794039940545000,3.336544921875,0.3109223906934261,-0.06376198581457138,-0.132366004832834
1772794039950590200,3.346590087890625,0.3622410745203495,-0.04729717322587967,-0.04946940269842744
1772794039960635000,3.356634765625,0.3844213421463966,-0.06991349418163299,0.00870075445845723
1772794039970680000,3.36668017578125,0.3555705107152462,-0.07352233232855797,0.00562646157965064
1772794039980725000,3.37672509765625,0.3530249178856611,-0.05624386526942253,0.012545008796453476
1772794039990770200,3.386770263671875,0.36033436411619185,-0.0843044231057167,0.0038578444719314575
1772794040000815000,3.396815185546875,0.37670214607119556,-0.12823825737833977,0.023852000230550764
1772794040010859000,3.40685888671875,0.4217705373317003,-0.1372813955336809,0.04238280543833971
1772794040020904200,3.416904296875,0.45277708549201484,-0.15866788243353366,0.03460062712952494
1772794040030949000,3.42694921875,0.4554857599288225,-0.1784200461298227,0.09016016339659691
1772794040040994000,3.436994140625,0.42504444443583483,-0.18651158264875412,0.11087401173189282
1772794040051039000,3.4470390625,0.38252515313625335,-0.14946633884608745,0.10647840712144971
1772794040061084200,3.457084228515625,0.28083938711881634,-0.08756605525016783,0.05771642204001545
1772794040071129000,3.467129150390625,0.16121639787256717,-0.05487433048188686,0.010280717126280068
1772794040081174000,3.477174072265625,0.09309855493605136,-0.04658405652046203,-0.011366174275428057
1772794040091219000,3.487218994140625,0.08929740908741951,-0.045569326519966126,0.01360620828717947
1772794040101264000,3.497263916015625,-0.07726561051011085,-0.06107318512201309,-0.03793094059601426
1772794040111309000,3.50730908203125,-0.26315935352146624,-0.053527007526159284,-0.10136486349999904
1772794040121354000,3.51735400390625,-0.30236031405329705,-0.02458382163643837,-0.07825038376376033
1772794040131398000,3.52739794921875,-0.3107838590055704,-0.04881225396394729,0.009523030626773834
1772794040141443000,3.537443115234375,-0.2782873645484447,-0.04328618401885032,0.08131897755414247
1772794040151488000,3.547488037109375,-0.2396469605088234,0.0027940146327018736,0.131531453704834
1772794040161533200,3.557533203125,-0.19992928262650966,0.051315176695585246,0.10972440330535173
1772794040171577900,3.567577880859375,-0.1531669469296932,0.06880524067878722,0.1089823527663946
1772794040181623000,3.577623046875,-0.07584171518683433,0.09758651400506496,0.11855419097095728
1772794040191668000,3.58766796875,0.0014203881919384001,0.11513152304589748,0.12161328628063202
1772794040201713200,3.597713134765625,0.07271686116456985,0.1450631354510784,0.13187076866179703
1772794040211758000,3.607758056640625,0.155948102080822,0.1362269180446863,0.1596963486984372
1772794040221803000,3.617802978515625,0.21933131771087644,0.12444880196750163,0.1801123831309378
1772794040231848000,3.627847900390625,0.21591069561243056,0.09708674778938294,0.15851313026323913
1772794040241892000,3.63789208984375,0.14259236142337323,0.07966039669215678,0.10387947666943073
1772794040251937000,3.64793701171875,0.10494564459621905,0.0890536634594202,0.09463467846214771
1772794040261982000,3.65798193359375,0.07663374234735966,0.05057283389568329,0.0965424117796123
1772794040272027100,3.668027099609375,0.05762450597286224,0.025409166544675826,0.13416487094834445
1772794040282072000,3.678072021484375,0.03830898012816906,0.04525777635276317,0.180177265060693
1772794040292117000,3.688116943359375,0.04528174175024032,0.05691431187689304,0.20833470740020274
1772794040302162000,3.698161865234375,0.05581891785562038,0.06516308478415012,0.2355412787556648
1772794040312207000,3.70820703125,0.0939379283696413,0.07000877124965191,0.26873963787183164
1772794040322251800,3.718251708984375,0.09992635512948035,0.07901683809161186,0.28508374669030306
1772794040332297000,3.728296875,0.07793196546435356,0.06603402239978313,0.24670184745639562
1772794040342342000,3.738341796875,0.0827665460139513,0.08019640326499938,0.2656792273879051
1772794040352386000,3.748385986328125,0.08292378240227699,0.06839490631222725,0.26668212082013487
1772794040362430700,3.7584306640625,0.07272212186157703,0.07219546763896942,0.27674422675967214
1772794040372476000,3.768475830078125,0.033767829567193985,0.09653963530063629,0.24020240243449806
1772794040382520800,3.778520751953125,-0.03787526488602161,0.10375964968204497,0.19073913721591232
1772794040392566000,3.78856591796875,-0.09082067313194274,0.11092062735259532,0.16752368132323026
1772794040402611000,3.79861083984375,-0.11342413460612297,0.10733341651558875,0.16697086974605918
1772794040412655900,3.80865576171875,-0.13137071018517016,0.12737667211294174,0.15718012809380888
1772794040422700800,3.81870068359375,-0.134789578717947,0.13261281920075416,0.13386983352452517
1772794040432746000,3.82874609375,-0.1327022510498762,0.13126257363557814,0.11404650428816676
1772794040442791000,3.838791015625,-0.11198737980127334,0.13947569070756435,0.11814414886534214
1772794040452835800,3.8488359375,-0.06285948401689528,0.1162415301144123,0.12907690015956758
1772794040462880800,3.858880859375,-0.039780806246399875,0.08912029895484447,0.11966244447380303
1772794040472925000,3.868925048828125,-0.014307926815748214,0.0813894124418497,0.13462109028324484
1772794040482970000,3.87897021484375,0.004820552024245262,0.050177697098255154,0.15574688042029738
1772794040493014800,3.889014892578125,-0.0024789573341608044,0.022688217148184774,0.16192878392562268
1772794040503060000,3.89906005859375,-0.0020668694019317624,0.016057400831580162,0.15711363872885703
1772794040513105000,3.90910498046875,0.0073322425842285155,0.0036661212921142577,0.19026319026723504
1772794040523150000,3.919150146484375,-0.010844634619355201,-0.01919452981352806,0.22379326555579898
1772794040533195000,3.929195068359375,-0.033681904849410055,-0.02342471472918987,0.22628888176381587
1772794040543240000,3.939239990234375,-0.039056583625078196,-0.013019056048989295,0.214692990385741
1772794040553284900,3.949284912109375,-0.034166473495960234,0.005553542473912239,0.1684704606540501
1772794040563330000,3.959330078125,-0.009966682741045951,-0.03334989641606807,0.10693506484776735
1772794040573375000,3.969375,0.03310556626617908,-0.04930149878561496,0.05923720186650753
1772794040583419000,3.9794189453125,0.06765080994665622,-0.07180033084154129,0.028673282907158135
1772794040593463800,3.9894638671875,0.09135667970478534,-0.07076221996545791,-0.012402385455369948
1772794040603509000,3.999509033203125,0.08617430863082408,-0.08935235414505005,-0.06843596897497772
1772794040613554000,4.009553955078125,0.07211421909630299,-0.12235153742730617,-0.11110577466115355
1772794040623598800,4.019598876953125,0.06804770030975342,-0.12806699246466158,-0.11884849774241446
1772794040633643800,4.029643798828125,0.09614391398131847,-0.12295242592990398,-0.10390475724115968
1772794040643689000,4.03968896484375,0.11375146686434745,-0.11599895353019236,-0.12216449042260646
1772794040653734000,4.04973388671875,0.10478607012033461,-0.1278396134495735,-0.13022899280413985
1772794040663779000,4.059779052734375,0.13800970980823038,-0.12792027747035026,-0.16384440828859806
1772794040673823700,4.06982373046875,0.15605916123986244,-0.12606734308004378,-0.15331585388109087
1772794040683869000,4.079868896484375,0.16675591182112692,-0.15000234541893004,-0.13425138018801808
1772794040693913900,4.089913818359375,0.18013211074471472,-0.15096037679612637,-0.11832856552153825
1772794040703959000,4.099958984375,0.19670973605811595,-0.13695815492868424,-0.051922348808497186
1772794040714003000,4.1100029296875,0.18622575144469736,-0.11926876898109912,-0.020985358753055332
1772794040724048000,4.1200478515625,0.19086334811747074,-0.0917027166634798,-0.002804536026716232
1772794040734093000,4.130093017578125,0.24288287369012831,-0.04466039498150348,0.05143938759714365
1772794040744138000,4.140137939453125,0.34132395869791504,0.10179156447947024,0.0955000631198287
1772794040754183000,4.150182861328125,0.2841886975467205,-0.011511574095487594,0.24335779772549868
1772794040764227800,4.160227783203125,0.18738485835194588,0.07688333319425582,0.2760878086775541
1772794040774273000,4.17027294921875,0.11375263590812683,0.14703238969743251,0.3141971745803952
1772794040784318000,4.18031787109375,-0.031817864543199535,0.14321253914833068,0.33761282922029495
1772794040794363100,4.190363037109375,-0.09569617021381854,0.19312544783055782,0.30902956268414855
1772794040804407800,4.20040771484375,-0.14865268437564372,0.22123978168070316,0.32672596289440986
1772794040814453000,4.210452880859375,-0.16058102257847784,0.22723405365943908,0.335678646287322
1772794040824497000,4.220496826171875,-0.18413316307961938,0.24050328507721422,0.34258491854444145
1772794040834541800,4.230541748046875,-0.21641981417834757,0.218731598252058,0.3557591651551425
1772794040844586800,4.240586669921875,-0.2194686803549528,0.20559797591269016,0.35386575262397524
1772794040854632000,4.2506318359375,-0.22138065145611763,0.18264204773902892,0.3485734914347529
1772794040864676900,4.2606767578125,-0.1764858631968498,0.15059037443995474,0.3153103965193033
1772794040874722000,4.27072216796875,-0.1229208617478609,0.135522569167614,0.2658167361624539
1772794040884766700,4.2807666015625,-0.07487666954696177,0.12097381933331489,0.23808511801958082
1772794040894812000,4.29081201171875,-0.014604863935708999,0.07385024910867213,0.18004560150504112
1772794040904856800,4.30085693359375,0.052046998101472855,0.02198912896811962,0.12631912588402627
1772794040914902000,4.310902099609375,0.05413023411631584,-0.03047404871881008,0.11569222566857933
1772794040924947000,4.320947021484375,0.06828384715318679,-0.08239946626722812,0.062497664967179296
1772794040934992000,4.330991943359375,0.030601474490761754,-0.12102350369393824,0.017044073781371117
1772794040945036000,4.3410361328125,0.04324585200846195,-0.08621931681632995,0.01689787024371326
1772794040955081000,4.3510810546875,0.007549684727191925,-0.09461129758656024,0.02126008404120803
1772794040965126000,4.3611259765625,0.0227349788993597,-0.08130114963650703,-0.005583353090286254
1772794040975171800,4.371171875,0.029009821385145185,-0.0488555085837841,-0.027481150513142347
1772794040985216800,4.381216796875,0.046342064458131785,-0.03814414495527744,-0.06811557791419327
1772794040995262000,4.391261962890625,0.0971533832848072,-0.018370938470959663,-0.11747932828105985
1772794041005307000,4.401306884765625,0.15462532904446125,-0.01731178480684757,-0.12713994074761867
1772794041015352000,4.41135205078125,0.19428221665024756,-0.02628770294487476,-0.07513656259216368
1772794041025396700,4.421396728515625,0.19302315649986265,-0.011319266393780707,-0.023581293530389666
1772794041035442000,4.43144189453125,0.19751637626588345,0.017710428735613824,0.02600793615542352
1772794041045486800,4.44148681640625,0.17755203112363815,0.06680442225039004,0.05996982698999345
1772794041055532000,4.451531982421875,0.15439561194181442,0.10017010075747966,0.10827011284381151
1772794041065577000,4.461576904296875,0.1216530337691307,0.11094985344707965,0.1465528625521809
1772794041075622000,4.471621826171875,0.06946925754547119,0.12488193268775939,0.1896913086634129
1772794041085666800,4.481666748046875,0.04403846369087696,0.1199275251507759,0.20874942568093538
1772794041095711000,4.4917109375,-0.008981763356924057,0.07687222727835177,0.2295869734611362
1772794041105756000,4.501755859375,-0.0558574963003397,0.06296645152270794,0.2591893539119512
1772794041115800800,4.51180078125,-0.07864917382299899,0.06515782408714293,0.25779585372693836
1772794041125846000,4.521845947265625,-0.11606149737238883,0.06021335342228412,0.2598700296524912
1772794041135891000,4.531890869140625,-0.11410744069516658,0.07841068889200686,0.2769775240588933
1772794041145936100,4.54193603515625,-0.10035597871839999,0.08251520160138606,0.28265936908759176
1772794041155980800,4.551980712890625,-0.13236439739763736,0.11677286051213741,0.25165903147235513
1772794041166026000,4.56202587890625,-0.14516951843500137,0.1165291148841381,0.23553090349212288
1772794041176071000,4.57207080078125,-0.1562391939818859,0.1305640699774027,0.22415303877890108
1772794041186116000,4.5821162109375,-0.09177578189969063,0.15523089372217655,0.20952983546890316
1772794041196161000,4.5921611328125,-0.03158580935299396,0.1589051983207464,0.22443981983102856
1772794041206205000,4.602204833984375,0.009895955592393875,0.20787761128246782,0.29081242653541267
1772794041216249900,4.612249755859375,0.016979191851615904,0.22951485807299613,0.3636898850891739
1772794041226295000,4.622294921875,0.01655541348159313,0.24559154812693595,0.3891042392656207
1772794041236339700,4.632339599609375,0.015374094742536544,0.2855307598054409,0.4152157819259912
1772794041246385000,4.642385009765625,-0.03204232094883919,0.26795009492933747,0.4319337655581534
1772794041256429800,4.652429931640625,-0.045912440869212146,0.2663473359078169,0.41198973255157467
1772794041266475000,4.66247509765625,-0.03482347609996796,0.26022739172279835,0.39174905468598004
1772794041276520000,4.67252001953125,-0.016029928302764892,0.21523381926417348,0.3612049364056438
1772794041286564900,4.68256494140625,0.016208792001008988,0.18214286604523658,0.31344065712466834
1772794041296609300,4.692609375,0.020226795470714567,0.16405483616888522,0.23621735138632355
1772794041306654200,4.702654296875,0.006485270366072654,0.13606675904691218,0.2046652251072228
1772794041316699400,4.712699462890625,-0.0092412910759449,0.12574702508449553,0.19740626695491373
1772794041326744000,4.722744140625,0.020398060384392736,0.11363982318341731,0.18636004534885287
1772794041336788200,4.732788330078125,0.014113281026482582,0.1000116953253746,0.18819142549447715
1772794041346833200,4.742833251953125,0.013412439280748367,0.07307868021428585,0.17570684164837003
1772794041356878300,4.75287841796875,0.015057283878326415,0.08233341529369353,0.1713875902097672
1772794041366923000,4.762923095703125,-0.005949263793230056,0.09873568404018879,0.1830698446970433
1772794041376968200,4.77296826171875,-0.033199674290418625,0.11474398503303528,0.18794621856175361
1772794041387013000,4.78301318359375,-0.03793488611876964,0.1142068094164133,0.20110738649517296
1772794041397058300,4.793058349609375,-0.02527998720705509,0.10753507656753063,0.26686748732440174
1772794041407103000,4.80310302734375,-0.04311550362706184,0.11082008958756923,0.27711620187722147
1772794041417148200,4.813148193359375,-0.05852116255164146,0.0943605376958847,0.2676747120540589
1772794041427193000,4.823193115234375,-0.07009469596743584,0.11277999148368835,0.27245339769795535
1772794041437238300,4.83323828125,-0.07306698977649212,0.0973714099496603,0.22160634997077286
1772794041447282200,4.8432822265625,-0.04835515784621239,0.07778291238248347,0.185452428984642
1772794041457327000,4.8533271484375,-0.016188333734869956,0.07100421202778816,0.15756510882340372
1772794041467372300,4.863372314453125,0.006236848562955856,0.023912205985188482,0.15024623717740176
1772794041477417200,4.873417236328125,0.048335868623852724,0.0008913958817720412,0.12883965733759103
1772794041487462400,4.88346240234375,0.07093640748858451,-0.003108487409353256,0.12348814024180173
1772794041497507000,4.893507080078125,0.06871113265454769,-0.021107085436582563,0.1367858671016991
1772794041507552300,4.90355224609375,0.056088382446765894,-0.03444587495923042,0.14561112472265958
1772794041517597200,4.91359716796875,0.05738309843242168,-0.05408581045269966,0.11895488072633742
1772794041527642400,4.923642333984375,0.06714929016530513,-0.06156652159690856,0.1028261682242155
1772794041537687000,4.93368701171875,0.0914326675504446,-0.07320785955190658,0.04728993976749479
1772794041547732200,4.943732177734375,0.11350479862689972,-0.09504092117547988,0.011425649377703666
1772794041557777200,4.953777099609375,0.11999649873375892,-0.10378653768897056,-0.019081717088818548
1772794041567821300,4.9638212890625,0.12813888865709305,-0.07655249380469321,-0.03362447557374835
1772794041577866000,4.973865966796875,0.09501754029989241,-0.07048515658974647,-0.018344342724978924
1772794041587911200,4.9839111328125,0.08291209196448325,-0.04692424826025963,-0.02538315532058477
1772794041597956000,4.9939560546875,0.08309095566272735,-0.03947334773242473,-0.05174501948021352
1772794041608001300,5.004001220703125,0.10333353322446345,-0.017383680999279023,-0.06612856881543994
1772794041618046200,5.014046142578125,0.10830255380868911,-0.02093640504479408,-0.07024995959438383
1772794041628091100,5.024091064453125,0.10401450122594832,-0.014307342293858527,-0.047620121569931506
1772794041638136000,5.034135986328125,0.09928981079161167,-0.00184825821518898,-0.028700901566445825
1772794041648181200,5.04418115234375,0.08319032438397407,-0.0007727379381656646,-0.05621785404533147
1772794041658226200,5.05422607421875,0.05414718525111675,-0.03494154952168464,-0.10994856745004654
1772794041668271000,5.06427099609375,0.07819967648983,-0.07306698977649212,-0.10627017119824886
1772794041678316000,5.07431591796875,0.139700147113204,-0.11051789177060127,-0.03804214588552713
1772794041688360200,5.084360107421875,0.18489654866755006,-0.1263806468129158,-0.005559826084226369
1772794041698405400,5.0944052734375,0.1807914514362812,-0.1470060862123966,0.025042671319842336
1772794041708450000,5.104449951171875,0.1245242052912712,-0.16544482922255993,-0.006933379459753632
1772794041718495200,5.1144951171875,0.06544482433497906,-0.18665654407739637,-0.01603767321780324
1772794041728540200,5.1245400390625,0.03756079210937023,-0.1990080761283636,-0.03580817628838122
1772794041738585300,5.13458544921875,0.031099487140774724,-0.19117957445979117,-0.011408040655776858
1772794041748630000,5.144630126953125,-0.007079144605994224,-0.1841203035980463,0.03893259191922843
1772794041758675200,5.15467529296875,0.005849895071983337,-0.13958850343227386,0.030393969219923017
1772794041768720100,5.16472021484375,0.031496962025761605,-0.0841343272358179,0.017123787954077124
1772794041778765300,5.174765380859375,0.08918342731893063,-0.035060207465291024,0.047866351415961975
1772794041788810200,5.184810302734375,0.15945698698461055,-0.01946340988278389,0.08892652994841337
1772794041798855200,5.194855224609375,0.15978198115527628,-0.005177694898843765,0.08982844722419976
1772794041808899000,5.204899169921875,0.10582710360586643,0.025388123756647108,0.040008550587669015
1772794041818944300,5.2149443359375,0.05090542685091495,0.03428045526444912,0.022736294073611496
1772794041828989200,5.2249892578125,0.017526888862252236,-0.008779518783092499,0.0703038086734712
1772794041839034000,5.2350341796875,0.0026285949379205704,-0.03256955969333648,0.13453092778176068
1772794041849079000,5.2450791015625,0.005294014754891396,-0.04190028261840343,0.18122253632992505
1772794041859124200,5.255124267578125,0.00818856715261936,-0.04933189392387867,0.23019136909507212
1772794041869169200,5.265169189453125,0.056982116416096684,-0.057739656785130496,0.2631988087490201
1772794041879214000,5.275214111328125,0.10405366419255734,-0.051371875318884846,0.2468225512266159
1772794041889259000,5.285259033203125,0.09573124152719974,-0.04255553165674209,0.1923524176314473
1772794041899304200,5.29530419921875,0.07030863097906112,-0.036058570852875706,0.13504640302322804
1772794041909349000,5.30534912109375,0.05632803642153739,-0.03355564812123775,0.052614568856358526
1772794041919394300,5.315394287109375,0.08690496099293231,-0.03547346444129944,0.03792399939857423
1772794041929438200,5.325438232421875,0.07008008292019367,-0.02968377512395382,0.03072992317602038
1772794041939483100,5.335483154296875,0.06687865653038025,-0.030828853505849838,0.05545914463251829
1772794041949528300,5.3455283203125,0.040539515659213064,-0.028905191966891286,0.0845629279114306
1772794041959573200,5.3555732421875,-0.0325298122048378,-0.003926233533024788,0.06513831566907465
1772794041969618200,5.3656181640625,-0.07251578563451766,0.0065343702048063276,0.07504274682886898
1772794041979663000,5.3756630859375,-0.09424480236172676,0.03866670752465725,0.06656235712282359
1772794041989708300,5.385708251953125,-0.08158230466544628,0.045892567124962806,0.07302103174291551
1772794041999753200,5.395753173828125,-0.04405892195701599,0.059606035178899765,0.0863182471461594
1772794042009798100,5.405798095703125,0.01796878741085529,0.060602645000815386,0.10856091248393059
1772794042019843000,5.415843017578125,0.02888239561319351,0.03912088103294372,0.07291866734698414
1772794042029888300,5.42588818359375,-0.005407996523380279,0.019271102181077002,-0.021716230310872196
1772794042039933200,5.43593310546875,-0.016584055054187773,-0.00497837293446064,-0.06157609314285219
1772794042049977000,5.44597705078125,-0.008766659301519394,-0.023978256958723066,-0.040480040556937456
1772794042060022000,5.45602197265625,0.013005027523636817,-0.07711597290635108,0.001968012137338519
1772794042070067200,5.466067138671875,0.0318850845605135,-0.09923077408075331,0.05087225523367524
1772794042080112000,5.476112060546875,0.07130640984475613,-0.10413783534467219,0.07396496152952313
1772794042090157300,5.4861572265625,0.06756605427265167,-0.10182488222718238,0.05213073086217045
1772794042100202000,5.496201904296875,0.06764554924964905,-0.09179974729716778,0.02264430494122207
1772794042110247200,5.5062470703125,0.10381810187101363,-0.08548398827910422,0.03005348521918058
1772794042120292000,5.5162919921875,0.12678338239490985,-0.07466331905722617,0.08275785125084222
1772794042130337300,5.526337158203125,0.15131868871450424,-0.07716390370130538,0.115545510674268
1772794042140382000,5.5363818359375,0.17133330273926256,-0.06093465343415737,0.1267410776231438
1772794042150427100,5.54642724609375,0.14797697707116603,-0.02822890014052391,0.1529272198896855
1772794042160472000,5.55647216796875,0.08704699981212616,0.0001654196947813034,0.17275624821446836
1772794042170516200,5.56651611328125,-0.003923895445466041,0.030076573833823204,0.1497076002560556
1772794042180561200,5.57656103515625,-0.07539923211634159,0.06448620843589306,0.12766418381743133
1772794042190606000,5.586606201171875,-0.11796411612331867,0.07380991709828376,0.11920629820413887
1772794042200651300,5.5966513671875,-0.13816519263088703,0.07746317890882491,0.12182400642186403
1772794042210696200,5.6066962890625,-0.12270400412678718,0.09893032982945442,0.13045914829820393
1772794042220741400,5.616741455078125,-0.0789455264210701,0.12690554746985436,0.14407390521802008
1772794042230786000,5.6267861328125,-0.06860884132385253,0.10579846203327178,0.16756963935680685
1772794042240831200,5.636831298828125,-0.05729191301763057,0.10394260503351688,0.18436616811789572
1772794042250876200,5.646876220703125,-0.012646131083369254,0.1033580831438303,0.2008018276773393
1772794042260921300,5.65692138671875,0.018835633373260496,0.10130641131103038,0.19920126061290502
1772794042270966000,5.666966064453125,0.03211889331638813,0.09664484924077987,0.22607480062171814
1772794042281011200,5.67701123046875,0.039302082818746566,0.10179682517647742,0.203706682273373
1772794042291055400,5.687055419921875,0.03199497467577457,0.13036474801301956,0.21295622972100972
1772794042301100500,5.6971005859375,0.07969605252742767,0.12379881362617015,0.22480872620865702
1772794042311145500,5.7071455078125,0.06719137574136257,0.135190560734272,0.247311942178756
1772794042321190700,5.717190673828125,0.05198036260604858,0.14779811337292192,0.2959877102814615
1772794042331235600,5.727235595703125,0.04317161772847175,0.1623819345206022,0.27712833070643245
1772794042341280500,5.737280517578125,0.04287584965229034,0.16096622250378131,0.2988018178541213
1772794042351325400,5.747325439453125,0.03996609968543052,0.1684872656583786,0.27528876725435253
1772794042361370600,5.75737060546875,0.02744622533023357,0.1319967331290245,0.26002653538845477
1772794042371415600,5.76741552734375,0.03337386181354522,0.09372925405502319,0.21903014280721544
1772794042381460500,5.77746044921875,-0.00042319384813308713,0.054038464179635044,0.16845190208405256
1772794042391505400,5.78750537109375,-0.04225099575221538,-0.0022270283997058867,0.1531052798703313
1772794042401550600,5.797550537109375,-0.05667991859912872,-0.005865092641115188,0.09882431217171252
1772794042411594800,5.8075947265625,-0.056041036173701285,0.014252981758117674,0.1375865159600973
1772794042421639400,5.817639404296875,-0.04184884469211101,0.021470073530077932,0.20733692853450775
1772794042431684600,5.8276845703125,-0.018151158240437507,0.0592950695335865,0.23919066810868678
1772794042441729500,5.8377294921875,-0.03665770578980446,0.09018003714084624,0.20988683221302926
1772794042451774700,5.847774658203125,-0.10664192712008952,0.04277063571214676,0.1404481890015304
1772794042461819600,5.857819580078125,-0.1576332786887884,0.03293780848383903,0.05422806846760213
1772794042471864600,5.867864501953125,-0.13226795128583907,0.07307809569239616,0.02007248169183731
1772794042481909500,5.877909423828125,-0.06601882483065127,0.07630348747968674,0.07012362980097532
1772794042491954700,5.88795458984375,-0.019350597158074377,0.02889408605098724,0.13944478411264716
1772794042501999600,5.89799951171875,-0.02052080998122692,0.009070026162266731,0.1417558375339955
1772794042512044500,5.90804443359375,-0.05602174695134163,0.0027320553123950956,0.08665259366706013
1772794042522088400,5.91808837890625,-0.09476794945299624,0.0011111761122941971,0.0005745850175619125
1772794042532133600,5.928133544921875,-0.08363222293257713,0.028114918372035023,-0.011887056344375013
1772794042542178600,5.938178466796875,-0.06899228768348693,0.027418752801418304,0.029052710678800938
1772794042552223500,5.948223388671875,-0.006130465579032898,-0.006675824502110481,0.07788067366853356
1772794042562268400,5.958268310546875,0.05333177721500396,0.027464345508813857,0.09650346800871193
1772794042572313600,5.968313720703125,0.11478139443397521,0.019222586864233015,0.11710574572831392
1772794042582358500,5.978358642578125,0.18349661874175072,0.009852116450667381,0.11089520065039396
1772794042592403700,5.98840380859375,0.20797698000371456,0.01329553490281105,0.11768822179138659
1772794042602448400,5.998448486328125,0.21134090347886084,0.007166238367557525,0.12399608976393937
1772794042612493600,6.00849365234375,0.19448212313652039,0.00801788676083088,0.07513137496039271
1772794042622538500,6.01853857421875,0.1584790818631649,-0.01054886654317379,0.05268573439642787
1772794042632583700,6.028583740234375,0.15807283914983272,-0.0033078093737363813,0.05421148265898228
1772794042642627600,6.038627685546875,0.17762042018473148,0.025843466308712957,0.05684489990249276
1772794042652672500,6.048672607421875,0.19869652596116064,0.029150106638669966,0.09156593854129313
1772794042662717700,6.0587177734375,0.16367723502814768,0.037407647374272344,0.13760902005285025
1772794042672762600,6.0687626953125,0.1530541342049837,0.03707330085337162,0.17412044923976064
1772794042682807600,6.0788076171875,0.14927403114438056,0.07221709494888782,0.20485329502522945
1772794042692852500,6.0888525390625,0.13093874850869178,0.08416296880841255,0.1866128510661423
1772794042702897700,6.098897705078125,0.14206804528832434,0.08698094883859157,0.17915530160181223
1772794042712942600,6.108942626953125,0.15854221022725104,0.08152268343269825,0.19744060761593282
1772794042722987800,6.11898779296875,0.120820674598217,0.08066168268918991,0.21531433715447781
1772794042733032400,6.129032470703125,0.06829846020042896,0.09424947853684425,0.21533545300774276
1772794042743077600,6.13907763671875,-0.037862405404448504,0.08564414727687836,0.20803389782272277
1772794042753122600,6.14912255859375,-0.1363286248534918,0.11146306366622448,0.21819434957019984
1772794042763167700,6.159167724609375,-0.2071253316104412,0.13019523666501046,0.20521664844490586
1772794042773211400,6.16921142578125,-0.19997838246524333,0.129604869556427,0.18793292068876324
1772794042783256600,6.179256591796875,-0.21633447398245334,0.13883037854135036,0.17591281254924832
1772794042793301500,6.189301513671875,-0.19886486826539038,0.1311386549949646,0.18063260761275887
1772794042803346700,6.1993466796875,-0.17607611335217951,0.13699673337340354,0.20811047019027173
1772794042813391400,6.209391357421875,-0.17283377043008805,0.13019699023067952,0.22662388587184248
1772794042823436500,6.2194365234375,-0.14975684622526167,0.12068272743225097,0.25052447448447346
1772794042833481500,6.2294814453125,-0.11135843424797058,0.10169862549901008,0.23762824109755454
1772794042843526700,6.239526611328125,-0.08548632636666298,0.09781623110771179,0.24637451519817113
1772794042853571600,6.249571533203125,-0.019416063609719276,0.08883914392590522,0.20702567062824964
1772794042863616500,6.259616455078125,0.03909223946034908,0.07896832277476787,0.17330489507317542
1772794042873661400,6.269661376953125,0.0963467430770397,0.08467734807133674,0.1634011945657432
1772794042883706600,6.27970654296875,0.12661445556879042,0.08474749069809913,0.19555947004444896
1772794042893750500,6.28975048828125,0.14965747750401495,0.08764262761771678,0.19002865085899828
1772794042903795500,6.29979541015625,0.17166180404126644,0.07182429623901844,0.18414134638607502
1772794042913840600,6.309840576171875,0.18102759827971457,0.07450023745000361,0.17877558156922457
1772794042923885600,6.319885498046875,0.17520283764898775,0.08775368677675724,0.15400018288344144
1772794042933930800,6.3299306640625,0.15053718294799326,0.09699030167758464,0.1880073741644621
1772794042943975400,6.339975341796875,0.10611351933181286,0.12127192549705505,0.20136939843222498
1772794042954020600,6.3500205078125,0.06272212137281895,0.10802549043297767,0.15504998419731855
1772794042964065500,6.3600654296875,0.023272154515981674,0.11379881313741207,0.11958419160582125
1772794042974110700,6.37011083984375,-0.029093408015370366,0.10052899719774723,0.07108721413612365
1772794042984155600,6.38015576171875,-0.050232057633996005,0.09402560665309428,0.06483940578773617
1772794042994200600,6.39020068359375,-0.05793664066195488,0.04703296933174133,0.07434168588742614
1772794043004245500,6.40024560546875,-0.06191255855560302,-0.0030950434058904645,0.10978446292951702
1772794043014289700,6.41028955078125,-0.07293138069808483,-0.048641573572158814,0.09361563761271535
1772794043024334300,6.420334228515625,-0.07504618089497089,-0.07592822442650794,0.05761982979774475
1772794043034379500,6.430379638671875,-0.04643967961370945,-0.1270563541173935,0.00023256664685904977
1772794043044424400,6.440424560546875,-0.0004629413366317749,-0.17137071214020252,-0.037956294232979415
1772794043054469600,6.4504697265625,0.04786532850265503,-0.18623685736060142,-0.08309585103355348
1772794043064514600,6.4605146484375,0.12428221322894095,-0.18195289643108845,-0.08932824261710047
1772794043074559500,6.4705595703125,0.19483634340167044,-0.17107845119535922,-0.06635748220048844
1772794043084604400,6.4806044921875,0.2085153246641159,-0.13452771291136742,-0.029417744598910212
1772794043094649600,6.490649658203125,0.24378186835646629,-0.09573416413664818,-0.017187793100997804
1772794043104694500,6.500694580078125,0.23800211591124534,-0.03337736894488334,0.005455488926917314
1772794043114739700,6.51073974609375,0.24036592243313787,-0.017193126863241193,0.06058489014841616
1772794043124784400,6.520784423828125,0.23678631038069722,0.006319850671291351,0.07124393906779587
1772794043134828500,6.53082861328125,0.2388181084692478,0.056357262516021724,0.07098470360971987
1772794043144873700,6.540873779296875,0.20489128894805908,0.0471346761405468,0.08635930980890989
1772794043154918400,6.55091845703125,0.13688333612680434,0.032927287089824675,0.12283544848673045
1772794043164963600,6.560963623046875,0.08049977012574672,0.011558920368552206,0.09489303713738918
1772794043175008500,6.571008544921875,-0.0017594108879566191,-0.027708091136813162,0.019407222716137765
1772794043185053700,6.5810537109375,-0.09139525814950465,-0.05961480300724506,-0.023519115014374255
1772794043195098600,6.5910986328125,-0.13985562993586062,-0.07442015795111656,-0.04551284709237516
1772794043205143600,6.6011435546875,-0.14734803151786327,-0.07220657355487346,-0.041679406409338114
1772794043215188500,6.6111884765625,-0.1399661045730114,-0.08022562935948371,-0.017023834710940718
1772794043225233700,6.621233642578125,-0.11158172160983085,-0.09433949490785598,0.01424194890744984
1772794043235278600,6.631278564453125,-0.07456570390164852,-0.08953647854030132,0.01919628337919712
1772794043245323800,6.64132373046875,-0.03912906433939933,-0.05462240154743194,0.012631152709946036
1772794043255368400,6.651368408203125,0.016598083579540252,-0.03244914818406105,0.03346541255451738
1772794043265412600,6.66141259765625,0.11909048980474471,0.001975099465250969,0.10156696194335818
1772794043275457500,6.67145751953125,0.20195172836482525,0.005327917024493217,0.1541273894596845
1772794043285502500,6.68150244140625,0.23333938479721544,0.0069265843927860254,0.19127667815871535
1772794043295547100,6.691547119140625,0.2643804197490215,0.03505494676828384,0.17950053484290837
1772794043305592300,6.70159228515625,0.24629472796022892,0.06425824489891528,0.1624615025628358
1772794043315637200,6.71163720703125,0.21167291191220283,0.08534604111313819,0.16229389091096819
1772794043325682400,6.721682373046875,0.13975859930217266,0.09591302783489226,0.1549585795868188
1772794043335727000,6.73172705078125,0.10854805300235748,0.0922995135128498,0.1603058588989079
1772794043345772300,6.741772216796875,0.07319207746088505,0.11801730761528015,0.17538754656612873
1772794043355817200,6.751817138671875,0.033362171375751495,0.12314005745649337,0.18930830069519577
1772794043365862400,6.7618623046875,0.01058978307545185,0.10741232697069644,0.13873232499435542
1772794043375907000,6.771906982421875,0.007552607336640357,0.07268354341685772,0.12284282807558775
1772794043385951200,6.781951171875,-0.027495909690856933,0.0695557667851448,0.18732684455439447
1772794043395996400,6.791996337890625,-0.05806757356524467,0.04694470652639866,0.19657186195738613
1772794043406041300,6.802041259765625,-0.11435761606395244,0.054258828932046886,0.20540201494917273
1772794043416086300,6.812086181640625,-0.13918342976272105,0.060034489724040026,0.1790437309861183
1772794043426131200,6.822131103515625,-0.14033084623217582,0.058284431186318396,0.14557714938782154
1772794043436176400,6.83217626953125,-0.0935930604547262,0.07563537895977497,0.14315152967609465
1772794043446221300,6.84222119140625,-0.02925239796936512,0.09276830006837844,0.1810961334712803
1772794043456266500,6.8522666015625,0.07690846763551235,0.13746201279759407,0.24818434109911322
1772794043466311200,6.862311279296875,0.1561824953585863,0.13077858951091764,0.24533428543023764
1772794043476356400,6.8723564453125,0.13713935671448707,0.04048223251402378,0.14504633044674992
1772794043486401300,6.8824013671875,0.08638649007678031,-0.002274959194660187,0.09162402540408074
1772794043496446500,6.892446533203125,0.05008884977102279,-0.007721534162759781,0.037106034079194064
1772794043506490000,6.902489990234375,0.010458265650272369,0.011664134308695792,0.08804477867782115
1772794043516535300,6.912535400390625,-0.007609305959939956,0.015897826355695723,0.12934782605543732
1772794043526580200,6.922580322265625,-0.07867255469858646,0.018100304836034774,0.1165629440885037
1772794043536625400,6.93262548828125,-0.1057277348846197,0.025043255841732025,0.09868095817826687
1772794043546670000,6.942670166015625,-0.1104208611369133,0.020670447584986686,0.11375760434418916
1772794043556715300,6.95271533203125,-0.10228022477924824,-0.0020908347994089125,0.14811609328091144
1772794043566760200,6.96276025390625,-0.05003799636662006,-0.0062146367311477655,0.18296514221355317
1772794043576805400,6.972805419921875,-0.005651742151379585,0.002592354580760002,0.17587898334488272
1772794043586850300,6.982850341796875,0.041346740388870235,0.0014203881919384001,0.14842143290303647
1772794043596895200,6.992895263671875,0.06815759042501449,-0.002559621354937553,0.11731032838970422
