time,seconds_elapsed,z,y,x
1772794036675950300,0.071950439453125,-0.13496647775173187,0.050486013293266296,0.1317477822303772
1772794036685994500,0.081994384765625,-0.13062633574008942,0.03877342864871025,0.15656737983226776
1772794036696039400,0.092039306640625,-0.1292116641998291,0.024846382439136505,0.1768888235092163
1772794036706084400,0.10208447265625,-0.13001859188079834,0.014100526459515095,0.18840326368808746
1772794036716129300,0.11212939453125,-0.12628218531608582,0.005776438862085342,0.19866684079170227
1772794036726174500,0.122174560546875,-0.12303632497787476,-0.007447753567248583,0.19846950471401215
1772794036736219400,0.132219482421875,-0.11760533601045609,-0.03351360559463501,0.1871863156557083
1772794036746264300,0.142264404296875,-0.11186489462852478,-0.04495986923575401,0.16555452346801758
1772794036756309200,0.152309326171875,-0.09819089621305466,-0.04646412655711174,0.13593581318855286
1772794036766354400,0.1623544921875,-0.0884181559085846,-0.025815043598413467,0.10161592066287994
1772794036776399400,0.1723994140625,-0.07128524035215378,-0.00809473730623722,0.06681608408689499
1772794036786443300,0.182443359375,-0.05801337584853172,0.01125712227076292,0.027208222076296806
1772794036796488200,0.19248828125,-0.043771594762802124,0.019128359854221344,-0.013314754702150822
1772794036806533400,0.202533447265625,-0.02954205870628357,0.01059505995362997,-0.04466228932142258
1772794036816578300,0.212578369140625,-0.010746265761554241,-0.012699504382908344,-0.06380520761013031
1772794036826623500,0.22262353515625,0.003072344232350588,-0.04078599810600281,-0.07072969526052475
1772794036836668200,0.232668212890625,0.01967155933380127,-0.06289071589708328,-0.07850247621536255
1772794036846713300,0.24271337890625,0.02317041903734207,-0.07584566622972488,-0.07876347005367279
1772794036856758300,0.25275830078125,0.023715568706393242,-0.0644736960530281,-0.07674159854650497
1772794036866803500,0.262803466796875,0.035653989762067795,-0.04495938867330551,-0.06759124249219894
1772794036876848000,0.27284814453125,0.05440237745642662,-0.03544449806213379,-0.06897760182619095
1772794036886892300,0.282892333984375,0.07985873520374298,-0.031691037118434906,-0.06942261010408401
1772794036896937500,0.2929375,0.10239147394895554,-0.02901855856180191,-0.06425533443689346
1772794036906982400,0.302982421875,0.12021467834711075,-0.043544504791498184,-0.06412643939256668
1772794036917027300,0.31302734375,0.12042959779500961,-0.05877262353897095,-0.051938917487859726
1772794036927072300,0.323072265625,0.11004114151000977,-0.06069542467594147,-0.031054673716425896
1772794036937117400,0.333117431640625,0.10207775235176086,-0.06656848639249802,0.000059406389482319355
1772794036947162400,0.343162353515625,0.09312580525875092,-0.08354640752077103,0.023889638483524323
1772794036957207600,0.35320751953125,0.0971815288066864,-0.10022977739572525,0.05286557599902153
1772794036967252200,0.363252197265625,0.09506271779537201,-0.09956665337085724,0.07311199605464935
1772794036977297400,0.37329736328125,0.09111538529396057,-0.08788459002971649,0.08253908902406693
1772794036987341300,0.38334130859375,0.08528519421815872,-0.040957290679216385,0.07368620485067368
1772794036997386200,0.39338623046875,0.08544205129146576,0.029020778834819794,0.06074843555688858
1772794037007431200,0.40343115234375,0.08615285158157349,0.11848541349172592,0.031220106407999992
1772794037017476400,0.413476318359375,0.08473684638738632,0.19272710382938385,0.00025242031551897526
1772794037027521300,0.423521240234375,0.07875751703977585,0.2434414178133011,-0.04568710923194885
1772794037037566500,0.43356640625,0.09263019263744354,0.2700190246105194,-0.09534002095460892
1772794037047611100,0.443611083984375,0.11203397810459137,0.2699660062789917,-0.16807520389556885
1772794037057656300,0.45365625,0.13319465517997742,0.25329309701919556,-0.23201219737529755
1772794037067701200,0.463701171875,0.14859998226165771,0.21132725477218628,-0.2899969518184662
1772794037077746400,0.473746337890625,0.15808722376823425,0.16383308172225952,-0.3418671190738678
1772794037087791400,0.483791259765625,0.1569463312625885,0.12054499238729477,-0.3742538094520569
1772794037097835300,0.493835205078125,0.14155139029026031,0.12000107020139694,-0.37601032853126526
1772794037107880400,0.50388037109375,0.11118203401565552,0.1752246469259262,-0.36385378241539
1772794037117925400,0.51392529296875,0.04710930958390236,0.2929668724536896,-0.3396470844745636
1772794037127970300,0.52397021484375,-0.04339822009205818,0.43568381667137146,-0.2969347834587097
1772794037138015200,0.53401513671875,-0.15056754648685455,0.4954245686531067,-0.2979452610015869
1772794037148060400,0.544060302734375,-0.24055176973342896,0.49762624502182007,-0.3420378863811493
1772794037158105300,0.554105224609375,-0.2855128347873688,0.47823506593704224,-0.4087695777416229
1772794037168150500,0.564150634765625,-0.26275399327278137,0.41337698698043823,-0.48006772994995117
1772794037178195200,0.5741953125,-0.16462211310863495,0.31852251291275024,-0.5384103059768677
1772794037188240400,0.584240478515625,-0.001188182272017002,0.22070755064487457,-0.5569238066673279
1772794037198284300,0.5942841796875,0.19767510890960693,0.14784665405750275,-0.5235320329666138
1772794037208329500,0.60432958984375,0.3863734006881714,0.11260583996772766,-0.4505763351917267
1772794037218374100,0.6143740234375,0.5332025289535522,0.10489918291568756,-0.3602072298526764
1772794037228419300,0.62441943359375,0.6348686814308167,0.12193036824464798,-0.24774782359600067
1772794037238464300,0.63446435546875,0.6889950633049011,0.15505672991275787,-0.11146337538957596
1772794037248509400,0.644509521484375,0.6978721618652344,0.16505716741085052,0.03960363566875458
1772794037258554000,0.65455419921875,0.6762760281562805,0.13893982768058777,0.15365037322044373
1772794037268599300,0.664599365234375,0.6336308717727661,0.08794215321540833,0.21495340764522552
1772794037278644200,0.674644287109375,0.5809420943260193,0.028381777927279472,0.24128711223602295
1772794037288689400,0.684689453125,0.5182453989982605,-0.03825344145298004,0.23725348711013794
1772794037298734300,0.694734375,0.4360477328300476,-0.10635234415531158,0.22397679090499878
1772794037308778500,0.704778564453125,0.3443993031978607,-0.1268480271100998,0.22370193898677826
1772794037318823400,0.714823486328125,0.24845387041568756,-0.10114265978336334,0.2229003757238388
1772794037328868400,0.724868408203125,0.17310665547847748,-0.05387820675969124,0.20117059350013733
1772794037338913500,0.73491357421875,0.12670719623565674,0.004833838436752558,0.16073229908943176
1772794037348958500,0.74495849609375,0.10463625192642212,0.09038122743368149,0.10971759259700775
1772794037359003400,0.75500341796875,0.08966262638568878,0.18694302439689636,0.046691637486219406
1772794037369048300,0.76504833984375,0.07017521560192108,0.2893221378326416,-0.00919000431895256
1772794037379093500,0.775093505859375,0.04203625023365021,0.38758620619773865,-0.052351657301187515
1772794037389138400,0.785138427734375,0.014435783959925175,0.5569073557853699,-0.10935581475496292
1772794037399183600,0.79518359375,0.004911524243652821,0.5404592752456665,-0.14301232993602753
1772794037409227300,0.805227294921875,0.009593361057341099,0.533115565776825,-0.14586058259010315
1772794037419272400,0.8152724609375,0.0014062681002542377,0.5075268745422363,-0.1303136795759201
1772794037429317400,0.8253173828125,-0.023848753422498703,0.45947250723838806,-0.11153893172740936
1772794037439362600,0.835362548828125,-0.04544246196746826,0.45541784167289734,-0.07340874522924423
1772794037449407200,0.8454072265625,-0.051837511360645294,0.4914719760417938,-0.031849589198827744
1772794037459452400,0.855452392578125,-0.04514152929186821,0.49635860323905945,-0.010696787387132645
1772794037469497300,0.865497314453125,-0.038135550916194916,0.4805937707424164,0.006356497295200825
1772794037479542500,0.87554248046875,-0.034815914928913116,0.47563982009887695,0.02325267530977726
1772794037489587200,0.885587158203125,-0.04793651029467583,0.4723857045173645,0.0448106974363327
1772794037499632400,0.89563232421875,-0.05946240946650505,0.45281174778938293,0.07455842196941376
1772794037509676500,0.905676513671875,-0.06972010433673859,0.3939073979854584,0.11706247180700302
1772794037519721500,0.915721435546875,-0.07577133178710938,0.31266820430755615,0.1565333902835846
1772794037529766400,0.925766357421875,-0.08007180690765381,0.24652807414531708,0.18970651924610138
1772794037539811300,0.935811279296875,-0.08030243963003159,0.22023484110832214,0.21514345705509186
1772794037549856500,0.9458564453125,-0.07786484807729721,0.23683831095695496,0.21924498677253723
1772794037559901400,0.9559013671875,-0.05764400213956833,0.29130831360816956,0.2140744924545288
1772794037569946600,0.965946533203125,-0.0271470807492733,0.3613521158695221,0.20672790706157684
1772794037579991300,0.9759912109375,-0.018753329291939735,0.4142865240573883,0.19505728781223297
1772794037590036500,0.986036376953125,-0.042335089296102524,0.4449120759963989,0.18055452406406403
1772794037600081400,0.996081298828125,-0.08429638296365738,0.475809782743454,0.1665344387292862
1772794037610126600,1.006126708984375,-0.1443120539188385,0.5041753649711609,0.12780727446079254
1772794037620170200,1.016170166015625,-0.1972154825925827,0.5336242914199829,0.08019840717315674
1772794037630215400,1.02621533203125,-0.23498815298080444,0.5758795738220215,0.05094091594219208
1772794037640260400,1.03626025390625,-0.2572380602359772,0.6189595460891724,0.030193837359547615
1772794037650305500,1.046305419921875,-0.2710103392601013,0.638632595539093,0.024188676849007607
1772794037660350200,1.05635009765625,-0.2801761329174042,0.5964105725288391,0.02633415348827839
1772794037670395400,1.0663955078125,-0.2889414131641388,0.5355932712554932,0.03008308634161949
1772794037680440300,1.0764404296875,-0.29168418049812317,0.4709789454936981,0.02870025485754013
1772794037690485500,1.086485595703125,-0.2795971632003784,0.4018382430076599,0.02706107869744301
1772794037700530400,1.096530517578125,-0.24758277833461761,0.32610470056533813,0.03932353854179382
1772794037710575400,1.106575439453125,-0.20990996062755585,0.24561280012130737,0.06041417643427849
1772794037720620300,1.116620361328125,-0.1736219972372055,0.18299132585525513,0.10116521269083023
1772794037730664400,1.12666455078125,-0.1380821168422699,0.1565978080034256,0.17051127552986145
1772794037740709400,1.13670947265625,-0.10906323790550232,0.12200425565242767,0.2526644468307495
1772794037750754300,1.14675439453125,-0.08151710033416748,0.04982513189315796,0.31369131803512573
1772794037760799500,1.156799560546875,-0.04651039093732834,-0.053062912076711655,0.3139060139656067
1772794037770844400,1.166844482421875,0.007278271485120058,-0.16282163560390472,0.25489091873168945
1772794037780889600,1.1768896484375,0.08217408508062363,-0.26377347111701965,0.134402334690094
1772794037790934300,1.186934326171875,0.16347214579582214,-0.2983418405056,-0.015449745580554008
1772794037800979500,1.1969794921875,0.23496656119823456,-0.2760818898677826,-0.17952397465705872
1772794037811024400,1.2070244140625,0.28425368666648865,-0.22484612464904785,-0.3212968111038208
1772794037821069600,1.217069580078125,0.315089613199234,-0.13499213755130768,-0.4337320029735565
1772794037831113200,1.22711328125,0.32272037863731384,-0.0031129319686442614,-0.5011443495750427
1772794037841158400,1.237158447265625,0.30958861112594604,0.19376055896282196,-0.5218576788902283
1772794037851203300,1.247203369140625,0.304293692111969,0.3678615093231201,-0.5056371688842773
1772794037861248500,1.25724853515625,0.3271644115447998,0.40000662207603455,-0.4879760146141052
1772794037871293200,1.267293212890625,0.3853541910648346,0.3743462860584259,-0.46939992904663086
1772794037881338400,1.27733837890625,0.45503607392311096,0.37471672892570496,-0.42903971672058105
1772794037891383300,1.28738330078125,0.503781795501709,0.3780938684940338,-0.3949294090270996
1772794037901428500,1.297428466796875,0.5235016942024231,0.4178796112537384,-0.37897056341171265
1772794037911473400,1.307473388671875,0.5028560757637024,0.47287362813949585,-0.37105056643486023
1772794037921518300,1.317518310546875,0.4627635180950165,0.5280681252479553,-0.35581696033477783
1772794037931563300,1.327563232421875,0.4050424098968506,0.5888702273368835,-0.32542043924331665
1772794037941607400,1.337607421875,0.33910441398620605,0.6603139638900757,-0.30244752764701843
1772794037951652600,1.347652587890625,0.26563525199890137,0.7542337775230408,-0.2991425693035126
1772794037961697300,1.357697265625,0.19632568955421448,0.837754487991333,-0.2976263761520386
1772794037971742500,1.367742431640625,0.12715460360050201,0.8661442995071411,-0.2979406416416168
1772794037981787400,1.377787353515625,0.07604055106639862,0.8535867929458618,-0.3041631281375885
1772794037991832600,1.38783251953125,0.0489514097571373,0.8068490624427795,-0.3255784213542938
1772794038001877200,1.397877197265625,0.05595259368419647,0.763951301574707,-0.3692043423652649
1772794038011922400,1.40792236328125,0.08396612107753754,0.710081160068512,-0.4396311044692993
1772794038021967400,1.41796728515625,0.12564831972122192,0.6173080205917358,-0.5457587838172913
1772794038032012500,1.428012451171875,0.17676317691802979,0.4843747019767761,-0.6699982285499573
1772794038042056400,1.438056396484375,0.2276601791381836,0.3419274389743805,-0.7995969653129578
1772794038052101400,1.448101318359375,0.26300325989723206,0.19525624811649323,-0.9318564534187317
1772794038062146300,1.458146240234375,0.2904638946056366,0.0480148121714592,-1.0413076877593994
1772794038072191500,1.46819140625,0.29456332325935364,-0.08126141875982285,-1.0983835458755493
1772794038082236400,1.478236328125,0.26774314045906067,-0.19239673018455505,-1.096490502357483
1772794038092281300,1.48828125,0.2249634563922882,-0.25803354382514954,-1.017803430557251
1772794038102326300,1.498326171875,0.19849057495594025,-0.2547644376754761,-0.8469577431678772
1772794038112371500,1.508371337890625,0.19347424805164337,-0.2061242014169693,-0.6119489669799805
1772794038122416400,1.51841650390625,0.20201340317726135,-0.13959093391895294,-0.34995701909065247
1772794038132461300,1.52846142578125,0.2172754555940628,-0.07009147852659225,-0.10277707874774933
1772794038142506200,1.53850634765625,0.24200449883937836,-0.0016756746917963028,0.10520558059215546
1772794038152550400,1.54855029296875,0.2680304944515228,0.02288825809955597,0.2639179825782776
1772794038162595600,1.558595703125,0.29568690061569214,-0.012232442386448383,0.39403823018074036
1772794038172640300,1.56864013671875,0.30860456824302673,-0.04558240994811058,0.5036293864250183
1772794038182685400,1.578685546875,0.28853070735931396,-0.08599438518285751,0.5892120599746704
1772794038192730400,1.58873046875,0.26311537623405457,-0.1397865116596222,0.6439592242240906
1772794038202775600,1.598775634765625,0.2665732204914093,-0.17528533935546875,0.6776431202888489
1772794038212820500,1.608820556640625,0.27914705872535706,-0.18040846288204193,0.6822788715362549
1772794038222865400,1.618865478515625,0.2808368504047394,-0.196398064494133,0.6552574038505554
1772794038232910300,1.628910400390625,0.2712255120277405,-0.21025796234607697,0.6025731563568115
1772794038242955500,1.63895556640625,0.24081672728061676,-0.2094511240720749,0.5308854579925537
1772794038253000400,1.64900048828125,0.19495895504951477,-0.18686538934707642,0.44476979970932007
1772794038263044400,1.65904443359375,0.14157801866531372,-0.16476935148239136,0.35924744606018066
1772794038273089500,1.669089599609375,0.08422019332647324,-0.17402224242687225,0.2827734351158142
1772794038283134500,1.679134521484375,0.0353756882250309,-0.18001212179660797,0.22649402916431427
1772794038293180000,1.689179931640625,-0.0003591395798139274,-0.1737089604139328,0.1874677985906601
1772794038303225000,1.69922509765625,-0.0378846749663353,-0.19547635316848755,0.16304031014442444
1772794038313270000,1.70927001953125,-0.07761238515377045,-0.20131400227546692,0.14891889691352844
1772794038323315200,1.719315185546875,-0.11384788155555725,-0.1828938126564026,0.15406231582164764
1772794038333359900,1.72935986328125,-0.1511036455631256,-0.1691119521856308,0.1570274829864502
1772794038343405000,1.739405029296875,-0.17970679700374603,-0.1545935869216919,0.1589277684688568
1772794038353450000,1.749449951171875,-0.19780270755290985,-0.13710246980190277,0.17309550940990448
1772794038363495200,1.7594951171875,-0.20585396885871887,-0.12077043205499649,0.1959502100944519
1772794038373539000,1.7695390625,-0.2149452120065689,-0.09867764264345169,0.22634060680866241
1772794038383584000,1.779583984375,-0.22246012091636658,-0.06368391215801239,0.2640256881713867
1772794038393629200,1.789629150390625,-0.23040352761745453,-0.031281497329473495,0.30903205275535583
1772794038403674000,1.799674072265625,-0.24579153954982758,-0.016399387270212173,0.35698574781417847
1772794038413719000,1.809718994140625,-0.2563062310218811,0.002800937741994858,0.4155425429344177
1772794038423764000,1.819763916015625,-0.24280107021331787,0.0011062142439186573,0.47664904594421387
1772794038433809200,1.82980908203125,-0.2133457064628601,-0.037671275436878204,0.5493690371513367
1772794038443854000,1.83985400390625,-0.1879865527153015,-0.07843351364135742,0.6355109214782715
1772794038453899300,1.849899169921875,-0.19590626657009125,-0.09685567021369934,0.7221757769584656
1772794038463944000,1.85994384765625,-0.23307600617408752,-0.10620512068271637,0.7881820797920227
1772794038473988000,1.869988037109375,-0.29561927914619446,-0.1515536904335022,0.828502357006073
1772794038484033000,1.880032958984375,-0.3626292049884796,-0.2246910184621811,0.8474396467208862
1772794038494078000,1.890077880859375,-0.42389950156211853,-0.30753079056739807,0.8361342549324036
1772794038504123000,1.900122802734375,-0.4707269072532654,-0.37460169196128845,0.8100492358207703
1772794038514168000,1.91016796875,-0.5236460566520691,-0.3995959758758545,0.7792127728462219
1772794038524213000,1.920212890625,-0.5723158717155457,-0.439028263092041,0.749505341053009
1772794038534258200,1.930258056640625,-0.6183211803436279,-0.5026540756225586,0.720215916633606
1772794038544302800,1.940302734375,-0.6688232421875,-0.5810838937759399,0.690438449382782
1772794038554348000,1.95034814453125,-0.7382147908210754,-0.6641346216201782,0.6584951281547546
1772794038564393000,1.96039306640625,-0.8164536952972412,-0.7549713850021362,0.6345771551132202
1772794038574438100,1.970438232421875,-0.8899515867233276,-0.8461577296257019,0.6295903921127319
1772794038584482000,1.98048193359375,-0.9486580491065979,-0.9218879342079163,0.6150716543197632
1772794038594527000,1.99052685546875,-0.9794028997421265,-0.971447765827179,0.5906850695610046
1772794038604572200,2.000572265625,-0.9932628273963928,-0.9871187210083008,0.5653945803642273
1772794038614617000,2.0106171875,-0.9916063547134399,-0.9864111542701721,0.5426858067512512
1772794038624662000,2.020662109375,-0.9803566336631775,-0.9946584105491638,0.520291268825531
1772794038634707000,2.03070703125,-0.9596670269966125,-1.0063838958740234,0.51603102684021
1772794038644752100,2.040752197265625,-0.9372410774230957,-1.0253852605819702,0.5261843800544739
1772794038654797000,2.050797119140625,-0.9264752864837646,-1.050416350364685,0.5564661026000977
1772794038664842200,2.06084228515625,-0.9391266107559204,-1.085268497467041,0.6119523048400879
1772794038674887000,2.070886962890625,-0.9371185898780823,-1.0890973806381226,0.6701687574386597
1772794038684931000,2.08093115234375,-0.9365769028663635,-1.0661170482635498,0.7206214666366577
1772794038694976000,2.09097607421875,-0.9324788451194763,-1.0337806940078735,0.7498707175254822
1772794038705021200,2.101021240234375,-0.9387574791908264,-0.9822777509689331,0.7559916973114014
1772794038715065900,2.11106591796875,-0.9525486826896667,-0.886732280254364,0.7391730546951294
1772794038725111000,2.121111083984375,-0.9660874009132385,-0.7871731519699097,0.7003834247589111
1772794038735156000,2.131156005859375,-0.9631981253623962,-0.7299250364303589,0.6373120546340942
1772794038745201200,2.141201171875,-0.935116708278656,-0.6707162261009216,0.5591695308685303
1772794038755245800,2.151245849609375,-0.8814108371734619,-0.6016013622283936,0.47628340125083923
1772794038765291000,2.161291015625,-0.8113963603973389,-0.5260955691337585,0.3916822671890259
1772794038775336000,2.1713359375,-0.7232792973518372,-0.4698408544063568,0.3024682104587555
1772794038785381000,2.181381103515625,-0.6306878328323364,-0.4158652722835541,0.2150321900844574
1772794038795425000,2.191425048828125,-0.5121909976005554,-0.34666916728019714,0.12748503684997559
1772794038805470000,2.201469970703125,-0.36082756519317627,-0.2884323298931122,0.018626581877470016
1772794038815515100,2.21151513671875,-0.23950807750225067,-0.21625135838985443,-0.101381316781044
1772794038825560000,2.22156005859375,-0.18038536608219147,-0.12694191932678223,-0.22287693619728088
1772794038835605200,2.231605224609375,-0.15098406374454498,-0.052575815469026566,-0.3230147063732147
1772794038845650000,2.24164990234375,-0.13251584768295288,0.02777676098048687,-0.4086192846298218
1772794038855695000,2.251695068359375,-0.13065801560878754,0.09647699445486069,-0.46616992354393005
1772794038865740000,2.261739990234375,-0.14755365252494812,0.13925929367542267,-0.49323371052742004
1772794038875785200,2.27178515625,-0.17364516854286194,0.14520905911922455,-0.49377724528312683
1772794038885830000,2.281829833984375,-0.212083101272583,0.13321168720722198,-0.4593430161476135
1772794038895875000,2.291875,-0.247965469956398,0.11080224812030792,-0.3999108672142029
1772794038905919000,2.3019189453125,-0.2844958007335663,0.08438245952129364,-0.331204891204834
1772794038915964200,2.311964111328125,-0.3133854866027832,0.04433571174740791,-0.24515336751937866
1772794038926008800,2.3220087890625,-0.33784982562065125,-0.0007290276698768139,-0.15746267139911652
1772794038936054000,2.332053955078125,-0.35048624873161316,-0.054839134216308594,-0.06572077423334122
1772794038946099000,2.342098876953125,-0.3534572720527649,-0.10735911875963211,0.01915004290640354
1772794038956144000,2.35214404296875,-0.350608229637146,-0.1567053496837616,0.08515463024377823
1772794038966189000,2.36218896484375,-0.3314917981624603,-0.19183938205242157,0.14285461604595184
1772794038976234000,2.37223388671875,-0.29997408390045166,-0.2025870978832245,0.17328177392482758
1772794038986279000,2.38227880859375,-0.25731131434440613,-0.20028553903102875,0.18793396651744843
1772794038996324000,2.392323974609375,-0.21793274581432343,-0.18888188898563385,0.17866510152816772
1772794039006369000,2.402369140625,-0.1767331063747406,-0.16429270803928375,0.157578706741333
1772794039016413000,2.412412841796875,-0.14130188524723053,-0.12663081288337708,0.13712988793849945
1772794039026458000,2.4224580078125,-0.1133703887462616,-0.09942065924406052,0.11172209680080414
1772794039036503000,2.4325029296875,-0.08400477468967438,-0.07184948772192001,0.08348619937896729
1772794039046548200,2.44254833984375,-0.060748182237148285,-0.046200163662433624,0.06056928634643555
1772794039056593000,2.452593017578125,-0.03950228542089462,-0.01957227848470211,0.04096895456314087
1772794039066638000,2.46263818359375,-0.009753711521625519,0.007094590459018946,0.025719789788126945
1772794039076683000,2.47268310546875,0.03463399037718773,0.0388711616396904,0.011973618529736996
1772794039086728200,2.482728271484375,0.0846572145819664,0.07199423015117645,-0.012490076944231987
1772794039096773000,2.492773193359375,0.1334383338689804,0.0884789302945137,-0.03598980978131294
1772794039106818000,2.502818115234375,0.17116014659404755,0.09272560477256775,-0.048469651490449905
1772794039116863000,2.512863037109375,0.18473508954048157,0.10773544758558273,-0.07409751415252686
1772794039126907100,2.5229072265625,0.20404699444770813,0.1489349752664566,-0.09522132575511932
1772794039136951800,2.532951904296875,0.23221763968467712,0.1902262270450592,-0.11199897527694702
1772794039146997000,2.5429970703125,0.26333826780319214,0.2132464200258255,-0.116087406873703
1772794039157042000,2.5530419921875,0.289160817861557,0.21917088329792023,-0.09290565550327301
1772794039167087000,2.563087158203125,0.29497212171554565,0.2127619981765747,-0.0567350871860981
1772794039177132000,2.573132080078125,0.2881019413471222,0.208295077085495,-0.013216372579336166
1772794039187177000,2.583177001953125,0.29547303915023804,0.18541257083415985,0.04002326354384422
1772794039197222000,2.593221923828125,0.3118962347507477,0.15051023662090302,0.09179405122995377
1772794039207267000,2.60326708984375,0.32881101965904236,0.10890543460845947,0.1431916356086731
1772794039217312000,2.61331201171875,0.33255118131637573,0.07364198565483093,0.1870722621679306
1772794039227357200,2.623357177734375,0.32597315311431885,0.053579650819301605,0.22646097838878632
1772794039237401000,2.633401123046875,0.31453701853752136,0.04331476241350174,0.2597704529762268
1772794039247446000,2.643446044921875,0.2947537302970886,0.043039120733737946,0.273811936378479
1772794039257491200,2.6534912109375,0.26781877875328064,0.05678262934088707,0.26836416125297546
1772794039267536000,2.663535888671875,0.2483188509941101,0.0883188247680664,0.24315744638442993
1772794039277581000,2.6735810546875,0.22538264095783234,0.1394941210746765,0.20533709228038788
1772794039287626000,2.6836259765625,0.20446191728115082,0.2419648915529251,0.17163501679897308
1772794039297671200,2.693671142578125,0.18049852550029755,0.35098084807395935,0.15110817551612854
1772794039307716000,2.703716064453125,0.15799081325531006,0.45702189207077026,0.13768455386161804
1772794039317761000,2.713760986328125,0.134757399559021,0.5201641321182251,0.12802553176879883
1772794039327806000,2.723805908203125,0.08191283047199249,0.47735270857810974,0.0946110412478447
1772794039337851100,2.73385107421875,-0.02058212086558342,0.2854013741016388,0.03608275204896927
1772794039347895000,2.74389501953125,-0.08400317281484604,0.24362576007843018,0.03690483793616295
1772794039357940000,2.75393994140625,-0.11390141397714615,0.18866103887557983,0.045192062854766846
1772794039367985000,2.76398486328125,-0.12125972658395767,0.08723561465740204,0.054026614874601364
1772794039378030000,2.774030029296875,-0.1302497535943985,-0.03745465353131294,0.04244532808661461
1772794039388075000,2.784074951171875,-0.13828931748867035,-0.13699227571487427,0.02498778887093067
1772794039398120000,2.794119873046875,-0.12797461450099945,-0.1940065622329712,0.0321359783411026
1772794039408164900,2.804164794921875,-0.11477120220661163,-0.22639107704162598,0.031920500099658966
1772794039418210000,2.8142099609375,-0.09178652614355087,-0.24629074335098267,0.014139636419713497
1772794039428255000,2.8242548828125,-0.0797591581940651,-0.24737799167633057,-0.0252605639398098
1772794039438300200,2.834300048828125,-0.05775824934244156,-0.21329060196876526,-0.07406990975141525
1772794039448344800,2.8443447265625,-0.04655219987034798,-0.19106881320476532,-0.13401539623737335
1772794039458389000,2.854388916015625,-0.04496495798230171,-0.14867502450942993,-0.18807490170001984
1772794039468434200,2.86443408203125,-0.051959749311208725,-0.09958647191524506,-0.23473407328128815
1772794039478479000,2.87447900390625,-0.06503161042928696,-0.0613381452858448,-0.26482436060905457
1772794039488524000,2.88452392578125,-0.07338035106658936,-0.04159821197390556,-0.2808324098587036
1772794039498569000,2.89456884765625,-0.07557959109544754,-0.031389251351356506,-0.27875086665153503
1772794039508614100,2.9046142578125,-0.07481446117162704,-0.019340306520462036,-0.2673622965812683
1772794039518659000,2.9146591796875,-0.06898294389247894,-0.019756026566028595,-0.26265570521354675
1772794039528704000,2.9247041015625,-0.0633346438407898,-0.036567337810993195,-0.2736795246601105
1772794039538749000,2.9347490234375,-0.04974905773997307,-0.05664757266640663,-0.2896398603916168
1772794039548794000,2.944794189453125,-0.031867798417806625,-0.08521056920289993,-0.31007590889930725
1772794039558838000,2.954838134765625,0.0004613796481862664,-0.10388172417879105,-0.3102085292339325
1772794039568883000,2.964883056640625,0.02545221522450447,-0.10668858885765076,-0.2920832335948944
1772794039578927900,2.974927978515625,0.030933264642953873,-0.08810664713382721,-0.2652966380119324
1772794039588973000,2.98497314453125,0.03332745283842087,-0.05741376429796219,-0.2220720499753952
1772794039599018000,2.99501806640625,0.0391152985394001,-0.045468155294656754,-0.1886107623577118
1772794039609063200,3.005063232421875,0.04585203155875206,-0.0487288273870945,-0.1600189208984375
1772794039619107800,3.01510791015625,0.04532472789287567,-0.05745707079768181,-0.137661412358284
1772794039629153000,3.025153076171875,0.03344009816646576,-0.0580248087644577,-0.11414188891649246
1772794039639198000,3.035197998046875,0.019020145758986473,-0.04253559932112694,-0.08530544489622116
1772794039649243100,3.0452431640625,0.005570122040808201,-0.020661771297454834,-0.05342775583267212
1772794039659287800,3.055287841796875,-0.002043323125690222,0.005557315889745951,-0.01564761810004711
1772794039669333000,3.0653330078125,-0.013303698971867561,0.02768126130104065,0.020518692210316658
1772794039679377200,3.075377197265625,-0.016444364562630653,0.03871287405490875,0.044093258678913116
1772794039689422000,3.085422119140625,-0.00950656644999981,0.04250665381550789,0.0513472780585289
1772794039699467000,3.095467041015625,0.008982429280877113,0.0406285896897316,0.05100293084979057
1772794039709512000,3.105511962890625,0.03536716476082802,0.04735328257083893,0.03535955399274826
1772794039719557000,3.11555712890625,0.06873577833175659,0.06085924059152603,0.02032041735947132
1772794039729602000,3.12560205078125,0.10076801478862762,0.0692688599228859,-0.0022920481860637665
1772794039739647200,3.135647216796875,0.13467377424240112,0.06560727953910828,-0.022982945665717125
1772794039749692000,3.14569189453125,0.15947340428829193,0.06721550971269608,-0.042830437421798706
1772794039759737000,3.155737060546875,0.18104180693626404,0.07121451199054718,-0.05827384442090988
1772794039769782000,3.165781982421875,0.19781173765659332,0.06967317312955856,-0.06466000527143478
1772794039779827200,3.1758271484375,0.20220515131950378,0.06741029024124146,-0.05823459476232529
1772794039789871000,3.18587109375,0.19069071114063263,0.06832625716924667,-0.04635030776262283
1772794039799916000,3.195916015625,0.1747508943080902,0.07902417331933975,-0.04415586218237877
1772794039809961000,3.2059609375,0.1576978713274002,0.08722143620252609,-0.03962377831339836
1772794039820006100,3.216006103515625,0.14598076045513153,0.09782268851995468,-0.02933279052376747
1772794039830051000,3.226051025390625,0.13916493952274323,0.1302163153886795,-0.004175136797130108
1772794039840096000,3.236095947265625,0.13350358605384827,0.16149194538593292,0.025469040498137474
1772794039850141000,3.246140869140625,0.1356721967458725,0.18590454757213593,0.06649928539991379
1772794039860186000,3.25618603515625,0.14390669763088226,0.19582483172416687,0.10172518342733383
1772794039870231000,3.26623095703125,0.1514383852481842,0.18053488433361053,0.13612812757492065
1772794039880276000,3.27627587890625,0.15307143330574036,0.1574290245771408,0.16791215538978577
1772794039890321000,3.28632080078125,0.16344444453716278,0.13083353638648987,0.19556520879268646
1772794039900365000,3.296364990234375,0.16529373824596405,0.09481054544448853,0.2225496917963028
1772794039910410000,3.306409912109375,0.15563498437404633,0.049890901893377304,0.24554966390132904
1772794039920455000,3.316454833984375,0.1378788948059082,-0.0059278872795403,0.2720782160758972
1772794039930500000,3.3265,0.12285227328538895,-0.05912671610713005,0.2967817187309265
1772794039940545000,3.336544921875,0.11598025262355804,-0.1217125952243805,0.30493471026420593
1772794039950590200,3.346590087890625,0.10675959289073944,-0.1674685925245285,0.306370347738266
1772794039960635000,3.356634765625,0.09910246729850769,-0.17673851549625397,0.2959344685077667
1772794039970680000,3.36668017578125,0.09223125129938126,-0.16863572597503662,0.2691665589809418
1772794039980725000,3.37672509765625,0.08496161550283432,-0.1531664878129959,0.23412281274795532
1772794039990770200,3.386770263671875,0.07259736210107803,-0.13294309377670288,0.1865760236978531
1772794040000815000,3.396815185546875,0.061025653034448624,-0.09989353269338608,0.12505167722702026
1772794040010859000,3.40685888671875,0.054112087935209274,-0.08550915867090225,0.05637642368674278
1772794040020904200,3.416904296875,0.050081659108400345,-0.08284173160791397,-0.017083413898944855
1772794040030949000,3.42694921875,0.04435985907912254,-0.07117080688476562,-0.08192092925310135
1772794040040994000,3.436994140625,0.03849797695875168,-0.05652661994099617,-0.13706141710281372
1772794040051039000,3.4470390625,0.029796894639730453,-0.04076826572418213,-0.16479572653770447
1772794040061084200,3.457084228515625,0.01949712075293064,-0.022535201162099838,-0.18289031088352203
1772794040071129000,3.467129150390625,0.011800851672887802,-0.014847828075289726,-0.19261711835861206
1772794040081174000,3.477174072265625,-0.000004674948286265135,-0.022312933579087257,-0.19668537378311157
1772794040091219000,3.487218994140625,-0.0181229617446661,-0.01695476844906807,-0.18301700055599213
1772794040101264000,3.497263916015625,-0.03799626976251602,0.01167980581521988,-0.15998917818069458
1772794040111309000,3.50730908203125,-0.05802510306239128,0.030241673812270164,-0.1312403380870819
1772794040121354000,3.51735400390625,-0.06858053803443909,0.03593152016401291,-0.10598132759332657
1772794040131398000,3.52739794921875,-0.07312388718128204,0.03591995686292648,-0.07658502459526062
1772794040141443000,3.537443115234375,-0.0726700872182846,0.02608703449368477,-0.054096490144729614
1772794040151488000,3.547488037109375,-0.07527439296245575,0.020901169627904892,-0.026653749868273735
1772794040161533200,3.557533203125,-0.07269645482301712,0.015606539323925972,-0.0045223478227853775
1772794040171577900,3.567577880859375,-0.0700191780924797,0.01083335280418396,0.01592401973903179
1772794040181623000,3.577623046875,-0.06404437124729156,0.0037046032957732677,0.022908426821231842
1772794040191668000,3.58766796875,-0.0571899339556694,-0.0025988358538597822,0.023998938500881195
1772794040201713200,3.597713134765625,-0.04753970354795456,-0.010234917514026165,0.016101069748401642
1772794040211758000,3.607758056640625,-0.040895648300647736,-0.020022988319396973,-0.003906741738319397
1772794040221803000,3.617802978515625,-0.03641727939248085,-0.027598615735769272,-0.02377312444150448
1772794040231848000,3.627847900390625,-0.03357648104429245,-0.02250979281961918,-0.03107954002916813
1772794040241892000,3.63789208984375,-0.04049297794699669,-0.024578804150223732,-0.030688587576150894
1772794040251937000,3.64793701171875,-0.04400648921728134,-0.03920690715312958,-0.026729915291070938
1772794040261982000,3.65798193359375,-0.04930218309164047,-0.04402962327003479,-0.030979521572589874
1772794040272027100,3.668027099609375,-0.04758390784263611,-0.042793385684490204,-0.03743976727128029
1772794040282072000,3.678072021484375,-0.04113586246967316,-0.03062433749437332,-0.049084171652793884
1772794040292117000,3.688116943359375,-0.03563776984810829,-0.018414229154586792,-0.06043555215001106
1772794040302162000,3.698161865234375,-0.03279538080096245,-0.006193515378981829,-0.08043961971998215
1772794040312207000,3.70820703125,-0.02606423944234848,0.004357504658401012,-0.09968262165784836
1772794040322251800,3.718251708984375,-0.028381722047924995,0.02133728563785553,-0.10903670638799667
1772794040332297000,3.728296875,-0.029944460839033127,0.019113391637802124,-0.11555374413728714
1772794040342342000,3.738341796875,-0.028120461851358414,0.0064287553541362286,-0.12037432938814163
1772794040352386000,3.748385986328125,-0.025141187012195587,0.0012946026399731636,-0.12225477397441864
1772794040362430700,3.7584306640625,-0.021084127947688103,0.00542596448212862,-0.12490967661142349
1772794040372476000,3.768475830078125,-0.0226290263235569,0.002824004739522934,-0.11517813801765442
1772794040382520800,3.778520751953125,-0.017893925309181213,-0.0001265113241970539,-0.09830701351165771
1772794040392566000,3.78856591796875,-0.013703175820410252,-0.0061373719945549965,-0.07998967170715332
1772794040402611000,3.79861083984375,-0.0068740323185920715,-0.015506639145314693,-0.05659886449575424
1772794040412655900,3.80865576171875,-0.002925897715613246,-0.019223935902118683,-0.035786278545856476
1772794040422700800,3.81870068359375,0.003903778735548258,-0.012014226987957954,-0.019112762063741684
1772794040432746000,3.82874609375,0.006921673193573952,-0.012136733159422874,-0.002314605750143528
1772794040442791000,3.838791015625,0.008096925914287567,-0.016345059499144554,0.006192063447088003
1772794040452835800,3.8488359375,0.0058364346623420715,-0.0125961285084486,0.010686680674552917
1772794040462880800,3.858880859375,0.008185608312487602,-0.009793683886528015,0.007417649962007999
1772794040472925000,3.868925048828125,0.009066319093108177,-0.009649015963077545,0.004026133567094803
1772794040482970000,3.87897021484375,0.008859657682478428,-0.010137706063687801,0.0019864181522279978
1772794040493014800,3.889014892578125,0.010304685682058334,-0.0069238608703017235,0.0002542794682085514
1772794040503060000,3.89906005859375,0.014317803084850311,-0.012247785925865173,-0.004514110274612904
1772794040513105000,3.90910498046875,0.017070980742573738,-0.02282910794019699,-0.004090583883225918
1772794040523150000,3.919150146484375,0.027660774067044258,-0.033441804349422455,0.001104710972867906
1772794040533195000,3.929195068359375,0.033363133668899536,-0.03662550821900368,0.0038495140615850687
1772794040543240000,3.939239990234375,0.0394015870988369,-0.034636661410331726,0.013566856272518635
1772794040553284900,3.949284912109375,0.039373625069856644,-0.027980832383036613,0.00994897074997425
1772794040563330000,3.959330078125,0.032122902572155,-0.021650230512022972,0.00825759768486023
1772794040573375000,3.969375,0.02971433475613594,-0.01979753188788891,0.0027330145239830017
1772794040583419000,3.9794189453125,0.023675085976719856,-0.022355498746037483,0.004584976937621832
1772794040593463800,3.9894638671875,0.012381686829030514,-0.027967197820544243,0.006896637845784426
1772794040603509000,3.999509033203125,0.00413254601880908,-0.039049144834280014,0.019388461485505104
1772794040613554000,4.009553955078125,-0.007154198829084635,-0.05241454020142555,0.031025124713778496
1772794040623598800,4.019598876953125,-0.015212657861411572,-0.06420701742172241,0.044797658920288086
1772794040633643800,4.029643798828125,-0.022392800077795982,-0.07715758681297302,0.05838892608880997
1772794040643689000,4.03968896484375,-0.03282413259148598,-0.08477183431386948,0.07205067574977875
1772794040653734000,4.04973388671875,-0.04578361660242081,-0.08674774318933487,0.08236660808324814
1772794040663779000,4.059779052734375,-0.06113380938768387,-0.1018233671784401,0.085542693734169
1772794040673823700,4.06982373046875,-0.07350499927997589,-0.11320412158966064,0.09092217683792114
1772794040683869000,4.079868896484375,-0.08804532140493393,-0.12047375738620758,0.08866914361715317
1772794040693913900,4.089913818359375,-0.09633494168519974,-0.1311049908399582,0.08443412184715271
1772794040703959000,4.099958984375,-0.10010624676942825,-0.13726861774921417,0.07931818813085556
1772794040714003000,4.1100029296875,-0.10819532722234726,-0.13823889195919037,0.06857606768608093
1772794040724048000,4.1200478515625,-0.11840428411960602,-0.1361088901758194,0.04591016843914986
1772794040734093000,4.130093017578125,-0.1408424824476242,-0.09732315689325333,-0.03381368890404701
1772794040744138000,4.140137939453125,-0.12644889950752258,-0.04726983979344368,-0.07990848273038864
1772794040754183000,4.150182861328125,-0.11095276474952698,-0.05666089430451393,-0.1212269738316536
1772794040764227800,4.160227783203125,-0.1016085296869278,-0.06171290948987007,-0.1367790400981903
1772794040774273000,4.17027294921875,-0.10164262354373932,-0.058249205350875854,-0.13191188871860504
1772794040784318000,4.18031787109375,-0.10229562968015671,-0.06387699395418167,-0.11578911542892456
1772794040794363100,4.190363037109375,-0.09257881343364716,-0.06458491832017899,-0.09637880325317383
1772794040804407800,4.20040771484375,-0.08030137419700623,-0.06781213730573654,-0.07498562335968018
1772794040814453000,4.210452880859375,-0.07083730399608612,-0.07482822984457016,-0.05127081647515297
1772794040824497000,4.220496826171875,-0.05683014169335365,-0.07588763535022736,-0.026326848194003105
1772794040834541800,4.230541748046875,-0.03982904925942421,-0.07417192310094833,-0.004761863499879837
1772794040844586800,4.240586669921875,-0.029823288321495056,-0.07262169569730759,0.011694341897964478
1772794040854632000,4.2506318359375,-0.01667819544672966,-0.0654444769024849,0.02793898805975914
1772794040864676900,4.2606767578125,-0.017856642603874207,-0.06391795724630356,0.03227807581424713
1772794040874722000,4.27072216796875,-0.010890346020460129,-0.05911494418978691,0.04172244668006897
1772794040884766700,4.2807666015625,-0.017839066684246063,-0.06027635186910629,0.03896261006593704
1772794040894812000,4.29081201171875,-0.02347245253622532,-0.0678064376115799,0.03143087401986122
1772794040904856800,4.30085693359375,-0.031384170055389404,-0.0764973983168602,0.024040602147579193
1772794040914902000,4.310902099609375,-0.04320540651679039,-0.08667610585689545,0.011590809561312199
1772794040924947000,4.320947021484375,-0.05530015006661415,-0.08697225153446198,0.00489003024995327
1772794040934992000,4.330991943359375,-0.06261000037193298,-0.08511266857385635,-0.006707438267767429
1772794040945036000,4.3410361328125,-0.05745811387896538,-0.08745492249727249,-0.007176953833550215
1772794040955081000,4.3510810546875,-0.04706672579050064,-0.08983813226222992,0.0011482699774205685
1772794040965126000,4.3611259765625,-0.04789044335484505,-0.09772534668445587,0.019437529146671295
1772794040975171800,4.371171875,-0.05033096298575401,-0.10464227199554443,0.03858388960361481
1772794040985216800,4.381216796875,-0.06583376228809357,-0.11198914051055908,0.057659048587083817
1772794040995262000,4.391261962890625,-0.08026649057865143,-0.12227015197277069,0.06546561419963837
1772794041005307000,4.401306884765625,-0.08740509301424026,-0.13903075456619263,0.06281709671020508
1772794041015352000,4.41135205078125,-0.08870364725589752,-0.1527397632598877,0.05829117074608803
1772794041025396700,4.421396728515625,-0.08931857347488403,-0.16079342365264893,0.05385567620396614
1772794041035442000,4.43144189453125,-0.07775726169347763,-0.16748084127902985,0.05079653114080429
1772794041045486800,4.44148681640625,-0.0659986063838005,-0.18125711381435394,0.054483409970998764
1772794041055532000,4.451531982421875,-0.062011055648326874,-0.1951920986175537,0.06041597202420235
1772794041065577000,4.461576904296875,-0.057509779930114746,-0.20569586753845215,0.0706062912940979
1772794041075622000,4.471621826171875,-0.05356511101126671,-0.21597929298877716,0.07640430331230164
1772794041085666800,4.481666748046875,-0.051261477172374725,-0.21689088642597198,0.08263210207223892
1772794041095711000,4.4917109375,-0.047623325139284134,-0.2051672786474228,0.08371104300022125
1772794041105756000,4.501755859375,-0.043771062046289444,-0.1898794025182724,0.0801360160112381
1772794041115800800,4.51180078125,-0.044268544763326645,-0.16510401666164398,0.07218877971172333
1772794041125846000,4.521845947265625,-0.04316892474889755,-0.14285463094711304,0.05708811804652214
1772794041135891000,4.531890869140625,-0.04297265037894249,-0.11508899182081223,0.034781184047460556
1772794041145936100,4.54193603515625,-0.042645879089832306,-0.08188257366418839,0.01939689926803112
1772794041155980800,4.551980712890625,-0.037517696619033813,-0.051922813057899475,0.0016919377958402038
1772794041166026000,4.56202587890625,-0.042692750692367554,-0.019301753491163254,-0.011847573332488537
1772794041176071000,4.57207080078125,-0.04951683431863785,0.011625373736023903,-0.034368228167295456
1772794041186116000,4.5821162109375,-0.053841542452573776,0.04857247322797775,-0.06659886986017227
1772794041196161000,4.5921611328125,-0.038072433322668076,0.07000111788511276,-0.09571998566389084
1772794041206205000,4.602204833984375,-0.02107214368879795,0.07983031123876572,-0.1158745214343071
1772794041216249900,4.612249755859375,-0.009181927889585495,0.08842965960502625,-0.1300095170736313
1772794041226295000,4.622294921875,0.004496599547564983,0.09547718614339828,-0.1365550309419632
1772794041236339700,4.632339599609375,0.023733675479888916,0.0939081609249115,-0.12325830012559891
1772794041246385000,4.642385009765625,0.04473989084362984,0.07461834698915482,-0.10209895670413971
1772794041256429800,4.652429931640625,0.05692438408732414,0.0490184910595417,-0.07868782430887222
1772794041266475000,4.66247509765625,0.06582359969615936,0.0335489884018898,-0.06282737106084824
1772794041276520000,4.67252001953125,0.06864655017852783,0.02735794335603714,-0.05778031423687935
1772794041286564900,4.68256494140625,0.06944417208433151,0.029996603727340698,-0.05845542252063751
1772794041296609300,4.692609375,0.07160480320453644,0.041693054139614105,-0.06941407918930054
1772794041306654200,4.702654296875,0.07188815623521805,0.05918549373745918,-0.08369101583957672
1772794041316699400,4.712699462890625,0.07256486266851425,0.07584340125322342,-0.09402084350585938
1772794041326744000,4.722744140625,0.07540512084960938,0.08068529516458511,-0.1085188239812851
1772794041336788200,4.732788330078125,0.0719643160700798,0.08287857472896576,-0.11814651638269424
1772794041346833200,4.742833251953125,0.06971714645624161,0.08795295655727386,-0.12381851673126221
1772794041356878300,4.75287841796875,0.06847584247589111,0.09720387309789658,-0.12848931550979614
1772794041366923000,4.762923095703125,0.06557060033082962,0.11337218433618546,-0.12650738656520844
1772794041376968200,4.77296826171875,0.06776025891304016,0.12008421123027802,-0.13179028034210205
1772794041387013000,4.78301318359375,0.07221226394176483,0.13008011877536774,-0.13077561557292938
1772794041397058300,4.793058349609375,0.08385719358921051,0.12966875731945038,-0.13339479267597198
1772794041407103000,4.80310302734375,0.0928027555346489,0.12720507383346558,-0.12334269285202026
1772794041417148200,4.813148193359375,0.10175950080156326,0.1271751970052719,-0.1192685067653656
1772794041427193000,4.823193115234375,0.10508552193641663,0.12491337954998016,-0.11135146021842957
1772794041437238300,4.83323828125,0.1077156588435173,0.13527025282382965,-0.10835231840610504
1772794041447282200,4.8432822265625,0.11040971428155899,0.14401181042194366,-0.11580783873796463
1772794041457327000,4.8533271484375,0.11164568364620209,0.1575799584388733,-0.1310032457113266
1772794041467372300,4.863372314453125,0.1162436306476593,0.16985926032066345,-0.1439797580242157
1772794041477417200,4.873417236328125,0.11818427592515945,0.17575019598007202,-0.15550561249256134
1772794041487462400,4.88346240234375,0.11919920891523361,0.16434520483016968,-0.16054271161556244
1772794041497507000,4.893507080078125,0.11626601219177246,0.14782550930976868,-0.15096688270568848
1772794041507552300,4.90355224609375,0.11680876463651657,0.13038712739944458,-0.1398196816444397
1772794041517597200,4.91359716796875,0.11328593641519547,0.1156265065073967,-0.13079926371574402
1772794041527642400,4.923642333984375,0.10269001126289368,0.10155889391899109,-0.12531740963459015
1772794041537687000,4.93368701171875,0.08988073468208313,0.09396546334028244,-0.12355314940214157
1772794041547732200,4.943732177734375,0.08438556641340256,0.08596799522638321,-0.12289854139089584
1772794041557777200,4.953777099609375,0.07772181183099747,0.07845772802829742,-0.12746988236904144
1772794041567821300,4.9638212890625,0.07763925939798355,0.07134788483381271,-0.12923608720302582
1772794041577866000,4.973865966796875,0.07463894039392471,0.07362344861030579,-0.12969323992729187
1772794041587911200,4.9839111328125,0.07505039870738983,0.07141914963722229,-0.13554100692272186
1772794041597956000,4.9939560546875,0.07464239746332169,0.0620531365275383,-0.13592137396335602
1772794041608001300,5.004001220703125,0.07453374564647675,0.05020499974489212,-0.1328347772359848
1772794041618046200,5.014046142578125,0.07310043275356293,0.03551867604255676,-0.13081495463848114
1772794041628091100,5.024091064453125,0.0797940194606781,0.015310076996684074,-0.12503322958946228
1772794041638136000,5.034135986328125,0.08116820454597473,-0.0003984258510172367,-0.11847337335348129
1772794041648181200,5.04418115234375,0.07299655675888062,-0.005189985502511263,-0.10991024225950241
1772794041658226200,5.05422607421875,0.06084589287638664,-0.0015113549306988716,-0.10932211577892303
1772794041668271000,5.06427099609375,0.05274668708443642,-0.010009768418967724,-0.11810841411352158
1772794041678316000,5.07431591796875,0.05190911889076233,-0.021869949996471405,-0.1336251199245453
1772794041688360200,5.084360107421875,0.04723207280039787,-0.02244359441101551,-0.14888077974319458
1772794041698405400,5.0944052734375,0.03522627800703049,-0.007667953614145517,-0.1539391130208969
1772794041708450000,5.104449951171875,0.020600199699401855,0.0018776142969727516,-0.16281196475028992
1772794041718495200,5.1144951171875,0.004804729018360376,0.005098293069750071,-0.17069777846336365
1772794041728540200,5.1245400390625,-0.003909134306013584,0.0023650904186069965,-0.17162641882896423
1772794041738585300,5.13458544921875,-0.012374794110655785,-0.0030868330504745245,-0.1786334216594696
1772794041748630000,5.144630126953125,-0.014878964051604271,-0.004956372082233429,-0.17814631760120392
1772794041758675200,5.15467529296875,-0.021137122064828873,-0.0027097752317786217,-0.18296140432357788
1772794041768720100,5.16472021484375,-0.02009768970310688,-0.014273220673203468,-0.18702031672000885
1772794041778765300,5.174765380859375,-0.017452111467719078,-0.013367487117648125,-0.19588905572891235
1772794041788810200,5.184810302734375,-0.0141820153221488,-0.0029502669349312782,-0.2001439929008484
1772794041798855200,5.194855224609375,-0.015060856938362122,0.006850489415228367,-0.19592900574207306
1772794041808899000,5.204899169921875,-0.015336493030190468,0.003546038642525673,-0.18310028314590454
1772794041818944300,5.2149443359375,-0.018018297851085663,-0.006147442385554314,-0.1638045459985733
1772794041828989200,5.2249892578125,-0.019225774332880974,-0.022692065685987473,-0.1442585438489914
1772794041839034000,5.2350341796875,-0.02004203572869301,-0.04072427749633789,-0.12368544191122055
1772794041849079000,5.2450791015625,-0.01945454254746437,-0.06770475953817368,-0.11477930098772049
1772794041859124200,5.255124267578125,-0.01352261658757925,-0.0875215083360672,-0.10308468341827393
1772794041869169200,5.265169189453125,-0.004289703909307718,-0.10122666507959366,-0.09849445521831512
1772794041879214000,5.275214111328125,0.0003484570188447833,-0.09974536299705505,-0.09805884957313538
1772794041889259000,5.285259033203125,-0.002535746432840824,-0.09270050376653671,-0.09440366178750992
1772794041899304200,5.29530419921875,-0.00646204361692071,-0.07125869393348694,-0.0918780043721199
1772794041909349000,5.30534912109375,-0.013194780796766281,-0.06043028458952904,-0.08826782554388046
1772794041919394300,5.315394287109375,-0.017085125669836998,-0.05551711842417717,-0.08808256685733795
1772794041929438200,5.325438232421875,-0.0254511795938015,-0.05755896493792534,-0.08566388487815857
1772794041939483100,5.335483154296875,-0.031089086085557938,-0.0593046098947525,-0.085567407310009
1772794041949528300,5.3455283203125,-0.03551872447133064,-0.05692853778600693,-0.08216042816638947
1772794041959573200,5.3555732421875,-0.035912610590457916,-0.056929659098386765,-0.07108041644096375
1772794041969618200,5.3656181640625,-0.03797229751944542,-0.05118894949555397,-0.0566926933825016
1772794041979663000,5.3756630859375,-0.034280892461538315,-0.03825920447707176,-0.04344107210636139
1772794041989708300,5.385708251953125,-0.027674922719597816,-0.03616276755928993,-0.03907268866896629
1772794041999753200,5.395753173828125,-0.017726417630910873,-0.0436798557639122,-0.029833301901817322
1772794042009798100,5.405798095703125,-0.01430958230048418,-0.0500623881816864,-0.02308831363916397
1772794042019843000,5.415843017578125,-0.018087277188897133,-0.04809511825442314,-0.012688770890235901
1772794042029888300,5.42588818359375,-0.025934547185897827,-0.036681074649095535,-0.0002744455123320222
1772794042039933200,5.43593310546875,-0.03354266658425331,-0.036614224314689636,0.008631267584860325
1772794042049977000,5.44597705078125,-0.038442883640527725,-0.03916313499212265,0.011889378540217876
1772794042060022000,5.45602197265625,-0.042887430638074875,-0.04738159850239754,0.014230744913220406
1772794042070067200,5.466067138671875,-0.047469135373830795,-0.05245998129248619,0.013799846172332764
1772794042080112000,5.476112060546875,-0.0560772642493248,-0.04460982233285904,0.011343849822878838
1772794042090157300,5.4861572265625,-0.0667773112654686,-0.03799373283982277,0.006938449572771788
1772794042100202000,5.496201904296875,-0.07685072720050812,-0.03165573626756668,0.002662142040207982
1772794042110247200,5.5062470703125,-0.08225907385349274,-0.02761571854352951,-0.014171432703733444
1772794042120292000,5.5162919921875,-0.08833028376102448,-0.021929068490862846,-0.02598835900425911
1772794042130337300,5.526337158203125,-0.09313595294952393,-0.023594610393047333,-0.04283631592988968
1772794042140382000,5.5363818359375,-0.09309041500091553,-0.02601495012640953,-0.05691438913345337
1772794042150427100,5.54642724609375,-0.0962182953953743,-0.04160909354686737,-0.06273952126502991
1772794042160472000,5.55647216796875,-0.09729927778244019,-0.043536946177482605,-0.057835470885038376
1772794042170516200,5.56651611328125,-0.09541215747594833,-0.04938951134681702,-0.047604139894247055
1772794042180561200,5.57656103515625,-0.09436766803264618,-0.05136008933186531,-0.03341635316610336
1772794042190606000,5.586606201171875,-0.09872246533632278,-0.03968719020485878,-0.024591432884335518
1772794042200651300,5.5966513671875,-0.09251437336206436,-0.02789881080389023,-0.011596105992794037
1772794042210696200,5.6066962890625,-0.08510971814393997,-0.018500514328479767,-0.0005964509327895939
1772794042220741400,5.616741455078125,-0.08420398086309433,-0.01635773479938507,0.003523459192365408
1772794042230786000,5.6267861328125,-0.08082868903875351,-0.014890067279338837,0.0152264554053545
1772794042240831200,5.636831298828125,-0.08231313526630402,-0.013628961518406868,0.022109441459178925
1772794042250876200,5.646876220703125,-0.0826588124036789,-0.0212839525192976,0.02701578289270401
1772794042260921300,5.65692138671875,-0.07903158664703369,-0.02842734195291996,0.02726196125149727
1772794042270966000,5.666966064453125,-0.07391059398651123,-0.027072060853242874,0.02950034849345684
1772794042281011200,5.67701123046875,-0.07310951501131058,-0.023968465626239777,0.02158014103770256
1772794042291055400,5.687055419921875,-0.06669849157333374,-0.018904199823737144,0.014473228715360165
1772794042301100500,5.6971005859375,-0.06047813966870308,-0.013799289241433144,0.001146405702456832
1772794042311145500,5.7071455078125,-0.049918971955776215,-0.013969998806715012,-0.004358614794909954
1772794042321190700,5.717190673828125,-0.036508895456790924,-0.011807519942522049,-0.0034618154168128967
1772794042331235600,5.727235595703125,-0.026845881715416908,-0.013658682815730572,-0.002571520395576954
1772794042341280500,5.737280517578125,-0.017545057460665703,-0.014167612418532372,-0.0032524908892810345
1772794042351325400,5.747325439453125,-0.012375861406326294,-0.019241467118263245,-0.002070047426968813
1772794042361370600,5.75737060546875,-0.013102103024721146,-0.030052563175559044,-0.0009524825727567077
1772794042371415600,5.76741552734375,-0.01855279505252838,-0.03606225550174713,0.005668402183800936
1772794042381460500,5.77746044921875,-0.030851269140839577,-0.03939029574394226,0.012025352567434311
1772794042391505400,5.78750537109375,-0.04153720661997795,-0.02939971163868904,0.016131948679685593
1772794042401550600,5.797550537109375,-0.04068978875875473,-0.03946390748023987,0.023223426192998886
1772794042411594800,5.8075947265625,-0.036257755011320114,-0.05856436491012573,0.029250960797071457
1772794042421639400,5.817639404296875,-0.029837939888238907,-0.059995390474796295,0.03508467972278595
1772794042431684600,5.8276845703125,-0.03087497502565384,-0.07274208217859268,0.04162859916687012
1772794042441729500,5.8377294921875,-0.03731343522667885,-0.07622954249382019,0.04930785670876503
1772794042451774700,5.847774658203125,-0.04568668082356453,-0.05701243877410889,0.06978117674589157
1772794042461819600,5.857819580078125,-0.053060442209243774,-0.04625582695007324,0.08427105098962784
1772794042471864600,5.867864501953125,-0.05188944935798645,-0.05440536513924599,0.0952957347035408
1772794042481909500,5.877909423828125,-0.043126851320266724,-0.060740064829587936,0.10614051669836044
1772794042491954700,5.88795458984375,-0.03827963024377823,-0.07766765356063843,0.11522269248962402
1772794042501999600,5.89799951171875,-0.04001867398619652,-0.09540867060422897,0.12643417716026306
1772794042512044500,5.90804443359375,-0.050777047872543335,-0.09569788724184036,0.14624516665935516
1772794042522088400,5.91808837890625,-0.05750525742769241,-0.09301012009382248,0.1611989587545395
1772794042532133600,5.928133544921875,-0.05986801162362099,-0.0885743647813797,0.1710262894630432
1772794042542178600,5.938178466796875,-0.05644238367676735,-0.08777471631765366,0.1738070696592331
1772794042552223500,5.948223388671875,-0.04931177198886871,-0.0873241126537323,0.17386406660079956
1772794042562268400,5.958268310546875,-0.04311033710837364,-0.08270256966352463,0.1672096848487854
1772794042572313600,5.968313720703125,-0.03258179873228073,-0.076240673661232,0.15323156118392944
1772794042582358500,5.978358642578125,-0.02305433712899685,-0.08228535205125809,0.13734538853168488
1772794042592403700,5.98840380859375,-0.018040137365460396,-0.07826344668865204,0.12064337730407715
1772794042602448400,5.998448486328125,-0.012687981128692627,-0.06483914703130722,0.10923858731985092
1772794042612493600,6.00849365234375,-0.014520236290991306,-0.060059837996959686,0.09666474163532257
1772794042622538500,6.01853857421875,-0.013342052698135376,-0.04591973125934601,0.09063903987407684
1772794042632583700,6.028583740234375,-0.0158278476446867,-0.034453220665454865,0.08015896379947662
1772794042642627600,6.038627685546875,-0.020066536962985992,-0.03397497534751892,0.07003659009933472
1772794042652672500,6.048672607421875,-0.024275928735733032,-0.04468434676527977,0.062198903411626816
1772794042662717700,6.0587177734375,-0.02125697210431099,-0.04985402151942253,0.05148700252175331
1772794042672762600,6.0687626953125,-0.018198594450950623,-0.06103876605629921,0.041048742830753326
1772794042682807600,6.0788076171875,-0.015275244601070881,-0.05511605739593506,0.026395117864012718
1772794042692852500,6.0888525390625,-0.01657034084200859,-0.03959302604198456,0.004043471999466419
1772794042702897700,6.098897705078125,-0.013483199290931225,-0.03374098613858223,-0.02460879273712635
1772794042712942600,6.108942626953125,-0.011400074698030949,-0.022329872474074364,-0.052984774112701416
1772794042722987800,6.11898779296875,-0.006645535118877888,-0.00850743055343628,-0.06671859323978424
1772794042733032400,6.129032470703125,-0.0046377782709896564,0.0027452236972749233,-0.07202254235744476
1772794042743077600,6.13907763671875,0.003998317290097475,0.010372398421168327,-0.06450612843036652
1772794042753122600,6.14912255859375,0.007564556319266558,0.019749388098716736,-0.044702596962451935
1772794042763167700,6.159167724609375,0.006036967970430851,0.026579072698950768,-0.027235619723796844
1772794042773211400,6.16921142578125,0.005073702894151211,0.02829121984541416,-0.003780628787353635
1772794042783256600,6.179256591796875,0.0040228222496807575,0.03355591744184494,0.017878545448184013
1772794042793301500,6.189301513671875,0.0013000061735510826,0.028670085594058037,0.035643164068460464
1772794042803346700,6.1993466796875,0.0032102903351187706,0.03175455704331398,0.055319610983133316
1772794042813391400,6.209391357421875,0.012793941423296928,0.03693733364343643,0.06829319894313812
1772794042823436500,6.2194365234375,0.02538403496146202,0.032495979219675064,0.08205509185791016
1772794042833481500,6.2294814453125,0.031551118940114975,0.03187093883752823,0.09030768275260925
1772794042843526700,6.239526611328125,0.038099296391010284,0.035623855888843536,0.10035356134176254
1772794042853571600,6.249571533203125,0.036285150796175,0.03367442265152931,0.10426920652389526
1772794042863616500,6.259616455078125,0.03766573593020439,0.028780287131667137,0.1054808720946312
1772794042873661400,6.269661376953125,0.040268443524837494,0.023836128413677216,0.09545406699180603
1772794042883706600,6.27970654296875,0.0422692745923996,0.02364448271691799,0.08665214478969574
1772794042893750500,6.28975048828125,0.04492577537894249,0.02092832513153553,0.06933999806642532
1772794042903795500,6.29979541015625,0.04523736611008644,0.02412310428917408,0.04549690708518028
1772794042913840600,6.309840576171875,0.04404187574982643,0.024356132373213768,0.023775897920131683
1772794042923885600,6.319885498046875,0.052000995725393295,0.019963890314102173,0.0083982078358531
1772794042933930800,6.3299306640625,0.06093750149011612,0.014002668671309948,-0.0018853226210922003
1772794042943975400,6.339975341796875,0.06935308873653412,0.012583146803081036,-0.008964821696281433
1772794042954020600,6.3500205078125,0.07161730527877808,0.010304813273251057,-0.00745427655056119
1772794042964065500,6.3600654296875,0.07537023723125458,0.00874074175953865,0.0012007813202217221
1772794042974110700,6.37011083984375,0.07043619453907013,0.00649463152512908,0.018813597038388252
1772794042984155600,6.38015576171875,0.06768088787794113,-0.005926031153649092,0.030768493190407753
1772794042994200600,6.39020068359375,0.0653596818447113,-0.012091515585780144,0.03925012797117233
1772794043004245500,6.40024560546875,0.073076993227005,-0.004471407271921635,0.04779977723956108
1772794043014289700,6.41028955078125,0.07346182316541672,0.002278108149766922,0.051259223371744156
1772794043024334300,6.420334228515625,0.06837677210569382,0.017508026212453842,0.052948247641325
1772794043034379500,6.430379638671875,0.05713051185011864,0.02699100971221924,0.05478103458881378
1772794043044424400,6.440424560546875,0.0386311300098896,0.030992839485406876,0.05826110392808914
1772794043054469600,6.4504697265625,0.023433802649378777,0.027597576379776,0.04939863458275795
1772794043064514600,6.4605146484375,0.013372381217777729,0.02895243465900421,0.041277796030044556
1772794043074559500,6.4705595703125,0.0021591410040855408,0.023854076862335205,0.034357041120529175
1772794043084604400,6.4806044921875,-0.006047390401363373,0.02214571088552475,0.02111624926328659
1772794043094649600,6.490649658203125,-0.009569686837494373,0.017200222238898277,0.007584995590150356
1772794043104694500,6.500694580078125,-0.006827963516116142,0.014159474521875381,-0.01086253859102726
1772794043114739700,6.51073974609375,-0.0025506603997200727,0.011405499652028084,-0.028567766770720482
1772794043124784400,6.520784423828125,0.0020339731127023697,0.00681426702067256,-0.04590306431055069
1772794043134828500,6.53082861328125,0.006518203765153885,-0.005237601697444916,-0.06191079318523407
1772794043144873700,6.540873779296875,0.012369167990982533,-0.017448782920837402,-0.0766710638999939
1772794043154918400,6.55091845703125,0.020114704966545105,-0.02079184725880623,-0.08388610184192657
1772794043164963600,6.560963623046875,0.020297667011618614,-0.01708025112748146,-0.07962096482515335
1772794043175008500,6.571008544921875,0.015684805810451508,-0.013717478141188622,-0.07169965654611588
1772794043185053700,6.5810537109375,0.011469017714262009,-0.00031507154926657677,-0.05474983528256416
1772794043195098600,6.5910986328125,0.0002046460285782814,0.01252242922782898,-0.03952081501483917
1772794043205143600,6.6011435546875,-0.010234678164124489,0.00973207876086235,-0.02108541503548622
1772794043215188500,6.6111884765625,-0.017924822866916656,0.006712586153298616,-0.004454772919416428
1772794043225233700,6.621233642578125,-0.026988361030817032,0.001812200527638197,0.012512222863733768
1772794043235278600,6.631278564453125,-0.034531764686107635,0.0007290923967957497,0.023885518312454224
1772794043245323800,6.64132373046875,-0.04487015679478645,0.0035434761084616184,0.027732906863093376
1772794043255368400,6.651368408203125,-0.048248376697301865,0.008153941482305527,0.019905610010027885
1772794043265412600,6.66141259765625,-0.04352126270532608,0.004876174032688141,0.005726057104766369
1772794043275457500,6.67145751953125,-0.035179443657398224,0.001018584705889225,-0.025511756539344788
1772794043285502500,6.68150244140625,-0.03348274528980255,-0.003351290477439761,-0.043845340609550476
1772794043295547100,6.691547119140625,-0.0336606428027153,-0.0020596571266651154,-0.06830035150051117
1772794043305592300,6.70159228515625,-0.030433958396315575,-0.00037824641913175583,-0.08431760221719742
1772794043315637200,6.71163720703125,-0.02415156178176403,-0.0020997137762606144,-0.08799809217453003
1772794043325682400,6.721682373046875,-0.025012023746967316,-0.004897461738437414,-0.09238723665475845
1772794043335727000,6.73172705078125,-0.024453293532133102,-0.0019493424333631992,-0.09716255217790604
1772794043345772300,6.741772216796875,-0.024300964549183846,0.0018575284630060196,-0.09693227708339691
1772794043355817200,6.751817138671875,-0.02656225487589836,0.009404660202562809,-0.09496260434389114
1772794043365862400,6.7618623046875,-0.02876867912709713,0.019098417833447456,-0.09770956635475159
1772794043375907000,6.771906982421875,-0.02304740995168686,0.016850709915161133,-0.10026407241821289
1772794043385951200,6.781951171875,-0.01704837754368782,0.0153095293790102,-0.09272481501102448
1772794043395996400,6.791996337890625,-0.0081712631508708,0.010343266651034355,-0.08325834572315216
1772794043406041300,6.802041259765625,0.002210537903010845,0.013057722710072994,-0.07058770954608917
1772794043416086300,6.812086181640625,0.010771535336971283,0.020319364964962006,-0.060780882835388184
1772794043426131200,6.822131103515625,0.017710404470562935,0.02903052046895027,-0.05156584084033966
1772794043436176400,6.83217626953125,0.031731948256492615,0.03887516260147095,-0.04992853105068207
1772794043446221300,6.84222119140625,0.049060069024562836,0.04198672994971275,-0.04892841726541519
1772794043456266500,6.8522666015625,0.058584064245224,0.04088045284152031,-0.0480668842792511
1772794043466311200,6.862311279296875,0.04284079372882843,0.006111459340900183,-0.044245511293411255
1772794043476356400,6.8723564453125,0.02026277780532837,-0.016839662566781044,-0.04115757718682289
1772794043486401300,6.8824013671875,0.014742842875421047,-0.02079286053776741,-0.03966865688562393
1772794043496446500,6.892446533203125,0.01186982449144125,-0.028242256492376328,-0.04216989502310753
1772794043506490000,6.902489990234375,0.010419201105833054,-0.022798383608460426,-0.04077132046222687
1772794043516535300,6.912535400390625,0.005691823549568653,-0.010829071514308453,-0.03486789017915726
1772794043526580200,6.922580322265625,0.0037439861334860325,-0.004473761655390263,-0.024499690160155296
1772794043536625400,6.93262548828125,0.002210271544754505,0.0037932232953608036,-0.019132355228066444
1772794043546670000,6.942670166015625,0.0063597471453249454,0.0006479872390627861,-0.01803729124367237
1772794043556715300,6.95271533203125,0.014895977452397346,-0.0027733759488910437,-0.02592610754072666
1772794043566760200,6.96276025390625,0.025968866422772408,0.006990405265241861,-0.04473037272691727
1772794043576805400,6.972805419921875,0.032500531524419785,0.019757065922021866,-0.05516703799366951
1772794043586850300,6.982850341796875,0.02910846844315529,0.02316213957965374,-0.05480518937110901
1772794043596895200,6.992895263671875,0.022548038512468338,0.01835140585899353,-0.04213466867804527
