time,seconds_elapsed,z,y,x
1772793792445707500,0.07570751953125,0.13090075458586214,0.04654372451007366,0.14947043049931524
1772793792455752700,0.085752685546875,0.13737550355792044,-0.01739244882762432,0.0828941179163754
1772793792465798700,0.095798583984375,0.10909341192543506,-0.03896422916650772,0.015745412272959947
1772793792475844600,0.1058447265625,0.05605798730850219,-0.04281447485387325,-0.010814677872508763
1772793792485890600,0.115890625,-0.06939677683115004,-0.04981178639531135,0.00701660076379776
1772793792495936500,0.1259365234375,-0.12493512417972087,-0.014704232656955718,0.029936142449826002
1772793792505981700,0.135981689453125,-0.14940847117900846,0.04077040180563926,0.0660499506212771
1772793792516027600,0.146027587890625,-0.17518530199229715,0.07685527614355087,0.14156272611469028
1772793792526073600,0.156073486328125,-0.16393734726905823,0.0931055691987276,0.21098039960339665
1772793792536119800,0.166119873046875,-0.10727730241417884,0.11901917813420294,0.25667539832964537
1772793792546165800,0.176165771484375,-0.021455460482835767,0.15586334640681743,0.2973435088045895
1772793792556211700,0.186211669921875,0.03106792295873165,0.14826748445034027,0.3231425514496863
1772793792566256600,0.196256591796875,0.02925415153503418,0.123099725446105,0.2750806774616241
1772793792576302600,0.206302490234375,-0.01915361328125,0.12747194918096064,0.17181757912486792
1772793792586348500,0.2163486328125,-0.028469138637185094,0.14508885441422462,0.10447291251793503
1772793792596394500,0.22639453125,-0.08125204979777335,0.11403437545895576,0.13028145364373922
1772793792606440400,0.2364404296875,-0.12207856570482253,0.1012228246808052,0.15597002165168522
1772793792616485600,0.246485595703125,-0.0779343035519123,0.11932897473573684,0.1541943902812898
1772793792626531600,0.256531494140625,-0.01298749186694622,0.13228314885497092,0.14145561247840524
1772793792636577500,0.26657763671875,0.038194413837790486,0.11952654313445091,0.14909531357660888
1772793792646623500,0.27662353515625,0.10177695143222808,0.10395195738375186,0.14876915036216376
1772793792656669700,0.286669677734375,0.14378069442510605,0.10882920803129673,0.18098215170279144
1772793792666714600,0.296714599609375,0.18849544994235037,0.11037760651707648,0.2319375551752746
1772793792676760600,0.306760498046875,0.22145663930177686,0.12278116101622581,0.2873806254558265
1772793792686806800,0.316806884765625,0.2854775683134794,0.1255009413689375,0.3271826206207275
1772793792696852700,0.326852783203125,0.33805940394401546,0.146391753706336,0.35260523116886616
1772793792706898700,0.336898681640625,0.4262929831922054,0.14905308187007904,0.3529107899866998
1772793792716943600,0.346943603515625,0.45663259187638755,0.15709493402838706,0.3246121856108308
1772793792726989600,0.356989501953125,0.43438510423302645,0.13820260203182697,0.2651438053369522
1772793792737035500,0.367035400390625,0.3928501477956772,0.16008943966925143,0.2033724088177085
1772793792747081500,0.37708154296875,0.35634792482852934,0.18538287087976932,0.20535759128555653
1772793792757127400,0.38712744140625,0.3449520860671997,0.1758545795559883,0.27585487670451403
1772793792767172600,0.397172607421875,0.3672030808418989,0.20527707339525222,0.30995325340032576
1772793792777218600,0.407218505859375,0.40821898184120653,0.21994214308559892,0.3558320842608809
1772793792787264500,0.417264404296875,0.5006657948702573,0.2470101827532053,0.3875514568656683
1772793792797310500,0.427310546875,0.5651151784271001,0.24468904632925986,0.4132115294314921
1772793792807356700,0.437356689453125,0.6299298881649971,0.18330314199626443,0.43922611452341076
1772793792817401600,0.447401611328125,0.6117419050455093,0.1641337466239929,0.4282262893423438
1772793792827447600,0.457447509765625,0.557325255203247,0.16011925028562546,0.3798138483509421
1772793792837493800,0.46749365234375,0.3945739028483629,0.13596505223810673,0.36083588389754295
1772793792847539700,0.477539794921875,0.15215455501675604,0.12030804890096188,0.3481445984981954
1772793792857585700,0.487585693359375,-0.08262801432609558,0.16750936053693294,0.3346636240258813
1772793792867630800,0.497630859375,-0.2649345465004444,0.2099310366809368,0.33529753801524637
1772793792877676500,0.507676513671875,-0.388894688168168,0.19008418043851852,0.35900370003432036
1772793792887722500,0.517722412109375,-0.4650181429058313,0.174447050845623,0.37942075738012787
1772793792897768400,0.5277685546875,-0.5047171160876751,0.15411387239098548,0.3744973295032978
1772793792907814400,0.537814453125,-0.4996861361831426,0.1548667365849018,0.2945009788550436
1772793792917860600,0.547860595703125,-0.48180268896818157,0.13983750975728035,0.2593051623113453
1772793792927905500,0.557905517578125,-0.4580652550280094,0.13903496120274067,0.2128708895251155
1772793792937951500,0.567951416015625,-0.42506665626764295,0.11382044044733047,0.18657193453386425
1772793792947997700,0.577997802734375,-0.3847486744046211,0.10173077420294284,0.16780863574445246
1772793792958043600,0.588043701171875,-0.36516193040311334,0.11524082863926886,0.12883651553243397
1772793792968089600,0.598089599609375,-0.40213118636012074,0.09200666804611682,0.14315963991731404
1772793792978134500,0.608134521484375,-0.4241045332372188,0.09692425070405006,0.14004326146245002
1772793792988180700,0.6181806640625,-0.4049924210101366,0.12342822674810885,0.169714615496248
1772793792998226700,0.628226806640625,-0.3501648522794246,0.176696291077137,0.19268661802187562
1772793793008272600,0.638272705078125,-0.2781827351301908,0.1879185268372297,0.2247472052797675
1772793793018318600,0.648318603515625,-0.23920798456966877,0.17089841845333575,0.2570212891578674
1772793793028363800,0.65836376953125,-0.24550328532159327,0.17578735953867433,0.2680211143389344
1772793793038409700,0.66840966796875,-0.24780454800128934,0.19444880538880824,0.2526426356822252
1772793793048455700,0.67845556640625,-0.2428402035921812,0.22318390148580072,0.21775763865336775
1772793793058501600,0.688501708984375,-0.23690905997753142,0.2169979063272476,0.18072715402841566
1772793793068547800,0.6985478515625,-0.1977320648431778,0.22864508950114248,0.1597119846589863
1772793793078592800,0.7085927734375,-0.14763970794081688,0.23145897787809372,0.15725436237379908
1772793793088638700,0.718638671875,-0.0991442648410797,0.18823124604821204,0.1730151183463633
1772793793098684700,0.7286845703125,-0.05562777919769287,0.13479133228361606,0.1931551123164594
1772793793108731000,0.73873095703125,0.02284136188328266,0.09132686908841132,0.17876476791426538
1772793793118776800,0.74877685546875,0.10483867709040641,0.07201368133127689,0.17497662767767905
1772793793128821800,0.75882177734375,0.12807400672733782,0.0775420893639326,0.16775529812201856
1772793793138868000,0.768867919921875,0.10327274294793605,0.06822071878910065,0.18536650426685808
1772793793148914000,0.778913818359375,0.09272153831720352,0.0538660302221775,0.19179039983451365
1772793793158959900,0.7889599609375,0.05618658212423324,0.0815986712783575,0.19497545961141585
1772793793169005800,0.799005859375,0.022046412113308905,0.10785890169441699,0.18835005012229084
1772793793179050800,0.80905078125,0.007111877831816673,0.14195406351983547,0.20789748502671718
1772793793189096700,0.8190966796875,0.021512743628025053,0.17143559406995773,0.24242533918097614
1772793793199142700,0.829142578125,0.02380290039181709,0.1789127980828285,0.2901782933503389
1772793793209188600,0.839188720703125,-0.007211246553063392,0.17780980527698992,0.28369901433363554
1772793793219234800,0.84923486328125,-0.02709434315264225,0.18826456379592418,0.2883336883969605
1772793793229279700,0.85927978515625,-0.07217500937283039,0.20256138469576834,0.2958333965025842
1772793793239325700,0.86932568359375,-0.11545534817278384,0.2054910084068775,0.29644714448675513
1772793793249371600,0.87937158203125,-0.16421557968854902,0.19228665891885757,0.3131472271360457
1772793793259417900,0.88941796875,-0.17169512178897856,0.17841361638903616,0.3221531020209193
1772793793269463800,0.8994638671875,-0.20072306335270404,0.16725509351491927,0.3020107699632644
1772793793279508700,0.9095087890625,-0.1661386567056179,0.13880465957820415,0.28421134776994583
1772793793289555000,0.919554931640625,-0.14277064059972763,0.14085107071399688,0.2720060923218727
1772793793299601000,0.929600830078125,-0.1232300738275051,0.15725158589482308,0.27468787875175477
1772793793309646800,0.939646728515625,-0.09290040201544761,0.15383797805905342,0.2703979264728725
1772793793319692800,0.94969287109375,-0.09853986920714378,0.15806407132148742,0.2763003554496914
1772793793329737700,0.95973779296875,-0.09934183323979377,0.1626829632937908,0.2622570709194988
1772793793339783700,0.96978369140625,-0.11980302198827265,0.15724749424159526,0.2708154212325811
1772793793349829600,0.97982958984375,-0.1394908882766962,0.12735036862790583,0.2533467653635889
1772793793359875600,0.98987548828125,-0.13232172729969024,0.13428630537092684,0.2121650062780827
1772793793369921800,0.999921875,-0.1391466048836708,0.10173311229050158,0.1939320149730891
1772793793379966700,1.009966796875,-0.13174421967267988,0.08493804483413696,0.17915274431854486
1772793793390012700,1.0200126953125,-0.08912380608618259,0.11159282752573489,0.13568323962204157
1772793793400058600,1.03005859375,-0.11764964334666728,0.06374912633299827,0.10574709717221557
1772793793410104800,1.040104736328125,-0.20274550909101963,0.02149462344944477,0.06445150244869291
1772793793420150800,1.05015087890625,-0.26282149986922737,0.02377075168788433,0.03515219659768045
1772793793430195700,1.06019580078125,-0.2618213829159736,0.04865151044428348,0.013465776903182267
1772793793440242000,1.070241943359375,-0.23179741605222223,0.05885200194120407,0.023746274833753703
1772793793450287900,1.080287841796875,-0.18239128784835337,0.08118950595557689,0.0666461629487574
1772793793460333800,1.090333740234375,-0.15216215380132198,0.10712591124475002,0.12040676003508269
1772793793470379800,1.1003798828125,-0.07978314628899097,0.1245025779813528,0.14520853527113795
1772793793480425000,1.110425048828125,-0.010625438910722733,0.12384674442112445,0.18892770387977362
1772793793490471000,1.120470947265625,0.004599602749943733,0.10251870971024035,0.19168825463429093
1772793793500516600,1.1305166015625,-0.0003717559218406677,0.12590016981959343,0.2266461707688868
1772793793510562600,1.1405625,0.03428454691767693,0.15077508335709572,0.21319880630522964
1772793793520608800,1.15060888671875,0.08112111689448356,0.17161854942142962,0.23202421054542063
1772793793530653700,1.16065380859375,0.08842062625288963,0.1478267549455166,0.24851518048867582
1772793793540699600,1.17069970703125,0.042055180919170376,0.14240414537489413,0.18529994183667003
1772793793550745600,1.18074560546875,-0.04114508033692837,0.14898527733087538,0.16024733364470303
1772793793560791800,1.190791748046875,-0.07273498134315014,0.14367489596307276,0.16058080338276923
1772793793570837800,1.200837646484375,-0.08913608104586601,0.12519406737685204,0.1640215914864093
1772793793580882700,1.210882568359375,-0.08831950396597385,0.12133154672980308,0.16805800739564
1772793793590929000,1.220928955078125,-0.10145078821778297,0.11954349426925182,0.17638949015028774
1772793793600974800,1.230974853515625,-0.11134089859127998,0.1057324110597372,0.19385273919180035
1772793793611020800,1.241020751953125,-0.07742343142032623,0.12239362300336361,0.19151720891632137
1772793793621066800,1.251066650390625,-0.07790566197931766,0.1177010812729597,0.18535751724280417
1772793793631112000,1.26111181640625,-0.10350830526947974,0.10726678102016449,0.20771927891559896
1772793793641158000,1.271157958984375,-0.10523673649728298,0.12339373995661734,0.20580577344447373
1772793793651203800,1.281203857421875,-0.09867664732933044,0.13242927932739257,0.20184286116287112
1772793793661249800,1.291249755859375,-0.14574001179933546,0.10429624077677727,0.20217596557475626
1772793793671296000,1.3012958984375,-0.2099485723376274,0.10000175845324992,0.19867855191305278
1772793793681340700,1.311340576171875,-0.2626718622654676,0.12101473586559294,0.18580613779313862
1772793793691386600,1.32138671875,-0.29113515568375586,0.14986381373107432,0.2104893281508237
1772793793701432800,1.331432861328125,-0.29964930152893066,0.1486976925611496,0.22481734790652988
1772793793711478800,1.341478759765625,-0.2978904751628637,0.14869652351737023,0.23183044153898952
1772793793721524700,1.351524658203125,-0.2978916442066431,0.1775017622411251,0.26720124932341277
1772793793731569700,1.361569580078125,-0.28169746525287626,0.21429215449988842,0.3085258509457111
1772793793741615900,1.371615966796875,-0.2553004567146301,0.23274141890406608,0.30975765776298936
1772793793751661800,1.381661865234375,-0.19431904152929783,0.21432430320382118,0.32004984613135457
1772793793761707800,1.391707763671875,-0.13853928664028645,0.2161567793279886,0.31797859281525015
1772793793771753700,1.401753662109375,-0.09319617009162902,0.218809924185276,0.3143608407095074
1772793793781799000,1.411798828125,-0.04795242226421833,0.22443828546106814,0.2878787842363119
1772793793791844900,1.421844970703125,-0.0533475593060255,0.18769933112859724,0.27972558065801856
1772793793801890800,1.431890869140625,-0.03545242165327072,0.19364742587804792,0.2792410120114684
1772793793811936800,1.441936767578125,-0.03624094168245792,0.17192250080406665,0.30205658186636863
1772793793821983000,1.45198291015625,-0.04845744917690754,0.15191782365143297,0.3115527244862169
1772793793832027600,1.462027587890625,-0.07233809098005295,0.15303075332939625,0.3123194710750133
1772793793842073600,1.472073486328125,-0.07835048313736916,0.16441899330615997,0.27840536490492523
1772793793852119800,1.482119873046875,-0.10741700314581394,0.16042086358070373,0.26411526600681245
1772793793862165800,1.492165771484375,-0.1388596046358347,0.1310509767115116,0.27882388257794083
1772793793872210700,1.502210693359375,-0.12800327957868576,0.1347679514080286,0.29192710977904496
1772793793882256600,1.512256591796875,-0.07831891895532607,0.14904256047606468,0.2716835093040019
1772793793892302800,1.522302734375,-0.04954933606684207,0.14275778111815451,0.24245171573124824
1772793793902348800,1.532348876953125,-0.07941314393281936,0.12138649178743362,0.24065138831101357
1772793793912394800,1.542394775390625,-0.06991817035675048,0.1277963588297367,0.20401538289636373
1772793793922440000,1.55243994140625,-0.04623158982098102,0.12780629570186136,0.18689912066161632
1772793793932486000,1.56248583984375,-0.03366846084594726,0.10023848981857299,0.179116065569967
1772793793942531800,1.57253173828125,-0.05736790086328983,0.07319967624545097,0.15918737626299262
1772793793952577800,1.582577880859375,-0.0939636473327875,0.09470014491379261,0.138302774470672
1772793793962623700,1.592623779296875,-0.06718611504435539,0.13039105149805544,0.1698909219112247
1772793793972669000,1.6026689453125,-0.06837327900230884,0.12098550977110863,0.1755515049561858
1772793793982714600,1.612714599609375,-0.1455459505319595,0.0928746830523014,0.1772425998482853
1772793793992760600,1.622760498046875,-0.18877718949317931,0.11452420480251312,0.1488909501109272
1772793794002806800,1.632806884765625,-0.16813070730566979,0.11888532262146473,0.15732223997823894
1772793794012852700,1.642852783203125,-0.1448626444429159,0.10963117206394672,0.1701688620697707
1772793794022897700,1.652897705078125,-0.12162556124031543,0.11475859808027744,0.1619018959186971
1772793794032943600,1.662943603515625,-0.08097498642206191,0.12097966455221175,0.1102244617819786
1772793794042989800,1.67298974609375,-0.0718733960777521,0.10613748472929001,0.11407887218780816
1772793794053035800,1.683035888671875,-0.0587023643374443,0.06896832228600978,0.10662541437670588
1772793794063081500,1.69308154296875,-0.03255553116798401,0.09096329647302627,0.08417465924620628
1772793794073126400,1.70312646484375,-0.04457563930749893,0.06693944680690765,0.09534224220961332
1772793794083172400,1.71317236328125,-0.06374912633299827,0.06131693075001239,0.09452581126019358
1772793794093218300,1.72321826171875,-0.06911211467087268,0.060761634954810136,0.11644041368737816
1772793794103264300,1.73326416015625,-0.06255261002480983,0.09095920481979847,0.14730864935554563
1772793794113310500,1.743310546875,-0.07021686104238033,0.0916372502118349,0.16608093516901135
1772793794123355400,1.75335546875,-0.08452595690190792,0.10682955864667892,0.1932995622884482
1772793794133401300,1.7634013671875,-0.12466565958857535,0.13692249909341334,0.19252762806788085
1772793794143447300,1.773447265625,-0.12880056743621826,0.13562427597641943,0.19700126635059714
1772793794153493500,1.783493408203125,-0.10042729038894176,0.1641173800110817,0.21989560053013263
1772793794163538400,1.793538330078125,-0.044400282740592954,0.18032734105587003,0.2328813388314098
1772793794173584400,1.80358447265625,-0.0031722002953290937,0.16803250762820243,0.25427140592783687
1772793794183630600,1.813630615234375,0.04841770168840885,0.17407061874866483,0.2649664760086685
1772793794193676500,1.823676513671875,0.07466215001344681,0.15166589471697806,0.2593902102462947
1772793794203722500,1.833722412109375,0.06322890185117722,0.12788228354752063,0.2469561144784093
1772793794213767200,1.84376708984375,0.08080664411783219,0.12611819648444653,0.25412944017387923
1772793794223813400,1.8538134765625,0.10921674604415893,0.12785247293114663,0.25716939239166675
1772793794233859300,1.863859375,0.11515256583392619,0.07968143948018551,0.24902429905459283
1772793794243905300,1.8739052734375,0.10797989772558211,0.08604805190265179,0.2228171870652586
1772793794253951200,1.883951171875,0.11373393120765686,0.10417115309238434,0.21325711236372588
1772793794263996400,1.893996337890625,0.06787351278662682,0.10796060850322246,0.2195408688083291
1772793794274042400,1.90404248046875,0.07124386600255966,0.12003390813469886,0.24548962212242184
1772793794284088300,1.91408837890625,0.06840425866246223,0.1462093828767538,0.24349881363138556
1772793794294134300,1.92413427734375,0.04976093299090862,0.15816285552084444,0.27462716154046357
1772793794304179500,1.934179443359375,0.027286066332459447,0.15742577341794967,0.290066722734645
1772793794314225400,1.944225341796875,0.0471954664170742,0.15375263786315918,0.2946338845197111
1772793794324271400,1.954271240234375,0.05731938554644584,0.12966624435484408,0.2668383342951536
1772793794334317600,1.964317626953125,0.048536359632015226,0.1186813244819641,0.2818299325261265
1772793794344363500,1.974363525390625,0.06039981590509414,0.12570201689898966,0.2827751774869859
1772793794354408400,1.984408447265625,0.05124620311260223,0.1357961254119873,0.2881104741003364
1772793794364454400,1.994454345703125,0.024505495703220366,0.1031529159605503,0.2867804676055908
1772793794374500400,2.004500244140625,0.006170797589421272,0.10692658928036688,0.24895401029735803
1772793794384546300,2.01454638671875,-0.029327801293134687,0.1423439396202564,0.25873766462169584
1772793794394592300,2.02459228515625,-0.07316285136640072,0.13670096529722212,0.24539763299003242
1772793794404637400,2.034637451171875,-0.0909317322909832,0.15045067370831966,0.2514906891681254
1772793794414683400,2.044683349609375,-0.10488543884158134,0.18490122484266758,0.27109043878167866
1772793794424729300,2.054729248046875,-0.14646306537687778,0.17906886542737482,0.2941105912979692
1772793794434775300,2.064775390625,-0.16129238571822643,0.17414952920377252,0.28079350215047594
1772793794444821200,2.0748212890625,-0.19237375268042087,0.18641396749317646,0.28975590321980416
1772793794454866400,2.084866455078125,-0.2079752264380455,0.17284195373654365,0.2900160154607147
1772793794464912400,2.094912353515625,-0.2173591408550739,0.19165479075610636,0.28373817730024453
1772793794474958300,2.104958251953125,-0.18169161514639853,0.20249065754711626,0.277816459101066
1772793794485004500,2.115004638671875,-0.1711445021688938,0.2125017639517784,0.2947227318469435
1772793794495049500,2.125049560546875,-0.15131050540804863,0.20522797355651853,0.2816533338502049
1772793794505095400,2.135095458984375,-0.17705051134228705,0.20829963608682153,0.28075784631520506
1772793794515141400,2.145141357421875,-0.1915314566373825,0.1624520771473646,0.2882116694524884
1772793794525187600,2.1551875,-0.1848866117954254,0.1613590212136507,0.26946159547083076
1772793794535233500,2.165233642578125,-0.15358780269026756,0.1715671114951372,0.249105109205842
1772793794545278200,2.1752783203125,-0.11102291868329048,0.1653022058814764,0.2372100156854838
1772793794555324400,2.185324462890625,-0.07595920408666133,0.15970014809072017,0.240565244397521
1772793794565370400,2.195370361328125,-0.05422141953110694,0.1395773975163698,0.21447394080758095
1772793794575416300,2.205416259765625,-0.04123100505471229,0.14238134902119637,0.19987075737230478
1772793794585462300,2.215462158203125,-0.043534021300077434,0.14396657238602636,0.18276435894444584
1772793794595507500,2.225507568359375,-0.04374620274603366,0.09700433020293713,0.17072576530016959
1772793794605553400,2.235553466796875,-0.04822656303048133,0.07462532513439654,0.17067951500564812
1772793794615599400,2.245599365234375,-0.07259060443639755,0.07568272523283957,0.1633263026986271
1772793794625645300,2.255645263671875,-0.051435003682971,0.09208908563256263,0.15795505798906087
1772793794635690500,2.2656904296875,-0.01408113232254982,0.09563421089351176,0.16255159199908376
1772793794645736400,2.275736328125,0.02642272750139236,0.08103986835181713,0.1643395713943988
1772793794655782400,2.285782470703125,0.03226794639825821,0.10942191322743892,0.16320391842797397
1772793794665828400,2.295828369140625,0.07656301519870758,0.13239596157968042,0.17241802923604846
1772793794675874600,2.30587451171875,0.10103928480744362,0.13176117080748082,0.17628756414577365
1772793794685919200,2.315919189453125,0.10269055914580821,0.1302975279957056,0.22469408685304224
1772793794695965200,2.325965087890625,0.1133224277973175,0.14257365672290323,0.21590309682786463
1772793794706011400,2.336011474609375,0.12531798601746558,0.11953764905035495,0.2215413219105452
1772793794716057300,2.346057373046875,0.12155366504788398,0.12741174342632294,0.2542341426573694
1772793794726102300,2.356102294921875,0.13682371489405631,0.1195399871379137,0.27049619921557605
1772793794736148500,2.3661484375,0.11599018570184708,0.10900281103253363,0.29993367142826316
1772793794746194400,2.3761943359375,0.07669511714577674,0.0935199952185154,0.2982833469379693
1772793794756240400,2.386240478515625,0.05413724837899208,0.0965080711185932,0.2632094762735069
1772793794766286300,2.396286376953125,0.030503859335184097,0.10426116946339607,0.21365853277146815
1772793794776331500,2.40633154296875,0.021192425632476804,0.09638532152175902,0.1625296724282205
1772793794786377500,2.41637744140625,0.012919687327742575,0.08691489786505699,0.16394414233602583
1772793794796423400,2.42642333984375,0.007598784565925598,0.06286825184524059,0.12566614186801014
1772793794806469400,2.436469482421875,-0.0058043023645877835,0.07928162650763988,0.0961556044191122
1772793794816515300,2.446515380859375,-0.03277531139850616,0.07401976045668125,0.09708689391985535
1772793794826560500,2.456560546875,-0.06515080982446671,0.06957388696372509,0.10159100040607154
1772793794836606500,2.4666064453125,-0.0989484500080347,0.07751461683511733,0.09537607141397893
1772793794846652400,2.47665234375,-0.10738193183243273,0.08286649925708771,0.11938413898907602
1772793794856698400,2.486698486328125,-0.09445932189524173,0.08866787901222706,0.14328326629698276
1772793794866743300,2.496743408203125,-0.048986441487073894,0.08230126658976078,0.16897117671780287
1772793794876789200,2.506789306640625,-0.015974983245134352,0.10635668043792247,0.20446721831709144
1772793794886835500,2.51683544921875,-0.009070026162266731,0.131121119338274,0.19924393071085214
1772793794896881400,2.52688134765625,-0.06255670167803765,0.11929799507558345,0.22840981944054364
1772793794906927400,2.53692724609375,-0.05601590173244476,0.12383797659277915,0.23346695669963954
1772793794916972300,2.54697216796875,-0.060011108848452566,0.14802023169100284,0.21130042533800006
1772793794927018500,2.5570185546875,-0.10058978747427463,0.13300211077928542,0.23453407447449862
1772793794937064400,2.567064453125,-0.15899463016986845,0.13362462659180163,0.22714089548327027
1772793794947110400,2.5771103515625,-0.15151976424455643,0.15052958416342735,0.21602153557576237
1772793794957155600,2.587155517578125,-0.14271628006398676,0.14508651632666586,0.21427359592989087
1772793794967201500,2.597201416015625,-0.1732446893185377,0.1329424895465374,0.21565124095864593
1772793794977247500,2.60724755859375,-0.21650340080857275,0.15408113916516303,0.20174648811630905
1772793794987293400,2.61729345703125,-0.1990074916064739,0.1753098051548004,0.20244652614444494
1772793794997339400,2.62733935546875,-0.23305238454937935,0.16327917562127112,0.23759609239362178
1772793795007384300,2.63738427734375,-0.25671616873145103,0.17342121492922305,0.248353048729524
1772793795017430300,2.64743017578125,-0.25700842967629434,0.1813748042821884,0.24418781880885362
1772793795027476200,2.657476318359375,-0.3229828308433294,0.19349603470861912,0.23420550010725855
1772793795037522400,2.6675224609375,-0.3679214582443237,0.20527590435147283,0.23231574083790182
1772793795047567400,2.6775673828125,-0.2966197245746851,0.20515724640786648,0.2550706665467471
1772793795057614000,2.687614013671875,-0.21995500256717204,0.1794441284805536,0.23465127111338077
1772793795067660000,2.697659912109375,-0.17083412104547022,0.15662439390718935,0.24972324110418556
1772793795077706000,2.7077060546875,-0.10548048212528228,0.1483615924745798,0.2634294756997376
1772793795087752200,2.717752197265625,-0.04587152433693409,0.15330781670510768,0.25355697404816746
1772793795097797000,2.727797119140625,0.012678864309191703,0.14285305818617344,0.20201127653233705
1772793795107843000,2.737843017578125,0.07741758620142936,0.12423778956532477,0.19160547172166406
1772793795117889300,2.74788916015625,0.13495792102217674,0.10750818856060504,0.1580322148784995
1772793795127935200,2.757935302734375,0.15373568672835827,0.08409399522542953,0.16831833883225916
1772793795137981200,2.767981201171875,0.1534410876959562,0.08789397203028201,0.14864011715501546
1772793795148026000,2.778026123046875,0.14538111535906792,0.09565876081287861,0.17574015939608215
1772793795158072000,2.788072021484375,0.12880875074267387,0.09068623309731483,0.19287929104976356
1772793795168118000,2.798117919921875,0.141246207511425,0.0809890149474144,0.16717121462374926
1772793795178164000,2.8081640625,0.13585165499150753,0.09493687627911566,0.15277765535116195
1772793795188209200,2.818209228515625,0.07611877856254577,0.08019523422122002,0.17906338553465903
1772793795198255000,2.828255126953125,0.03801496561765671,0.0970528455197811,0.16339154995456337
1772793795208301000,2.838301025390625,0.028948446586728096,0.14731354472637176,0.1853572249818593
1772793795218347000,2.848346923828125,0.021223405292630195,0.14494623107314109,0.21031696725860236
1772793795228393000,2.85839306640625,0.03477554530501365,0.14766133525073527,0.2435916795466095
1772793795238438100,2.868438232421875,0.05144084890186786,0.17069266674816608,0.24871333340927956
1772793795248484000,2.878484130859375,0.047443888220191,0.16689268994331358,0.27965536496601995
1772793795258530000,2.888530029296875,0.033333529803156854,0.14614216285943984,0.31866197196952994
1772793795268576300,2.898576171875,0.07288286538124084,0.1369680918008089,0.2799492333460599
1772793795278621200,2.90862109375,0.041133389899134634,0.13932429953813552,0.24378756744489072
1772793795288667100,2.918667236328125,-0.018510639202594756,0.13337269765734672,0.24293840326964855
1772793795298713000,2.928713134765625,-0.0426291814148426,0.14340601589381693,0.21549868074543774
1772793795308759300,2.93875927734375,-0.047553778335452074,0.1547311275064945,0.20493483582884073
1772793795318804000,2.948803955078125,-0.09061258333921432,0.12811726134717463,0.19080358075425027
1772793795328850000,2.958849853515625,-0.14765549003183842,0.10752221708595752,0.1898397041581571
1772793795338896100,2.968896240234375,-0.16459902604818344,0.12862170373797416,0.16367087835259736
1772793795348942000,2.978942138671875,-0.1847211921006441,0.16127251197397707,0.18239771758913992
1772793795358988000,2.988988037109375,-0.20803484767079353,0.13576806836128233,0.2162639660295099
1772793795369033200,2.999033203125,-0.2600111186236143,0.1417728617340326,0.22456045053601265
1772793795379079200,3.0090791015625,-0.24409108043611047,0.16238368808627127,0.20706373761631547
1772793795389125000,3.019125,-0.2426215924054384,0.1981283706843853,0.24998225736655294
1772793795399171000,3.029171142578125,-0.23668051191866396,0.1925643068164587,0.26636326412931083
1772793795409216300,3.03921630859375,-0.20396423723101614,0.18984218837618827,0.2873964806120842
1772793795419262200,3.04926220703125,-0.16741116085946559,0.1796843669772148,0.29088804905489085
1772793795429308200,3.05930810546875,-0.12548632832169532,0.1829997751355171,0.33104273011498153
1772793795439354000,3.06935400390625,-0.08305939148068428,0.18027005791068076,0.3453276413813233
1772793795449400000,3.079400146484375,-0.042760698840022086,0.16659575282335282,0.3375695015352219
1772793795459445000,3.089445068359375,0.010596212816238402,0.16891513568162916,0.32707010015696286
1772793795469491000,3.099490966796875,0.09324877706170082,0.169252989333868,0.3082095515381545
1772793795479537000,3.109536865234375,0.13547288480699063,0.1348947926580906,0.27637203244641423
1772793795489583000,3.1195830078125,0.13557634518146514,0.11201777493953705,0.2731927448231727
1772793795499628000,3.1296279296875,0.12972469654381275,0.08615501940846443,0.2600627026803791
1772793795509674000,3.139674072265625,0.1174924069583416,0.07408347334265708,0.24306056834459303
1772793795519720200,3.14972021484375,0.1208516542583704,0.054554012486338614,0.2538718852162361
1772793795529766100,3.15976611328125,0.0784486828148365,0.06627426089644432,0.25258959032073613
1772793795539812000,3.16981201171875,0.05513736533224582,0.0854243670463562,0.24210772459916768
1772793795549857000,3.17985693359375,-0.008110241219401359,0.09656418522000312,0.23955986674726007
1772793795559903200,3.1899033203125,-0.04054010018110275,0.13616262063682077,0.28103848988749086
1772793795569949200,3.19994921875,-0.11311550704836845,0.14745266093611717,0.2956215073175728
1772793795579995100,3.2099951171875,-0.13426818519234657,0.18337386914491652,0.31341435363963244
1772793795590040300,3.220040283203125,-0.1089344219714403,0.2198433588862419,0.30783881852962075
1772793795600086300,3.230086181640625,-0.08618950619995594,0.22408815684914588,0.3084777740202844
1772793795610132200,3.24013232421875,-0.055441316714882845,0.22023849568367004,0.3095309363350272
1772793795620178000,3.250177978515625,-0.04651742102503776,0.225930569845438,0.27016156043373046
1772793795630224000,3.260223876953125,-0.048774260041117665,0.1873445263415575,0.2539182085759938
1772793795640269000,3.27026904296875,-0.07357961547374725,0.16627426578402518,0.2531372142661363
1772793795650315000,3.28031494140625,-0.10564356373250484,0.1651274338364601,0.24758038385659456
1772793795660361000,3.29036083984375,-0.09523381339907645,0.14638532396554946,0.2225106783993542
1772793795670407200,3.3004072265625,-0.13636954138576984,0.13876549661159515,0.2373214401707053
1772793795680452000,3.3104521484375,-0.1532113705933094,0.13206746027767657,0.22095877278223633
1772793795690498000,3.320498046875,-0.17935060497820376,0.12469196307361126,0.20958492665700612
1772793795700544000,3.3305439453125,-0.2139484556287527,0.1050917750686407,0.18304098392874002
1772793795710590200,3.340590087890625,-0.24124387431144714,0.08839081563651562,0.17961795067749917
1772793795720635100,3.35063525390625,-0.20925942102968692,0.05561433519423008,0.18197518132813273
1772793795730681000,3.36068115234375,-0.16120938360989093,0.05989888064563274,0.16792919338420031
1772793795740727300,3.370727294921875,-0.13552373821139335,0.06498246752023697,0.1740912962105125
1772793795750773200,3.380773193359375,-0.07939911540746689,0.06838672300577163,0.17556180715449154
1772793795760819200,3.390819091796875,-0.06072656364142894,0.08522679864764213,0.15480711535215377
1772793795770864000,3.400864013671875,-0.0526461330384016,0.1114969659358263,0.14200930083841085
1772793795780910000,3.41091015625,-0.02780044559538364,0.12821370745897293,0.13771109218783675
1772793795790956000,3.4209560546875,-0.0132715695053339,0.14682663799226284,0.15635748659931123
1772793795801002000,3.431001953125,0.0007937807261943817,0.1390291159838438,0.15311265945918856
1772793795811047200,3.441047119140625,0.004976034846901893,0.13267887017428875,0.15058160661160944
1772793795821093000,3.451093017578125,-0.0026128128468990326,0.11913666703402995,0.16004055902622638
1772793795831139000,3.46113916015625,-0.019881927555799483,0.0937900443315506,0.18126761758066712
1772793795841185000,3.47118505859375,0.0045317982107400895,0.11680208660662174,0.18300357452780008
1772793795851231000,3.48123095703125,-0.029061259311437604,0.1263192720144987,0.2328698675893247
1772793795861276200,3.491276123046875,-0.023845570489764212,0.13751578881144522,0.2700488938394934
1772793795871322000,3.501322021484375,-0.04055354418456554,0.13683365176618098,0.25534729153104124
1772793795881368000,3.5113681640625,-0.03356616951525211,0.14701660760641097,0.2662703982140869
1772793795891414300,3.521414306640625,-0.04539221638739109,0.13748773176074028,0.2569315650478005
1772793795901459200,3.531459228515625,-0.08108253844976425,0.1426923146665096,0.2307684383306652
1772793795911505000,3.5415048828125,-0.09085808253288269,0.147546184438467,0.18965484911054373
1772793795921551000,3.551551025390625,-0.11334990032613276,0.13640052104592323,0.1655061309557408
1772793795931597000,3.56159716796875,-0.13702595946788787,0.1327110188782215,0.144832176239416
1772793795941642000,3.57164208984375,-0.1616162108451128,0.11050386324524879,0.12009418695457279
1772793795951688000,3.58168798828125,-0.1691629729628563,0.11884148347973823,0.12027962652407585
1772793795961734100,3.591734130859375,-0.1326683487802744,0.10287994423806666,0.10932882811650634
1772793795971780000,3.601780029296875,-0.09305120866298675,0.10102467176020145,0.13114033549539744
1772793795981826000,3.611825927734375,-0.055523734301328655,0.0888923354178667,0.12996077032200992
1772793795991871200,3.621871337890625,-0.024008067575097082,0.093254037758708,0.09929923620708286
1772793796001917200,3.631917236328125,-0.018366846817731857,0.09608195466101169,0.09444032493382692
1772793796011963100,3.641963134765625,-0.051852936834096905,0.07339256846904754,0.11418810471594333
1772793796022009000,3.652009033203125,-0.0508989971101284,0.0880167216271162,0.11607742559388279
1772793796032054300,3.66205419921875,-0.033814006796479223,0.09107143302261829,0.10434899387732148
1772793796042100200,3.672100341796875,-0.0034440029740333555,0.07761281651258468,0.11261479098461567
1772793796052146200,3.682146240234375,-0.018155249893665314,0.08713701618313789,0.12451214952729642
1772793796062191600,3.692191650390625,-0.00658171647787094,0.08282441368103027,0.1150033666215837
1772793796072236800,3.70223681640625,-0.0049824645876884455,0.054229602837562556,0.0809795895319432
1772793796082282800,3.71228271484375,0.02518763274848461,0.027364976787567136,0.029332185207307338
1772793796092328700,3.72232861328125,0.009812368962168694,-0.024520693272352217,0.000970817793533206
1772793796102375000,3.732375,0.010248422291874885,-0.012070961543917656,0.01478964591808617
1772793796112420900,3.7424208984375,-0.011668225961923599,0.05398059651255607,0.09893135274276137
1772793796122465500,3.752465576171875,-0.056607437884807585,0.10725041440725326,0.12593699469864367
1772793796132511500,3.762511474609375,-0.09276830006837844,0.1262368544280529,0.160399820792675
1772793796142557700,3.7725576171875,-0.07118132216036319,0.12188976513445376,0.1947834441706538
1772793796152603600,3.782603759765625,-0.050232642155885694,0.11511223382353782,0.21096644414328036
1772793796162648600,3.792648681640625,-0.08990414280891418,0.12822656694054602,0.19294870302416384
1772793796172694800,3.80269482421875,-0.14138064754605292,0.11735504431426524,0.19167283786945044
1772793796182740700,3.81274072265625,-0.09996142644286155,0.11961948211491107,0.16168671879805624
1772793796192786700,3.82278662109375,-0.09533610472977161,0.11165420232415199,0.14957009148150682
1772793796202832000,3.832831787109375,-0.07825403702557086,0.11445113956630229,0.1881243516076356
1772793796212877800,3.8428779296875,0.0036567689418792724,0.15356675990223884,0.21242453399710357
1772793796222923800,3.852923828125,0.05994155074357986,0.17459259679615496,0.24321707408055662
1772793796232969700,3.8629697265625,-0.0031739538609981536,0.1884860975921154,0.282274753684178
1772793796243015700,3.873015625,-0.06888356661200523,0.19011749818623064,0.2692589855708182
1772793796253060900,3.883060791015625,-0.11268939059078693,0.21187632552981375,0.2636807470470667
1772793796263106800,3.89310693359375,-0.09743512283563613,0.21815409062504768,0.3428215037792921
1772793796273152800,3.90315283203125,-0.06809329301714896,0.2201911494106054,0.42374490614458915
1772793796283198700,3.91319873046875,0.013811083209514618,0.25999475201070305,0.42036403153464197
1772793796293243600,3.92324365234375,0.052337505480647084,0.289396787583828,0.42435777734592556
1772793796303289600,3.93328955078125,0.0445464132130146,0.26334464696049686,0.3958817705765366
1772793796313335600,3.94333544921875,0.008965396744012833,0.24796938317418096,0.39760070332363245
1772793796323381800,3.9533818359375,-0.0007855974197387695,0.24969898344576358,0.3472445809185505
1772793796333426700,3.9634267578125,-0.02228898869752884,0.23466449592113495,0.36910643024519085
1772793796343472600,3.97347265625,-0.04946633395850658,0.2121568960368633,0.3831903390467167
1772793796353518800,3.983518798828125,-0.029241292053461074,0.2154471697539091,0.38252602991908785
1772793796363564800,3.993564697265625,0.018484920239448546,0.22172785745859144,0.36381051579415796
1772793796373609700,4.003609619140625,0.04382452867925167,0.19899404760301112,0.36403190345987674
1772793796383655700,4.01365576171875,0.04115735529661178,0.1648883643835783,0.3067483198791742
1772793796393702000,4.023701904296875,0.02721533918380737,0.14230653021931647,0.2678956613283604
1772793796403747800,4.033747802734375,0.022130583265423772,0.1180892038077116,0.26896928190924224
1772793796413793800,4.043793701171875,-0.023316578179597855,0.11915829434394835,0.252003826322034
1772793796423838700,4.053838623046875,-0.042322891944646834,0.1014583870023489,0.2361420941930264
1772793796433884700,4.063884765625,-0.043012627774477,0.09226444219946861,0.23406105013526976
1772793796443930600,4.0739306640625,-0.026851766568422315,0.10483692352473735,0.23742153954431414
1772793796453976600,4.0839765625,0.0056231005787849425,0.11625088246464729,0.2352988483019173
1772793796464021800,4.094021728515625,-0.00024549919366836546,0.12519289833307265,0.21917809991054235
1772793796474067700,4.104067626953125,-0.010459434694051742,0.12095920628607272,0.20859555029347537
1772793796484113700,4.11411376953125,0.004064765220880508,0.14710136328041554,0.18566417203918098
1772793796494159600,4.12415966796875,-0.022216507983207703,0.12672843733727931,0.17972813305370508
1772793796504204800,4.134204833984375,-0.05580781193971634,0.09994038365483283,0.17069383579194544
1772793796514250800,4.144250732421875,-0.05573883835673332,0.12669804219901562,0.1601546869251877
1772793796524296700,4.154296630859375,-0.026689269483089445,0.1445277134001255,0.1692705249905586
1772793796534342700,4.1643427734375,-0.03607961364090442,0.15483926405608653,0.1805113193206489
1772793796544387800,4.174387939453125,-0.05623392839729786,0.12477554970383643,0.1842640959829092
1772793796554433800,4.184433837890625,-0.04845978726446628,0.13255728962123392,0.15314502735882995
1772793796564479700,4.194479736328125,-0.06409399424791336,0.10921557700037955,0.13010543948970735
1772793796574526000,4.20452587890625,-0.06651333034932613,0.07163783375620841,0.13231040218807757
1772793796584572000,4.214572021484375,-0.046073768910765645,0.08487199386060237,0.10755356207229197
1772793796594616600,4.224616455078125,-0.006266074657440186,0.11274199756085872,0.10725121812485158
1772793796604662800,4.234662841796875,0.02074526638686657,0.0886702170997858,0.13141191897839308
1772793796614708700,4.244708740234375,-0.0275321500480175,0.05531915163993835,0.1428108995448798
1772793796624754700,4.254754638671875,-0.07849369100034237,0.060868017938733095,0.1283216248128563
1772793796634799600,4.264799560546875,-0.09001286388039588,0.06476327181160449,0.08389730360955
1772793796644845800,4.274845703125,-0.0636129327327013,0.06494856525063514,0.08483852998241782
1772793796654891800,4.284891845703125,-0.057167994377017015,0.07316109780073166,0.13279160983376204
1772793796664937700,4.294937744140625,-0.032658407020568846,0.10705401505231857,0.1462816443953663
1772793796674983000,4.30498291015625,0.02954641247987747,0.12301380072832106,0.16115034689903257
1772793796685028900,4.31502880859375,0.059656304061412806,0.10556874493062496,0.16007555727437137
1772793796695074800,4.32507470703125,0.055072483402490616,0.08828209456503391,0.15539733633026478
1772793796705120800,4.335120849609375,0.036764088773727416,0.11329963144361972,0.162470927978307
1772793796715165700,4.345165771484375,0.006607435441017151,0.11183131245672702,0.15014284986816345
1772793796725211600,4.355211669921875,-0.005589782831072807,0.10243278499245644,0.14023169670663774
1772793796735257600,4.365257568359375,-0.01820201164484024,0.0839689075410366,0.1559455447975546
1772793796745303600,4.375303466796875,-0.04410685275197029,0.0927092633575201,0.15468334284201263
1772793796755348700,4.3853486328125,-0.04867722940742969,0.1215004735559225,0.19717837648317216
1772793796765394700,4.395394775390625,-0.017261515924334524,0.11156827760636806,0.2018238642014563
1772793796775440600,4.405440673828125,-0.029052491483092305,0.07937748809754848,0.20623802738189695
1772793796785486600,4.415486572265625,-0.04892331312298774,0.09816343711018562,0.19829802816286682
1772793796795532800,4.42553271484375,-0.011570026284456253,0.1144984858393669,0.19865042179711162
1772793796805577700,4.43557763671875,0.006602759265899658,0.15029109923243522,0.24567235827818512
1772793796815623700,4.445623779296875,0.002485387074947357,0.14439736501872538,0.2743324894428253
1772793796825670000,4.455669921875,-0.028663784426450727,0.16409283009171485,0.2575951435230672
1772793796835715800,4.4657158203125,-0.08597440214455127,0.15926526380479336,0.27120062115788457
1772793796845760800,4.4757607421875,-0.08241700192391872,0.1627268024355173,0.26636954773962496
1772793796855806700,4.485806640625,-0.11643676042556762,0.18605214844346046,0.2789578111559152
1772793796865853000,4.49585302734375,-0.14290391159057617,0.15771043557822703,0.28733883214071393
1772793796875899000,4.50589892578125,-0.1542389600753784,0.1771837823331356,0.2915869911044836
1772793796885943600,4.515943603515625,-0.1370376499056816,0.1957803462535143,0.29343261897116896
1772793796895989800,4.52598974609375,-0.12419628851115704,0.18923837726414203,0.2973199817985296
1772793796906035700,4.53603564453125,-0.13140578149855137,0.19612404512464998,0.307270882448554
1772793796916081700,4.54608154296875,-0.14334756370484827,0.18677052584588527,0.2659329098880291
1772793796926126600,4.556126708984375,-0.13852934976816175,0.17075462606847286,0.27071868285983797
1772793796936172800,4.5661728515625,-0.14326631516218186,0.18123042737543582,0.23431539022251963
1772793796946218800,4.57621875,-0.10832125850915908,0.16944295894801617,0.22341668732836842
1772793796956264700,4.5862646484375,-0.09339140040278435,0.15251462050080297,0.22367446148172018
1772793796966310700,4.596310546875,-0.057953591796755785,0.11748656173944473,0.2006228178486228
1772793796976355800,4.60635595703125,-0.007528641939163207,0.13008710011541844,0.19507526672407985
1772793796986401800,4.61640185546875,-0.0018389058649539945,0.11571955206692218,0.19781981619186698
1772793796996447700,4.62644775390625,-0.04012918129265308,0.09601064299046992,0.161253076621145
1772793797006493700,4.63649365234375,-0.010389292067289353,0.11932780569195747,0.11156973891109227
1772793797016538600,4.64653857421875,0.008557400465011597,0.11919745731055736,0.13526501420997084
1772793797026584600,4.65658447265625,-0.011325111612677574,0.08922843550443649,0.17074943843670187
1772793797036630500,4.666630615234375,-0.03798340143561363,0.09600070611834526,0.1940717887699604
1772793797046676700,4.6766767578125,-0.02706336349248886,0.10447276638746261,0.20719123645350335
1772793797056721700,4.6867216796875,-0.020469956576824187,0.1201625029504299,0.24146153565011916
1772793797066767600,4.696767578125,-0.017003157249093053,0.11078794088363647,0.2160816682651639
1772793797076813800,4.706813720703125,-0.033362171375751495,0.08926935203671454,0.22753413258455693
1772793797086859800,4.71685986328125,-0.05978782148659229,0.08349953646361827,0.1990560069233179
1772793797096904700,4.72690478515625,-0.04856967737972736,0.0889314983844757,0.18316753291785717
1772793797106950700,4.73695068359375,-0.07796586773395538,0.06887772139310837,0.17878062307052314
1772793797116996900,4.746996826171875,-0.09528583584725857,0.08656009307801724,0.15969919824264941
1772793797127042800,4.757042724609375,-0.09234043004512786,0.099680855935812,0.15490765311717986
1772793797137087700,4.767087646484375,-0.10564297921061515,0.12517302458882332,0.16326375885643063
1772793797147134000,4.777134033203125,-0.09990180521011352,0.1281926646709442,0.17129691625162957
1772793797157180000,4.787179931640625,-0.09625614218413829,0.15192951408922672,0.1702998680382967
1772793797167225900,4.797225830078125,-0.10076455951929092,0.1231868192076683,0.2264598544165492
1772793797177270500,4.8072705078125,-0.10783493629693984,0.13967910432517527,0.2524314771495759
1772793797187316700,4.817316650390625,-0.0675520257472992,0.1565706178933382,0.2553222301550209
1772793797197362700,4.82736279296875,-0.03413081766068935,0.16889935359060762,0.28832550509050486
1772793797207408600,4.83740869140625,-0.0014250643670558928,0.19268705641329287,0.3131318834364414
1772793797217453800,4.847453857421875,0.018091537007689475,0.214319042506814,0.33786738850325343
1772793797227499800,4.857499755859375,0.021574118426442145,0.18499883999824523,0.33270795991346236
1772793797237545700,4.867545654296875,0.024404957938194274,0.19344284321665764,0.3227176040358841
1772793797247591700,4.877591796875,0.025559973192214966,0.18836568608283996,0.32176746370419856
1772793797257637600,4.8876376953125,-0.0018885902255773544,0.1650023461520672,0.32690921050682664
1772793797267682800,4.897682861328125,0.0016565350353717804,0.15487667345702646,0.31701734656766056
1772793797277728800,4.907728759765625,-0.01175005902647972,0.1694447125136852,0.2836607281498611
1772793797287774700,4.917774658203125,-0.04701426463127136,0.1563835708886385,0.26723215591832994
1772793797297821000,4.927821044921875,-0.07060849070847033,0.17297580924928188,0.26118936862275005
1772793797307865900,4.937865966796875,-0.04765957679748535,0.2051858879804611,0.24426614474207162
1772793797317911800,4.947911865234375,-0.06591945610940456,0.1889917090266943,0.25071064470633864
1772793797327957800,4.957957763671875,-0.1132744970023632,0.18149170866012573,0.26115020565614105
1772793797338004000,4.96800390625,-0.10593173302412033,0.17820669564008712,0.2740840676397085
1772793797348048600,4.978048583984375,-0.11547113026380539,0.13789455899596215,0.2857620843432844
1772793797358094600,4.988094482421875,-0.107183778911829,0.1268634618937969,0.27269816623926163
1772793797368140800,4.998140869140625,-0.09663082071542739,0.10885784960389136,0.23164617101326584
1772793797378186800,5.008186767578125,-0.12062778237462043,0.11779226668775081,0.20548414027467368
1772793797388231700,5.018231689453125,-0.14951017798781394,0.07427695008814335,0.16743834112733602
1772793797398277600,5.028277587890625,-0.14995324558019638,0.07181552841067314,0.12419716529399155
1772793797408323800,5.03832373046875,-0.151751819434762,0.10222586424350738,0.11806012384369968
1772793797418369800,5.048369873046875,-0.16167758564352988,0.09504384378492832,0.13078472699075935
1772793797428414700,5.058414794921875,-0.14905541995763777,0.11827391272485256,0.12355331443250178
1772793797438461000,5.0684609375,-0.13372984053194523,0.14014555279314517,0.12840879163965582
1772793797448507000,5.0785068359375,-0.0879904181420803,0.11271043337881564,0.1497603533565998
1772793797458552800,5.088552734375,-0.07075988187789917,0.08722761707603931,0.1736895104765892
1772793797468597800,5.09859765625,-0.04258709583878517,0.06785305452048779,0.1624931398101151
1772793797478643700,5.108643798828125,-0.013094459372758865,0.08462591014504432,0.14099252501130102
1772793797488689700,5.118689697265625,-0.00556523291170597,0.08996084143221378,0.12796791600435972
1772793797498735600,5.128735595703125,-0.011602759510278702,0.09832008897662162,0.12761413413062692
1772793797508780800,5.13878076171875,-0.008684241715073584,0.10241408029198645,0.12158932088315486
1772793797518826800,5.14882666015625,-0.029853870993852612,0.1173439383983612,0.12010814241468906
1772793797528872700,5.158872802734375,-0.051179567617177964,0.11914426581859588,0.10569880105108022
1772793797538918700,5.168918701171875,-0.04630056340396404,0.14442892920076847,0.10607406410425901
1772793797548963800,5.1789638671875,-0.03934358387291431,0.1564782634347677,0.12044964932873845
1772793797559009800,5.189009765625,-0.020617256093025206,0.14569851074516774,0.14470526192411778
1772793797569055700,5.1990556640625,0.02118307328224182,0.13904022189974785,0.16270912064835427
1772793797579101700,5.209101806640625,0.05436988809108734,0.11728607073128222,0.15257657982110975
1772793797589147000,5.21914697265625,0.05951484976410865,0.09886077172458171,0.15676818629205225
1772793797599192800,5.22919287109375,0.05148585708737373,0.09795710088312626,0.12826456086337565
1772793797609238800,5.23923876953125,0.06786766756772994,0.08704232363700866,0.10603490113765
1772793797619285000,5.249284912109375,0.04133212734162807,0.0819774414628744,0.11703794118911028
1772793797629329700,5.25932958984375,0.04333645290136337,0.071342065680027,0.14783303855583071
1772793797639375600,5.269375732421875,0.034110943916440005,0.07885141839683056,0.17209785737097263
1772793797649421600,5.279421630859375,0.040433717197179794,0.09335925169885158,0.1806618337072432
1772793797659467800,5.2894677734375,0.0397755455493927,0.09661854575574398,0.1888891254350543
1772793797669512700,5.2995126953125,0.02506780576109886,0.10854571491479872,0.16476517639532684
1772793797679558700,5.30955859375,-0.004316694155335426,0.1205161386936903,0.15835063317790626
1772793797689604900,5.31960498046875,-0.043780105015635486,0.12284545842409134,0.16453092924803495
1772793797699650800,5.32965087890625,-0.08735971902310848,0.126973352009058,0.15955284857451915
1772793797709695700,5.33969580078125,-0.1115098254173994,0.11772855380177497,0.16430194279775023
1772793797719741700,5.34974169921875,-0.12399579750299453,0.16057576188147066,0.15558160685598849
1772793797729788000,5.359787841796875,-0.12244213832020759,0.18719021256268023,0.16039587526991964
1772793797739833900,5.369833740234375,-0.10800561668872832,0.19102292259335515,0.17842808330580592
1772793797749879800,5.3798798828125,-0.1373287418067455,0.17128186481297014,0.16011720445901154
1772793797759924700,5.3899248046875,-0.10103051697909832,0.16602759754657745,0.18874153365790844
1772793797769970700,5.399970703125,-0.09889292042851447,0.1595282986551523,0.193817960139364
1772793797780016600,5.4100166015625,-0.07593699225485324,0.1227595337063074,0.22626725445389748
1772793797790062600,5.4200625,-0.004991816937923431,0.1278618252813816,0.2099878814347088
1772793797800107800,5.430107666015625,0.020479308927059174,0.109248310226202,0.23318989332392812
1772793797810153700,5.44015380859375,0.004300912064313888,0.12293255218565463,0.24421119968444108
1772793797820199700,5.45019970703125,0.0034510172367095944,0.10756488718390464,0.25772899903580543
1772793797830245600,5.46024560546875,0.0008563245683908462,0.12334697820544242,0.26418007487133144
1772793797840290800,5.470290771484375,-0.043857846426963804,0.10931319215595721,0.28643706099539995
1772793797850336800,5.480336669921875,-0.050579848158359524,0.1064256540209055,0.28456717547029253
1772793797860382700,5.4903828125,-0.03570902676284313,0.13540566478967667,0.29198855764269827
1772793797870429000,5.500428955078125,-0.0354968453168869,0.11967384265065192,0.2769800813421607
1772793797880473900,5.510473876953125,-0.025520225703716277,0.11937749005258083,0.28306597712710496
1772793797890519800,5.520519775390625,0.020001754543185233,0.1412637431681156,0.25655367164611814
1772793797900565800,5.530565673828125,0.01450549521446228,0.16113105767667293,0.24623408381417392
1772793797910612000,5.540612060546875,-0.0034942718565464017,0.1348597213447094,0.25258754449412224
1772793797920656600,5.55065673828125,-0.020606734699010847,0.18309914385676382,0.23881109420657157
1772793797930702600,5.56070263671875,-0.009407879814505577,0.18851707725226877,0.2389551788523793
1772793797940748800,5.570748779296875,-0.006664718586206436,0.16574001277685163,0.2508010994687676
1772793797950794800,5.580794677734375,0.029179917255043982,0.18431436486542224,0.2794914796411991
1772793797960839700,5.590839599609375,0.06600888795852661,0.20355916356146334,0.28786344053670765
1772793797970885600,5.6008857421875,0.06660100863277912,0.19581307947933674,0.29488296390995383
1772793797980931800,5.610931884765625,0.0548158782929182,0.21083003134727477,0.26805589339137076
1772793797990977800,5.620977783203125,0.10344400786161422,0.23360066608190536,0.2347721940793097
1772793798001022700,5.631022705078125,0.15238953281641004,0.2084586260408163,0.24083894677236675
1772793798011069000,5.64106884765625,0.12335691507756709,0.15316168623268603,0.24212547945156693
1772793798021115000,5.651114990234375,0.09903379020392894,0.12376549587845802,0.20345614157840608
1772793798031160800,5.661160888671875,0.09319149391651153,0.09609656770825385,0.154097067386657
1772793798041205800,5.671205810546875,0.07787526684105396,0.04557634078264236,0.10900748720765113
1772793798051251700,5.681251708984375,0.061600423866510386,0.027317630514502523,0.08542290574163199
1772793798061298400,5.69129833984375,0.04141688301563263,0.01743862605690956,0.03159603848606348
1772793798071344400,5.701344482421875,0.014656886383891106,-0.001173135432600975,-0.004915682961791753
1772793798081389300,5.711389404296875,0.002985153290629387,-0.033115503138303755,-0.016136603547632692
1772793798091435500,5.721435546875,-0.022740239596366882,-0.025510288831591604,-0.022225860333442687
1772793798101481500,5.7314814453125,-0.05130523982346057,-0.013647417080402374,-0.045935529483854765
1772793798111527400,5.74152734375,-0.04212064737081527,-0.020750527083873746,-0.055209261524677276
1772793798121572600,5.751572509765625,-0.033949031352996824,0.0019826982498168944,-0.022681349015980956
1772793798131618600,5.76161865234375,-0.05151742126941681,-0.013643909949064253,0.011536854667216538
1772793798141664500,5.77166455078125,-0.052560208320617675,0.023109072908759114,0.034918753167986864
1772793798151710500,5.78171044921875,-0.04992927529513835,0.05315115995109081,0.039108313812315464
1772793798161755600,5.791755615234375,-0.09049509443938732,0.05574760618507862,0.06821867296248674
1772793798171801600,5.801801513671875,-0.11075345409214496,0.06484510487616062,0.09624971244335175
1772793798181847600,5.81184765625,-0.09988251598775386,0.08538754216730594,0.08337138003930449
1772793798191893500,5.8218935546875,-0.08812427365481854,0.09614040684998035,0.09077887981683015
1772793798201938400,5.8319384765625,-0.11589432411193847,0.08353811490833758,0.12162512284889816
1772793798211984400,5.841984375,-0.12019874330759048,0.10062018261253833,0.12442907435372472
1772793798222030300,5.8520302734375,-0.11402794571816921,0.12087561965584755,0.15433672136142848
1772793798232075500,5.862075439453125,-0.12502689411640167,0.11505728876590728,0.20057941709831356
1772793798242121500,5.87212158203125,-0.10459843859374522,0.1304980190038681,0.22971374164596198
1772793798252167400,5.88216748046875,-0.0784574506431818,0.14067162249386309,0.24306539065018296
1772793798262213400,5.89221337890625,-0.0700479342162609,0.12775076612234115,0.27340850646570325
1772793798272258600,5.902258544921875,-0.04657295060455799,0.14245207616984842,0.2810921928361058
1772793798282304500,5.912304443359375,-0.027854806131124496,0.1466670635163784,0.29449323394000526
1772793798292350500,5.9223505859375,-0.029389760613441465,0.15416004962027072,0.3171802820444107
1772793798302396400,5.932396484375,-0.053389644882082934,0.17927286356687544,0.31987741217389704
1772793798312441600,5.942441650390625,-0.026821371430158614,0.16932196291685103,0.33516017537117004
1772793798322487600,5.952487548828125,0.020984335839748382,0.19193185413181782,0.3626272973589599
1772793798332533200,5.962533203125,0.04320551999807357,0.1912830348342657,0.39616628660634157
1772793798342579500,5.972579345703125,0.0652729748994112,0.1949164229005575,0.3648936348557472
1772793798352624400,5.982624267578125,0.07427344295680523,0.19304244572222232,0.34444150619655844
1772793798362670300,5.99267041015625,0.08557342012822627,0.18059329851567743,0.33949133644327517
1772793798372716500,6.002716552734375,0.09563128828406334,0.1904939302831888,0.3458640863455832
1772793798382762500,6.012762451171875,0.080566405621171,0.19107260695397854,0.34976123991459607
1772793798392807400,6.022807373046875,0.06412088225483895,0.1833662703603506,0.35046646557450295
1772793798402853400,6.032853271484375,0.0889969648361206,0.20353344459831713,0.3683521047465503
1772793798412899600,6.042899658203125,0.09890811799764633,0.21519465629756448,0.39910613945052026
1772793798422945500,6.052945556640625,0.09970306776762008,0.2193506069332361,0.4157916090525686
1772793798432990500,6.062990478515625,0.08244447445273399,0.1853612435698509,0.43092561142891644
1772793798443036700,6.07303662109375,0.024064766198396682,0.17409575318992138,0.42336818178668617
1772793798453082600,6.08308251953125,0.0013069909453392028,0.17059505159258842,0.4135391539506614
1772793798463128600,6.093128662109375,-0.009171732971072197,0.19558570046424864,0.4091599159531295
1772793798473173500,6.103173583984375,-0.008644494226574897,0.21402327443063257,0.43269861245080826
1772793798483219500,6.113219482421875,-0.06766542299389838,0.23411855247616767,0.4116957180410623
1772793798493265400,6.123265380859375,-0.08407061434984206,0.2537456284880638,0.40639118189215656
1772793798503311400,6.133311279296875,-0.07326864982843398,0.24625790308117865,0.3690131990037858
1772793798513356500,6.1433564453125,-0.06720949591994285,0.24837387232184407,0.3527740118645131
1772793798523402500,6.153402587890625,-0.053256958413124084,0.25091478897631164,0.38101577148661014
1772793798533448400,6.163448486328125,-0.009645780223608017,0.22295184629559517,0.42079453190639615
1772793798543494400,6.173494384765625,0.008204933765530586,0.220296363350749,0.42232641764879225
1772793798553539600,6.18353955078125,0.011951134556531906,0.23068623993992804,0.40186186789944767
1772793798563585500,6.19358544921875,0.0020388123512268064,0.22656769870519636,0.34243761902824044
1772793798573631500,6.203631591796875,-0.040948096460103986,0.21027765816152094,0.3385382735021412
1772793798583677400,6.213677490234375,-0.07715396682918071,0.18027181147634982,0.33363355032578107
1772793798593722600,6.22372265625,-0.07886603144407271,0.14502631057202814,0.32046208019405603
1772793798603768600,6.2337685546875,-0.0539665679872036,0.06855915696322917,0.2874235878147185
1772793798613814500,6.243814453125,-0.028142390900850293,0.033279753789305686,0.20632921279668806
1772793798623860500,6.253860595703125,-0.007054010164737701,0.013725743013620376,0.07261500822529196
1772793798633905400,6.263905517578125,-0.12596446722745894,0.0053320086777210235,-0.043418432096391915
1772793798643951400,6.273951416015625,-0.2841191394418478,-0.017165069812536238,-0.11371712620332837
1772793798653997300,6.283997314453125,-0.43535657961368557,0.005233224478363991,-0.18272037367224692
1772793798664043500,6.29404345703125,-0.5812181719660758,0.04442191005051136,-0.199714178571105
1772793798674088400,6.30408837890625,-0.657474313172698,0.1070265425235033,-0.13883008628040552
1772793798684134400,6.314134521484375,-0.6663532006770372,0.1731184325903654,-0.0052453533075749875
1772793798694180600,6.3241806640625,-0.6919909152805804,0.1993529440432787,0.16117095129564404
1772793798704226600,6.3342265625,-0.6944967606216669,0.2249637706398964,0.32431554075181485
1772793798714271500,6.344271484375,-0.6518284162402153,0.25759938130676746,0.4234095367103815
1772793798724317400,6.3543173828125,-0.5313987867861986,0.2871855412751436,0.4413192874103784
1772793798734363600,6.36436376953125,-0.35978082188665866,0.2506517541259527,0.4161483135357499
1772793798744409600,6.37440966796875,-0.18434359095990657,0.1992950763761997,0.3569493978530168
1772793798754454300,6.384454345703125,-0.08247311602532863,0.17228724246323107,0.2841806603707373
1772793798764500500,6.39450048828125,-0.05399871669113636,0.16578151383101938,0.1941251263923943
1772793798774546400,6.40454638671875,-0.015321487772464752,0.17318448356389998,0.15219240280911325
1772793798784591400,6.41459130859375,0.006146247670054435,0.16041794097125528,0.14771525739505886
1772793798794637600,6.424637451171875,0.029144845941662785,0.14480419225394725,0.15788272340521214
1772793798804683500,6.43468359375,0.06277881999611855,0.15958850440979003,0.19343772865012288
1772793798814729500,6.4447294921875,0.07288871060013771,0.18898878641724584,0.19103753564059733
1772793798824774400,6.4547744140625,0.06691022071242332,0.19713059181869028,0.22614143611714244
1772793798834820600,6.464820556640625,0.05759703344404697,0.18038228611350057,0.22607012444660066
1772793798844866600,6.474866455078125,0.05888707325458526,0.18435761948525906,0.23098127736374735
1772793798854912500,6.48491259765625,0.06623568245172501,0.15272621742486953,0.21807503403946757
1772793798864957700,6.494957763671875,0.04330664228498936,0.13440379427075386,0.1504173559606075
1772793798875003600,6.505003662109375,0.03436637998223305,0.10769757365286349,0.028087591973692178
1772793798885049600,6.515049560546875,-0.004234276568889618,0.06932137350738048,-0.05797229649722576
1772793798895095600,6.525095458984375,-0.006791559836268424,0.0189618901014328,-0.10236512658372521
1772793798905140500,6.535140380859375,0.022809213179349898,-0.03454349011480808,-0.09613120063021778
1772793798915186400,6.5451865234375,0.07689619267582892,-0.07397767488062382,-0.10803279695659876
1772793798925232400,6.555232421875,0.14789865113794803,-0.09876607917845248,-0.16340411717519163
1772793798935278300,6.5652783203125,0.1657294913828373,-0.13588906439244747,-0.21646628366857765
1772793798945323500,6.575323486328125,0.1822761370360851,-0.17287527148425577,-0.27162396113649007
1772793798955369500,6.585369384765625,0.16690438038110733,-0.18240648541748522,-0.31287557058781384
1772793798965415400,6.59541552734375,0.06105448042154312,-0.2172241162985563,-0.3102757633529603
1772793798975461400,6.60546142578125,-0.04616904597878456,-0.21141981393396853,-0.29627982509583234
1772793798985506600,6.615506591796875,-0.12473580221533774,-0.16587912898659704,-0.23950813656002282
1772793798995552500,6.625552490234375,-0.19431787248551843,-0.1328945587515831,-0.14771934904828668
1772793799005598500,6.635598388671875,-0.1812485475540161,-0.09282616773545742,-0.050247401333600276
1772793799015644700,6.645644775390625,-0.16700374910235405,-0.10217325727343558,0.193612792956084
1772793799025689300,6.655689453125,-0.08335399051308631,-0.02484042674601078,0.41658553590923547
1772793799035735300,6.6657353515625,0.05988076046705246,0.1217833821505308,0.5058583950772881
1772793799045781200,6.67578125,0.11083411811292171,0.20880524752140045,0.5606681358903646
1772793799055826400,6.685826416015625,0.05505670131146907,0.2520154436945915,0.6041017655558883
1772793799065872100,6.6958720703125,-0.02834521999657154,0.2827507736980915,0.6484706302449107
1772793799075918000,6.70591796875,-0.2472264558523893,0.26829087119102474,0.6530092965878546
1772793799085964300,6.71596435546875,-0.5030769476652145,0.27809797945618625,0.5977526887901127
1772793799096009000,6.726009033203125,-0.718733960777521,0.40581776591837404,0.52491980003044
1772793799106055000,6.736054931640625,-0.7937918321102857,0.5639899737894535,0.5301036324091255
1772793799116101000,6.74610107421875,-0.7277092943936586,0.6308528482288122,0.5512219698920846
1772793799126147000,6.75614697265625,-0.6282768602609634,0.5868634843766689,0.573076220434159
1772793799136192000,6.76619189453125,-0.48981648407578465,0.5142524216741323,0.4853111354805529
1772793799146238200,6.77623828125,-0.35748715799152847,0.4228782063126564,0.37353666777759786
1772793799156284200,6.7862841796875,-0.2544201667487621,0.3221738525480032,0.29901085749492046
1772793799166330000,6.796330078125,-0.24338263990581036,0.2162970645815134,0.245282774438709
1772793799176375000,6.806375,-0.28113924684822555,0.11263152292370796,0.19520181571319697
1772793799186421200,6.816421142578125,-0.2285831301808357,0.07015139459073542,0.16896613521650433
1772793799196467200,6.82646728515625,-0.1372328802168369,0.0432610495775938,0.1455458044014871
1772793799206513200,6.83651318359375,-0.04322890087366104,0.021159692406654357,0.10390314980596303
1772793799216558300,6.846558349609375,0.07716448822319508,-0.018685411247611045,0.08330386776104569
1772793799226604000,6.85660400390625,0.15750117674171923,-0.07987082457244396,0.09777531457543373
1772793799236650000,6.86664990234375,0.13215163142979144,-0.15549743570387362,0.124682172331959
1772793799246696000,6.876696044921875,0.12868015592694282,-0.17125673037171363,0.0982395710863173
1772793799256741000,6.8867412109375,0.15561492460370063,-0.1394827049702406,0.06000657880380749
1772793799266787000,6.896787109375,0.16530746657848358,-0.10410393307507038,0.00637304216325283
1772793799276833000,6.9068330078125,0.18420564379394053,-0.0326169059664011,-0.033265871394425627
1772793799286878200,6.916878173828125,0.232719207072258,0.050582770767807955,-0.061751668905466794
1772793799296924200,6.926924072265625,0.29651626420021054,0.11723697089254856,-0.043874943692237135
1772793799306970000,6.93697021484375,0.35063480787873264,0.16608488069176672,0.04042684906497598
1772793799317016000,6.94701611328125,0.4017722899198532,0.19762801994681356,0.09766367089450359
1772793799327061200,6.957061279296875,0.42154666544795033,0.26907588408887384,0.11205766855850816
1772793799337107200,6.967107177734375,0.40853520818352695,0.3565150980889797,0.16654738363698124
1772793799347153200,6.977153076171875,0.36651276049017906,0.3912643399089575,0.23983649173155425
1772793799357199000,6.98719921875,0.34051731849014755,0.41230069819688797,0.3857520062282681
1772793799367244000,6.997244140625,0.34429449894130226,0.4246791182547807,0.4648061075903475
1772793799377290000,7.0072900390625,0.33415830485224723,0.42239129957854743,0.5043257786825299
1772793799387336000,7.0173359375,0.3385778748601675,0.47272506402134895,0.5171824837766588
1772793799397382100,7.027382080078125,0.3025350860983133,0.535657613274455,0.4842065352395177
1772793799407427000,7.037427001953125,0.26821605238914487,0.6569704553037882,0.44633813848569986
1772793799417473000,7.04747314453125,0.21675766783058642,0.7024608713686465,0.42757060191258783
1772793799427519000,7.05751904296875,0.1411760648846626,0.7065905185192823,0.3958870312735438
1772793799437565200,7.067565185546875,0.07961655755043029,0.6704115361571311,0.38206279632151124
1772793799447610000,7.077610107421875,0.053743280625343316,0.5967746375381946,0.34727760640531774
1772793799457656000,7.087656005859375,0.05618541308045387,0.5062076469063759,0.3094863665409386
1772793799467702300,7.097702392578125,0.08378010697066783,0.3816068692475557,0.2904446892015636
1772793799477747200,7.107747314453125,0.07242810735106468,0.2594885560542345,0.31585531705096365
1772793799487793200,7.117793212890625,0.059386254948377605,0.1626093135356903,0.34363077433556316
1772793799497839000,7.127839111328125,0.025070728370547295,0.052550271448493,0.3539269812919199
1772793799507885300,7.13788525390625,-0.05218611431121826,-0.07165069323778152,0.379595821686089
1772793799517930000,7.147929931640625,-0.09540800092220306,-0.14738953257203102,0.3647518882974982
1772793799527976000,7.157975830078125,-0.1554383989930153,-0.1917798784404993,0.3241404764458537
1772793799538022100,7.168022216796875,-0.24214111541211603,-0.21136545339822768,0.3131156629540026
1772793799548068000,7.178068115234375,-0.3392085739791393,-0.19917641843259334,0.250817173820734
1772793799558113000,7.188113037109375,-0.4076028957694769,-0.1759504411458969,0.19241598438695073
1772793799568159000,7.198158935546875,-0.4392494953989982,-0.1416647251844406,0.12576193039268255
1772793799578205200,7.208205078125,-0.37483518315553666,-0.08634206641316414,0.07132365324050188
1772793799588251100,7.218251220703125,-0.2841793451964855,-0.025475802040100096,0.061707975894212716
1772793799598296000,7.228296142578125,-0.14716858329772947,0.001017068088054657,0.06797682703062892
1772793799608342300,7.23834228515625,-0.04878185882568359,0.017711597779393195,0.05760799322947859
1772793799618388200,7.24838818359375,-0.00769932233095169,0.12373217813074588,-0.07732830048277974
1772793799628433000,7.258432861328125,0.021339725148677824,0.13157587736845017,-0.16457637582495807
1772793799638479000,7.26847900390625,0.0471650712788105,0.06267068344652653,-0.23830402146726845
1772793799648525000,7.278525146484375,0.0631201807796955,0.025575170761346817,-0.27130305861905213
1772793799658571000,7.288571044921875,0.05653145003914833,0.002742576706409454,-0.27225612156018614
1772793799668616000,7.298615966796875,0.01020809028148651,-0.016286533412337302,-0.2008572111263871
1772793799678662100,7.308662109375,-0.01544832902252674,-0.0016086042404174804,-0.11024711200520396
1772793799688708000,7.3187080078125,-0.004025017732381821,0.05105272636711597,-0.011296177779138088
1772793799698754000,7.328754150390625,-0.007895721685886382,0.13510872766971588,0.18556524170935154
1772793799708799200,7.33879931640625,0.0485287608474493,0.08234861286282538,0.4440637638129294
