time,seconds_elapsed,z,y,x
1772793792445707500,0.07570751953125,0.15091370046138763,0.023567253723740578,0.14440399408340454
1772793792455752700,0.085752685546875,0.12537682056427002,0.045428525656461716,0.11184513568878174
1772793792465798700,0.095798583984375,0.0906931459903717,0.033028315752744675,0.09216330945491791
1772793792475844600,0.1058447265625,0.04115738347172737,0.0037008714862167835,0.07666356861591339
1772793792485890600,0.115890625,-0.0038447119295597076,-0.02413741685450077,0.08026975393295288
1772793792495936500,0.1259365234375,-0.03334641084074974,-0.029692238196730614,0.08564907312393188
1772793792505981700,0.135981689453125,-0.04423687607049942,-0.019998066127300262,0.08587197959423065
1772793792516027600,0.146027587890625,-0.0448637492954731,0.004533117171376944,0.08160518109798431
1772793792526073600,0.156073486328125,-0.035025499761104584,0.04117874428629875,0.07111499458551407
1772793792536119800,0.166119873046875,-0.02097552828490734,0.08709321916103363,0.05667376145720482
1772793792546165800,0.176165771484375,0.0009465490002185106,0.12479133903980255,0.026564063504338264
1772793792556211700,0.186211669921875,0.009033647365868092,0.15396201610565186,-0.011956232599914074
1772793792566256600,0.196256591796875,0.010743930004537106,0.1858682781457901,-0.03302130103111267
1772793792576302600,0.206302490234375,0.0069497497752308846,0.21494263410568237,-0.05079667642712593
1772793792586348500,0.2163486328125,0.0008463170379400253,0.2195565551519394,-0.05818029120564461
1772793792596394500,0.22639453125,-0.0008780448115430772,0.2163834124803543,-0.05477824807167053
1772793792606440400,0.2364404296875,-0.0009403628064319491,0.20429639518260956,-0.042508263140916824
1772793792616485600,0.246485595703125,-0.0004803064512088895,0.1829606592655182,-0.03191285580396652
1772793792626531600,0.256531494140625,-0.002459567738696933,0.15700414776802063,-0.02299792505800724
1772793792636577500,0.26657763671875,-0.004107961431145668,0.12752702832221985,-0.016744164749979973
1772793792646623500,0.27662353515625,-0.00734077300876379,0.0953453928232193,-0.014192590489983559
1772793792656669700,0.286669677734375,-0.005739035550504923,0.06999796628952026,-0.011975428089499474
1772793792666714600,0.296714599609375,0.0034139826893806458,0.051769696176052094,-0.01511636096984148
1772793792676760600,0.306760498046875,0.01587986946105957,0.028087981045246124,-0.024271899834275246
1772793792686806800,0.316806884765625,0.030239367857575417,0.008577929809689522,-0.039795465767383575
1772793792696852700,0.326852783203125,0.03849097341299057,-0.010446282103657722,-0.06240463629364967
1772793792706898700,0.336898681640625,0.04651481285691261,-0.023638250306248665,-0.08899176865816116
1772793792716943600,0.346943603515625,0.04868268594145775,-0.03372248262166977,-0.12634605169296265
1772793792726989600,0.356989501953125,0.03956269100308418,-0.032177314162254333,-0.15849493443965912
1772793792737035500,0.367035400390625,0.02502337098121643,-0.020277608186006546,-0.1856677085161209
1772793792747081500,0.37708154296875,0.015117209404706955,-0.0029707890935242176,-0.2037700116634369
1772793792757127400,0.38712744140625,0.020513126626610756,0.013860039412975311,-0.21687018871307373
1772793792767172600,0.397172607421875,0.02570655755698681,0.03546706214547157,-0.23894299566745758
1772793792777218600,0.407218505859375,0.03916250541806221,0.04857071116566658,-0.2583925724029541
1772793792787264500,0.417264404296875,0.05359870195388794,0.0593583770096302,-0.29164692759513855
1772793792797310500,0.427310546875,0.06604550778865814,0.051626235246658325,-0.3386250436306
1772793792807356700,0.437356689453125,0.07400915771722794,0.033812884241342545,-0.39358362555503845
1772793792817401600,0.447401611328125,0.07160534709692001,0.006970892194658518,-0.45582181215286255
1772793792827447600,0.457447509765625,0.059583306312561035,-0.0517645925283432,-0.5115088224411011
1772793792837493800,0.46749365234375,0.042648788541555405,-0.12097420543432236,-0.5413593649864197
1772793792847539700,0.477539794921875,0.024234361946582794,-0.17419880628585815,-0.5365850925445557
1772793792857585700,0.487585693359375,0.022196132689714432,-0.21301838755607605,-0.5102955102920532
1772793792867630800,0.497630859375,0.02652243711054325,-0.24889542162418365,-0.4679773151874542
1772793792877676500,0.507676513671875,0.028256062418222427,-0.2680341303348541,-0.42857521772384644
1772793792887722500,0.517722412109375,0.03545165807008743,-0.2676873803138733,-0.3897910714149475
1772793792897768400,0.5277685546875,0.04171519726514816,-0.24696116149425507,-0.36194953322410583
1772793792907814400,0.537814453125,0.04555574059486389,-0.21175603568553925,-0.3435383141040802
1772793792917860600,0.547860595703125,0.05298207700252533,-0.17121365666389465,-0.33672451972961426
1772793792927905500,0.557905517578125,0.04863633215427399,-0.1297069638967514,-0.33890724182128906
1772793792937951500,0.567951416015625,0.04459249973297119,-0.07552487403154373,-0.34771183133125305
1772793792947997700,0.577997802734375,0.037922877818346024,-0.02906816080212593,-0.35436442494392395
1772793792958043600,0.588043701171875,0.023390337824821472,-0.0036591130774468184,-0.3641624450683594
1772793792968089600,0.598089599609375,0.012117177248001099,0.023359188809990883,-0.3567836284637451
1772793792978134500,0.608134521484375,-0.000394757924368605,0.05074518173933029,-0.3363747298717499
1772793792988180700,0.6181806640625,-0.004150081425905228,0.060160521417856216,-0.3191099762916565
1772793792998226700,0.628226806640625,-0.008469272404909134,0.05761773884296417,-0.31418710947036743
1772793793008272600,0.638272705078125,-0.0005948379402980208,0.04298899322748184,-0.30700722336769104
1772793793018318600,0.648318603515625,0.006560937035828829,0.030245672911405563,-0.29630154371261597
1772793793028363800,0.65836376953125,0.01341591402888298,0.021425284445285797,-0.28277456760406494
1772793793038409700,0.66840966796875,0.017796916887164116,0.013160783797502518,-0.2663065195083618
1772793793048455700,0.67845556640625,0.023946687579154968,0.008144186809659004,-0.24459002912044525
1772793793058501600,0.688501708984375,0.027615586295723915,0.010251985862851143,-0.2277199625968933
1772793793068547800,0.6985478515625,0.03316961228847504,0.024824004620313644,-0.21646437048912048
1772793793078592800,0.7085927734375,0.03590856492519379,0.0413975790143013,-0.20560596883296967
1772793793088638700,0.718638671875,0.03946042060852051,0.043899621814489365,-0.19927988946437836
1772793793098684700,0.7286845703125,0.0399928018450737,0.03953993320465088,-0.19652944803237915
1772793793108731000,0.73873095703125,0.036839086562395096,0.032345935702323914,-0.20205524563789368
1772793793118776800,0.74877685546875,0.036246608942747116,0.015522746369242668,-0.21117660403251648
1772793793128821800,0.75882177734375,0.03459624946117401,0.0006431317888200283,-0.22196079790592194
1772793793138868000,0.768867919921875,0.032839514315128326,-0.009404179640114307,-0.22840945422649384
1772793793148914000,0.778913818359375,0.021329065784811974,-0.008792717941105366,-0.23255467414855957
1772793793158959900,0.7889599609375,0.012433156371116638,-0.0035321719478815794,-0.23633122444152832
1772793793169005800,0.799005859375,0.005566994659602642,0.0062746526673436165,-0.23418071866035461
1772793793179050800,0.80905078125,0.006863610818982124,0.0029036239720880985,-0.2351551353931427
1772793793189096700,0.8190966796875,0.009977378882467747,-0.00027219532057642937,-0.24326951801776886
1772793793199142700,0.829142578125,0.016431059688329697,-0.015552888624370098,-0.2458295077085495
1772793793209188600,0.839188720703125,0.021728353574872017,-0.02649688348174095,-0.24293838441371918
1772793793219234800,0.84923486328125,0.02528500370681286,-0.038369521498680115,-0.23542161285877228
1772793793229279700,0.85927978515625,0.028394244611263275,-0.0455416776239872,-0.22979940474033356
1772793793239325700,0.86932568359375,0.034383624792099,-0.04450259730219841,-0.2226475030183792
1772793793249371600,0.87937158203125,0.04155019298195839,-0.03973047807812691,-0.20995832979679108
1772793793259417900,0.88941796875,0.04837275668978691,-0.03223980590701103,-0.19161291420459747
1772793793269463800,0.8994638671875,0.04807554557919502,-0.030734851956367493,-0.1738608181476593
1772793793279508700,0.9095087890625,0.04850688949227333,-0.03296035900712013,-0.15479780733585358
1772793793289555000,0.919554931640625,0.044435180723667145,-0.03954422473907471,-0.147911936044693
1772793793299601000,0.929600830078125,0.05017393082380295,-0.049704551696777344,-0.1447218805551529
1772793793309646800,0.939646728515625,0.0504186749458313,-0.05345561355352402,-0.14589394629001617
1772793793319692800,0.94969287109375,0.06028616800904274,-0.061349399387836456,-0.1493087112903595
1772793793329737700,0.95973779296875,0.07166984677314758,-0.06236992031335831,-0.1544528603553772
1772793793339783700,0.96978369140625,0.08256103843450546,-0.057177554816007614,-0.1537119448184967
1772793793349829600,0.97982958984375,0.09200940281152725,-0.045458048582077026,-0.15293137729167938
1772793793359875600,0.98987548828125,0.0952337309718132,-0.041400015354156494,-0.1558370739221573
1772793793369921800,0.999921875,0.09710700064897537,-0.0353357307612896,-0.15479817986488342
1772793793379966700,1.009966796875,0.09900250285863876,-0.03463859483599663,-0.15990953147411346
1772793793390012700,1.0200126953125,0.09268654882907867,-0.04343182221055031,-0.17627626657485962
1772793793400058600,1.03005859375,0.08001231402158737,-0.046644486486911774,-0.18438218533992767
1772793793410104800,1.040104736328125,0.06690103560686111,-0.033296454697847366,-0.17893975973129272
1772793793420150800,1.05015087890625,0.050008710473775864,-0.0072338758036494255,-0.16250047087669373
1772793793430195700,1.06019580078125,0.03183077275753021,-0.0018843845464289188,-0.14573267102241516
1772793793440242000,1.070241943359375,0.01817481592297554,-0.007288819178938866,-0.13152311742305756
1772793793450287900,1.080287841796875,0.011679367162287235,-0.011601010337471962,-0.12101401388645172
1772793793460333800,1.090333740234375,0.007569005712866783,-0.016231719404459,-0.11175379157066345
1772793793470379800,1.1003798828125,0.008302707225084305,-0.03031211718916893,-0.11210080236196518
1772793793480425000,1.110425048828125,0.00598829286172986,-0.04250025004148483,-0.1239582821726799
1772793793490471000,1.120470947265625,0.008468760177493095,-0.04747450351715088,-0.12929660081863403
1772793793500516600,1.1305166015625,0.01497092004865408,-0.03916392847895622,-0.1301974654197693
1772793793510562600,1.1405625,0.021943341940641403,-0.040737591683864594,-0.14223389327526093
1772793793520608800,1.15060888671875,0.02366928569972515,-0.05087163299322128,-0.15571142733097076
1772793793530653700,1.16065380859375,0.02287566289305687,-0.06471287459135056,-0.16660268604755402
1772793793540699600,1.17069970703125,0.02150210738182068,-0.06543583422899246,-0.17041726410388947
1772793793550745600,1.18074560546875,0.01946612074971199,-0.05696379020810127,-0.16734372079372406
1772793793560791800,1.190791748046875,0.015978697687387466,-0.05574876070022583,-0.16304637491703033
1772793793570837800,1.200837646484375,0.013037236407399178,-0.05442304164171219,-0.15399162471294403
1772793793580882700,1.210882568359375,0.010510923340916634,-0.05785772204399109,-0.14714129269123077
1772793793590929000,1.220928955078125,0.007010730914771557,-0.055431582033634186,-0.13566413521766663
1772793793600974800,1.230974853515625,0.003183337626978755,-0.06366945058107376,-0.12680181860923767
1772793793611020800,1.241020751953125,-0.0026066408026963472,-0.07698792219161987,-0.12356980890035629
1772793793621066800,1.251066650390625,-0.004743713885545731,-0.08402079343795776,-0.11954595148563385
1772793793631112000,1.26111181640625,-0.009005837142467499,-0.08327165246009827,-0.11184249818325043
1772793793641158000,1.271157958984375,-0.007271039765328169,-0.08529280126094818,-0.1152774840593338
1772793793651203800,1.281203857421875,-0.007285154424607754,-0.08746993541717529,-0.11429371684789658
1772793793661249800,1.291249755859375,-0.01833377219736576,-0.07983759045600891,-0.1147543340921402
1772793793671296000,1.3012958984375,-0.02592085301876068,-0.06738465279340744,-0.11006877571344376
1772793793681340700,1.311340576171875,-0.030456114560365677,-0.05507170408964157,-0.09902558475732803
1772793793691386600,1.32138671875,-0.03281567245721817,-0.04614132270216942,-0.08909785747528076
1772793793701432800,1.331432861328125,-0.03748858720064163,-0.04233451187610626,-0.06956811249256134
1772793793711478800,1.341478759765625,-0.0327841117978096,-0.04074380546808243,-0.05059761926531792
1772793793721524700,1.351524658203125,-0.0321170911192894,-0.03478001058101654,-0.030863983556628227
1772793793731569700,1.361569580078125,-0.024168355390429497,-0.021648496389389038,-0.010925163514912128
1772793793741615900,1.371615966796875,-0.013259018771350384,-0.009272257797420025,0.0009217869956046343
1772793793751661800,1.381661865234375,-0.0029137032106518745,0.005989519413560629,-0.0029427260160446167
1772793793761707800,1.391707763671875,0.009053210727870464,0.021343441680073738,-0.006764096207916737
1772793793771753700,1.401753662109375,0.015393665060400963,0.0299686212092638,-0.01364890020340681
1772793793781799000,1.411798828125,0.01696169748902321,0.03882470354437828,-0.02222784422338009
1772793793791844900,1.421844970703125,0.023297090083360672,0.04500962793827057,-0.025467313826084137
1772793793801890800,1.431890869140625,0.022862499579787254,0.04065775126218796,-0.035057518631219864
1772793793811936800,1.441936767578125,0.026135791093111038,0.03190553933382034,-0.03395603597164154
1772793793821983000,1.45198291015625,0.03136387839913368,0.023310724645853043,-0.03021550364792347
1772793793832027600,1.462027587890625,0.031736988574266434,0.013234120793640614,-0.020487509667873383
1772793793842073600,1.472073486328125,0.03453076258301735,0.0013518971391022205,-0.012521912343800068
1772793793852119800,1.482119873046875,0.03020019456744194,-0.003748855320736766,-0.0012175923911854625
1772793793862165800,1.492165771484375,0.033308446407318115,-0.002116338349878788,0.010878710076212883
1772793793872210700,1.502210693359375,0.03723368048667908,-0.007954253815114498,0.01705165207386017
1772793793882256600,1.512256591796875,0.0439179465174675,-0.02515268139541149,0.014990365132689476
1772793793892302800,1.522302734375,0.04952044039964676,-0.02442670427262783,0.009106908924877644
1772793793902348800,1.532348876953125,0.05194034054875374,-0.009317794814705849,0.0039006141014397144
1772793793912394800,1.542394775390625,0.052149929106235504,0.00403236597776413,-0.0000326086301356554
1772793793922440000,1.55243994140625,0.049166370183229446,0.007328211795538664,-0.01310594193637371
1772793793932486000,1.56248583984375,0.045120760798454285,0.009693631902337074,-0.02224644273519516
1772793793942531800,1.57253173828125,0.04180211201310158,0.015496654435992241,-0.01956355571746826
1772793793952577800,1.582577880859375,0.03502596542239189,0.017919065430760384,-0.0201577078551054
1772793793962623700,1.592623779296875,0.036846645176410675,0.00585956359282136,-0.02213192917406559
1772793793972669000,1.6026689453125,0.034866053611040115,-0.0036220888141542673,-0.022055495530366898
1772793793982714600,1.612714599609375,0.029735563322901726,-0.00017790868878364563,-0.008374919183552265
1772793793992760600,1.622760498046875,0.026493964716792107,-0.0009968308731913567,0.004487083293497562
1772793794002806800,1.632806884765625,0.02765190601348877,-0.0021371967159211636,0.016340546309947968
1772793794012852700,1.642852783203125,0.025477852672338486,0.0004173056222498417,0.0234292671084404
1772793794022897700,1.652897705078125,0.018768129870295525,-0.0010602227412164211,0.02606239542365074
1772793794032943600,1.662943603515625,0.015702033415436745,-0.0033342959359288216,0.019454292953014374
1772793794042989800,1.67298974609375,0.013164561241865158,-0.0008100578561425209,0.009046721272170544
1772793794053035800,1.683035888671875,0.004840052220970392,0.005419875029474497,0.0046967146918177605
1772793794063081500,1.69308154296875,-0.0022538602352142334,0.001875030342489481,-0.004063016269356012
1772793794073126400,1.70312646484375,-0.008239846676588058,-0.000016080215573310852,-0.010748881846666336
1772793794083172400,1.71317236328125,-0.01894642785191536,0.002710639499127865,-0.016528720036149025
1772793794093218300,1.72321826171875,-0.024653315544128418,0.0038390206173062325,-0.019855540245771408
1772793794103264300,1.73326416015625,-0.02593027614057064,0.011831521987915039,-0.0242109764367342
1772793794113310500,1.743310546875,-0.023737695068120956,0.020595984533429146,-0.02101704850792885
1772793794123355400,1.75335546875,-0.025000426918268204,0.0260291900485754,-0.014699784107506275
1772793794133401300,1.7634013671875,-0.024107469245791435,0.039469629526138306,-0.0009546771179884672
1772793794143447300,1.773447265625,-0.024890204891562462,0.04589104652404785,0.01092132180929184
1772793794153493500,1.783493408203125,-0.02307845652103424,0.04406358674168587,0.02146291360259056
1772793794163538400,1.793538330078125,-0.020057883113622665,0.039985403418540955,0.026730606332421303
1772793794173584400,1.80358447265625,-0.01695343665778637,0.032704055309295654,0.024283694103360176
1772793794183630600,1.813630615234375,-0.014805680140852928,0.01979304477572441,0.020052215084433556
1772793794193676500,1.823676513671875,-0.014340958558022976,0.013674166053533554,0.01621885970234871
1772793794203722500,1.833722412109375,-0.018219981342554092,0.011665958911180496,0.01576821506023407
1772793794213767200,1.84376708984375,-0.019940650090575218,0.0018263771198689938,0.006789365783333778
1772793794223813400,1.8538134765625,-0.025457117706537247,-0.00014169001951813698,-0.0021798741072416306
1772793794233859300,1.863859375,-0.029476361349225044,0.0011169197969138622,-0.017686929553747177
1772793794243905300,1.8739052734375,-0.032010894268751144,0.005382762756198645,-0.02634381875395775
1772793794253951200,1.883951171875,-0.03256962448358536,0.013292085379362106,-0.037287283688783646
1772793794263996400,1.893996337890625,-0.03187341243028641,0.015244274400174618,-0.04110170900821686
1772793794274042400,1.90404248046875,-0.03291204571723938,0.02027019113302231,-0.04777079448103905
1772793794284088300,1.91408837890625,-0.030801158398389816,0.018403664231300354,-0.05424387380480766
1772793794294134300,1.92413427734375,-0.025799475610256195,0.014244605787098408,-0.054974377155303955
1772793794304179500,1.934179443359375,-0.023032400757074356,0.00679726293310523,-0.052434708923101425
1772793794314225400,1.944225341796875,-0.02196820266544819,-0.0010803681798279285,-0.05472768843173981
1772793794324271400,1.954271240234375,-0.024637572467327118,-0.0035149368923157454,-0.054452214390039444
1772793794334317600,1.964317626953125,-0.023719048127532005,-0.011319862678647041,-0.055491913110017776
1772793794344363500,1.974363525390625,-0.0226438045501709,-0.019765635952353477,-0.06419803202152252
1772793794354408400,1.984408447265625,-0.019973985850811005,-0.017992770299315453,-0.0699496641755104
1772793794364454400,1.994454345703125,-0.0198223777115345,-0.01277617085725069,-0.07194041460752487
1772793794374500400,2.004500244140625,-0.0199936181306839,-0.01586543768644333,-0.07855810225009918
1772793794384546300,2.01454638671875,-0.024260077625513077,-0.015819629654288292,-0.07404188066720963
1772793794394592300,2.02459228515625,-0.02319401316344738,-0.013664600439369678,-0.07299099117517471
1772793794404637400,2.034637451171875,-0.020145393908023834,-0.021992750465869904,-0.06703098118305206
1772793794414683400,2.044683349609375,-0.014046753756701946,-0.024994133040308952,-0.05991740897297859
1772793794424729300,2.054729248046875,-0.010403450578451157,-0.030678827315568924,-0.04849019646644592
1772793794434775300,2.064775390625,-0.0065245553851127625,-0.026158910244703293,-0.04077315330505371
1772793794444821200,2.0748212890625,-0.004602552391588688,-0.02308402583003044,-0.028111422434449196
1772793794454866400,2.084866455078125,-0.0008794532041065395,-0.01548868976533413,-0.015105608850717545
1772793794464912400,2.094912353515625,0.0041853622533380985,-0.008737130090594292,-0.00846638809889555
1772793794474958300,2.104958251953125,0.012475516647100449,-0.004624943248927593,-0.004076965618878603
1772793794485004500,2.115004638671875,0.022031446918845177,-0.001329103484749794,0.0017874175682663918
1772793794495049500,2.125049560546875,0.030864086002111435,-0.0019179284572601318,0.004584801848977804
1772793794505095400,2.135095458984375,0.03510897234082222,0.0008759927004575729,0.007403183728456497
1772793794515141400,2.145141357421875,0.03950319066643715,0.00779168913140893,0.01479398924857378
1772793794525187600,2.1551875,0.037914663553237915,0.013329378329217434,0.026081323623657227
1772793794535233500,2.165233642578125,0.040376219898462296,0.010574338026344776,0.027894936501979828
1772793794545278200,2.1752783203125,0.045545294880867004,0.009805839508771896,0.031232925131917
1772793794555324400,2.185324462890625,0.04396497458219528,0.007157591637223959,0.027407826855778694
1772793794565370400,2.195370361328125,0.044898852705955505,0.008967297151684761,0.0218014195561409
1772793794575416300,2.205416259765625,0.044241853058338165,0.010303404182195663,0.01939152553677559
1772793794585462300,2.215462158203125,0.04137338697910309,0.011063825339078903,0.01878555305302143
1772793794595507500,2.225507568359375,0.03674774244427681,0.009507473558187485,0.016807623207569122
1772793794605553400,2.235553466796875,0.03561342507600784,0.014582660980522633,0.01888998970389366
1772793794615599400,2.245599365234375,0.028695067390799522,0.014894518069922924,0.026683731004595757
1772793794625645300,2.255645263671875,0.023851066827774048,0.015395812690258026,0.02969593182206154
1772793794635690500,2.2656904296875,0.019685084000229836,0.008185569196939468,0.03340864181518555
1772793794645736400,2.275736328125,0.013393308967351913,0.010201497003436089,0.033226486295461655
1772793794655782400,2.285782470703125,0.009588451124727726,0.0057337782345712185,0.029866641387343407
1772793794665828400,2.295828369140625,0.008599601686000824,0.0015103579498827457,0.021838050335645676
1772793794675874600,2.30587451171875,0.01026141457259655,-0.0000795493833720684,0.017073653638362885
1772793794685919200,2.315919189453125,0.011698398739099503,0.000549935270100832,0.015404921025037766
1772793794695965200,2.325965087890625,0.0090381670743227,0.0008189142681658268,0.009402687661349773
1772793794706011400,2.336011474609375,0.012078897096216679,-0.0014978586696088314,0.007154957391321659
1772793794716057300,2.346057373046875,0.013988116756081581,-0.010932106524705887,0.0032531602773815393
1772793794726102300,2.356102294921875,0.01891804300248623,-0.023267338052392006,-0.00024338695220649242
1772793794736148500,2.3661484375,0.029047910124063492,-0.02792760357260704,-0.00365170044824481
1772793794746194400,2.3761943359375,0.03201587125658989,-0.031601253896951675,-0.0035480589140206575
1772793794756240400,2.386240478515625,0.03550594300031662,-0.031604181975126266,-0.006477536167949438
1772793794766286300,2.396286376953125,0.03622790053486824,-0.02662123180925846,-0.012366214767098427
1772793794776331500,2.40633154296875,0.035781022161245346,-0.021732468158006668,-0.018784167245030403
1772793794786377500,2.41637744140625,0.029582049697637558,-0.021962303668260574,-0.021105444058775902
1772793794796423400,2.42642333984375,0.01792113296687603,-0.024782855063676834,-0.027425125241279602
1772793794806469400,2.436469482421875,0.007890834473073483,-0.030030345544219017,-0.031973373144865036
1772793794816515300,2.446515380859375,0.0011106929741799831,-0.033073540776968,-0.03423972427845001
1772793794826560500,2.456560546875,-0.006066501140594482,-0.023740136995911598,-0.028530539944767952
1772793794836606500,2.4666064453125,-0.0162885133177042,-0.015398051589727402,-0.021570103242993355
1772793794846652400,2.47665234375,-0.023511037230491638,-0.011936472728848457,-0.014463556930422783
1772793794856698400,2.486698486328125,-0.030211549252271652,-0.012627297081053257,-0.011356446892023087
1772793794866743300,2.496743408203125,-0.030535941943526268,-0.018371913582086563,-0.010699673555791378
1772793794876789200,2.506789306640625,-0.03492935746908188,-0.02569613792002201,-0.02175605297088623
1772793794886835500,2.51683544921875,-0.029185166582465172,-0.02953410893678665,-0.02173159085214138
1772793794896881400,2.52688134765625,-0.027804851531982422,-0.02079707570374012,-0.021922539919614792
1772793794906927400,2.53692724609375,-0.03016239032149315,-0.022637411952018738,-0.02595497854053974
1772793794916972300,2.54697216796875,-0.02722732163965702,-0.023759935051202774,-0.03598976880311966
1772793794927018500,2.5570185546875,-0.021000618115067482,-0.00859828945249319,-0.03420102596282959
1772793794937064400,2.567064453125,-0.019948668777942657,0.0025510345585644245,-0.03100309893488884
1772793794947110400,2.5771103515625,-0.01767001859843731,-0.002186019439250231,-0.02682427316904068
1772793794957155600,2.587155517578125,-0.018912116065621376,-0.005006307270377874,-0.026056483387947083
1772793794967201500,2.597201416015625,-0.01941290870308876,-0.003097886685281992,-0.016580773517489433
1772793794977247500,2.60724755859375,-0.01875377632677555,-0.0034893713891506195,-0.009174522943794727
1772793794987293400,2.61729345703125,-0.016089146956801414,-0.000528023112565279,-0.002398862736299634
1772793794997339400,2.62733935546875,-0.011426485143601894,0.006807653699070215,0.01135130412876606
1772793795007384300,2.63738427734375,-0.007828988134860992,0.013560720719397068,0.03018077276647091
1772793795017430300,2.64743017578125,-0.001593462424352765,0.031077396124601364,0.04841570556163788
1772793795027476200,2.657476318359375,0.00626683933660388,0.04512805491685867,0.07934542745351791
1772793795037522400,2.6675224609375,0.013450450263917446,0.056221187114715576,0.10708064585924149
1772793795047567400,2.6775673828125,0.012246285565197468,0.04168139025568962,0.12284105271100998
1772793795057614000,2.687614013671875,0.017450900748372078,0.025065666064620018,0.13258981704711914
1772793795067660000,2.697659912109375,0.018828412517905235,0.016988208517432213,0.14191250503063202
1772793795077706000,2.7077060546875,0.024772321805357933,0.011871742084622383,0.13751909136772156
1772793795087752200,2.717752197265625,0.026807818561792374,0.012140191160142422,0.12774062156677246
1772793795097797000,2.727797119140625,0.017493411898612976,0.0116419130936265,0.11128520965576172
1772793795107843000,2.737843017578125,0.01620940864086151,0.006038709543645382,0.08686623722314835
1772793795117889300,2.74788916015625,0.010168295353651047,0.01083772536367178,0.06270231306552887
1772793795127935200,2.757935302734375,0.007440128363668919,0.01623746193945408,0.041628286242485046
1772793795137981200,2.767981201171875,0.0011891569010913372,0.018199680373072624,0.016716545447707176
1772793795148026000,2.778026123046875,-0.001362230977974832,0.018362488597631454,-0.002228275639936328
1772793795158072000,2.788072021484375,-0.0077817803248763084,0.01869644783437252,-0.014331810176372528
1772793795168118000,2.798117919921875,-0.01840895228087902,0.00913445744663477,-0.021701229736208916
1772793795178164000,2.8081640625,-0.028654133901000023,-0.004204250872135162,-0.025736983865499496
1772793795188209200,2.818209228515625,-0.03350701555609703,-0.008185766637325287,-0.02040456049144268
1772793795198255000,2.828255126953125,-0.040633898228406906,-0.007574038114398718,-0.015624718740582466
1772793795208301000,2.838301025390625,-0.041177790611982346,-0.010674756020307541,-0.010678120888769627
1772793795218347000,2.848346923828125,-0.039478693157434464,-0.010616166517138481,-0.008721762336790562
1772793795228393000,2.85839306640625,-0.03608059138059616,-0.016154920682311058,-0.0077821193262934685
1772793795238438100,2.868438232421875,-0.03072896972298622,-0.017819929867982864,-0.010634364560246468
1772793795248484000,2.878484130859375,-0.025298984721302986,-0.02189873717725277,-0.013130523264408112
1772793795258530000,2.888530029296875,-0.018013108521699905,-0.018967928364872932,-0.0212454404681921
1772793795268576300,2.898576171875,-0.01721486635506153,-0.02542937733232975,-0.03595602512359619
1772793795278621200,2.90862109375,-0.015723761171102524,-0.020231420174241066,-0.04673650115728378
1772793795288667100,2.918667236328125,-0.010428331792354584,-0.006471399683505297,-0.05096932873129845
1772793795298713000,2.928713134765625,-0.00818035751581192,-0.0018052752129733562,-0.05560349300503731
1772793795308759300,2.93875927734375,-0.013279876671731472,-0.01054798997938633,-0.06526582688093185
1772793795318804000,2.948803955078125,-0.016233855858445168,-0.009207620285451412,-0.06518566608428955
1772793795328850000,2.958849853515625,-0.02189328894019127,-0.004549041390419006,-0.05948378145694733
1772793795338896100,2.968896240234375,-0.02315349690616131,-0.0028017412405461073,-0.054186221212148666
1772793795348942000,2.978942138671875,-0.02465731091797352,-0.0015908023342490196,-0.05274362862110138
1772793795358988000,2.988988037109375,-0.024879951030015945,0.007564080413430929,-0.04018815606832504
1772793795369033200,2.999033203125,-0.025959355756640434,0.013101503252983093,-0.024115875363349915
1772793795379079200,3.0090791015625,-0.025595566257834435,0.017803579568862915,-0.013486401177942753
1772793795389125000,3.019125,-0.019381705671548843,0.022913740947842598,0.0015059435972943902
1772793795399171000,3.029171142578125,-0.015313195064663887,0.025140410289168358,0.017498226836323738
1772793795409216300,3.03921630859375,-0.012005839496850967,0.021585002541542053,0.02522282674908638
1772793795419262200,3.04926220703125,-0.008100314065814018,0.018880028277635574,0.03619132190942764
1772793795429308200,3.05930810546875,0.0014028351288288832,0.022214040160179138,0.04420268535614014
1772793795439354000,3.06935400390625,0.006526224315166473,0.017087455838918686,0.04621763154864311
1772793795449400000,3.079400146484375,0.01169247180223465,0.012047246098518372,0.043195780366659164
1772793795459445000,3.089445068359375,0.012316983193159103,0.0038644163869321346,0.04158776253461838
1772793795469491000,3.099490966796875,0.007638799957931042,-0.012810434214770794,0.025299115106463432
1772793795479537000,3.109536865234375,0.0035540438257157803,-0.021580489352345467,0.015096278861165047
1772793795489583000,3.1195830078125,0.00015083386097103357,-0.015506617724895477,0.003469310002401471
1772793795499628000,3.1296279296875,-0.0022800995502620935,-0.02051442675292492,-0.0021728631108999252
1772793795509674000,3.139674072265625,-0.0068908738903701305,-0.02189607359468937,-0.011593654751777649
1772793795519720200,3.14972021484375,-0.012393230572342873,-0.023393835872411728,-0.0209227092564106
1772793795529766100,3.15976611328125,-0.02135753072798252,-0.021561402827501297,-0.03150649741292
1772793795539812000,3.16981201171875,-0.02368832938373089,-0.025290627032518387,-0.03921075910329819
1772793795549857000,3.17985693359375,-0.023077838122844696,-0.022622229531407356,-0.040905408561229706
1772793795559903200,3.1899033203125,-0.017588531598448753,-0.01884853094816208,-0.036443814635276794
1772793795569949200,3.19994921875,-0.009666860103607178,-0.010519937612116337,-0.02383708581328392
1772793795579995100,3.2099951171875,-0.0034787391778081656,-0.00016556726768612862,-0.015738679096102715
1772793795590040300,3.220040283203125,0.002515237545594573,0.006807386875152588,-0.009184373542666435
1772793795600086300,3.230086181640625,0.013686399906873703,0.011256731115281582,-0.010072004050016403
1772793795610132200,3.24013232421875,0.021761756390333176,0.013634935021400452,-0.012274887412786484
1772793795620178000,3.250177978515625,0.027549337595701218,0.018166568130254745,-0.022630322724580765
1772793795630224000,3.260223876953125,0.034702837467193604,0.0284027811139822,-0.027488157153129578
1772793795640269000,3.27026904296875,0.03595851734280586,0.03883012384176254,-0.030971039086580276
1772793795650315000,3.28031494140625,0.038592930883169174,0.040422338992357254,-0.03048398531973362
1772793795660361000,3.29036083984375,0.03677212819457054,0.035622257739305496,-0.028588879853487015
1772793795670407200,3.3004072265625,0.0400586873292923,0.024872763082385063,-0.017718981951475143
1772793795680452000,3.3104521484375,0.0446622259914875,0.015315476804971695,-0.00661013787612319
1772793795690498000,3.320498046875,0.04217198118567467,0.007716679945588112,0.003709568874910474
1772793795700544000,3.3305439453125,0.04294509440660477,0.011726868338882923,0.01757292076945305
1772793795710590200,3.340590087890625,0.04003529995679855,0.02143852785229683,0.03101000003516674
1772793795720635100,3.35063525390625,0.03930160030722618,0.027429843321442604,0.036288656294345856
1772793795730681000,3.36068115234375,0.03998794034123421,0.030854398384690285,0.040750905871391296
1772793795740727300,3.370727294921875,0.0395386666059494,0.027379771694540977,0.043454814702272415
1772793795750773200,3.380773193359375,0.0350942388176918,0.022940995171666145,0.03840308263897896
1772793795760819200,3.390819091796875,0.030954621732234955,0.027273423969745636,0.0358768068253994
1772793795770864000,3.400864013671875,0.02617785707116127,0.034134525805711746,0.030998611822724342
1772793795780910000,3.41091015625,0.024651333689689636,0.037856295704841614,0.030658790841698647
1772793795790956000,3.4209560546875,0.022537337616086006,0.03862079977989197,0.028111174702644348
1772793795801002000,3.431001953125,0.01781608536839485,0.03725619614124298,0.02240801602602005
1772793795811047200,3.441047119140625,0.012098012492060661,0.03481487184762955,0.017703542485833168
1772793795821093000,3.451093017578125,0.005351427011191845,0.03699839860200882,0.013049134984612465
1772793795831139000,3.46113916015625,0.0036796899512410164,0.03926252946257591,0.012817682698369026
1772793795841185000,3.47118505859375,-0.0009073386318050325,0.0380643755197525,0.01170101948082447
1772793795851231000,3.48123095703125,0.0014964522561058402,0.03403039649128914,0.015353241004049778
1772793795861276200,3.491276123046875,0.005390526726841927,0.026370879262685776,0.014998241327702999
1772793795871322000,3.501322021484375,0.011661741882562637,0.0167384035885334,0.01788770593702793
1772793795881368000,3.5113681640625,0.02106829360127449,0.01398948859423399,0.01655133068561554
1772793795891414300,3.521414306640625,0.024889295920729637,0.016377542167901993,0.016920125111937523
1772793795901459200,3.531459228515625,0.028899749740958214,0.021340612322092056,0.01521250605583191
1772793795911505000,3.5415048828125,0.029924873262643814,0.02581658586859703,0.019189095124602318
1772793795921551000,3.551551025390625,0.0329265221953392,0.02888774499297142,0.02065782994031906
1772793795931597000,3.56159716796875,0.030715445056557655,0.02870425209403038,0.02777450904250145
1772793795941642000,3.57164208984375,0.031251806765794754,0.03251097351312637,0.0343751534819603
1772793795951688000,3.58168798828125,0.025971388444304466,0.034839995205402374,0.04111200571060181
1772793795961734100,3.591734130859375,0.022488240152597427,0.031724631786346436,0.04444362223148346
1772793795971780000,3.601780029296875,0.021191425621509552,0.025338459759950638,0.04642472788691521
1772793795981826000,3.611825927734375,0.01459211204200983,0.017424345016479492,0.04566546157002449
1772793795991871200,3.621871337890625,0.005684346426278353,0.005208868999034166,0.043795760720968246
1772793796001917200,3.631917236328125,0.00092128268443048,0.00930827297270298,0.041681475937366486
1772793796011963100,3.641963134765625,-0.002624958287924528,0.018384680151939392,0.042199891060590744
1772793796022009000,3.652009033203125,-0.003431097138673067,0.024047892540693283,0.0404382087290287
1772793796032054300,3.66205419921875,-0.005300706252455711,0.025526657700538635,0.03354858607053757
1772793796042100200,3.672100341796875,-0.008740178309381008,0.028589826077222824,0.0299538541585207
1772793796052146200,3.682146240234375,-0.010148461908102036,0.03519384190440178,0.03137211874127388
1772793796062191600,3.692191650390625,-0.018198665231466293,0.038044754415750504,0.029199514538049698
1772793796072236800,3.70223681640625,-0.03379793465137482,0.03398911654949188,0.023641405627131462
1772793796082282800,3.71228271484375,-0.051719408482313156,0.037260010838508606,0.014119538478553295
1772793796092328700,3.72232861328125,-0.07614568620920181,0.04974677413702011,0.0023733037523925304
1772793796102375000,3.732375,-0.08714427053928375,0.05184933915734291,-0.0037556951865553856
1772793796112420900,3.7424208984375,-0.09041889756917953,0.043516043573617935,0.0025392184033989906
1772793796122465500,3.752465576171875,-0.0909467339515686,0.03607490286231041,0.012025930918753147
1772793796132511500,3.762511474609375,-0.09264738112688065,0.03418237343430519,0.02286798693239689
1772793796142557700,3.7725576171875,-0.0937184989452362,0.017228690907359123,0.029751190915703773
1772793796152603600,3.782603759765625,-0.09295397996902466,0.00013519078493118286,0.03796815127134323
1772793796162648600,3.792648681640625,-0.09379340708255768,0.004767226986587048,0.04604125767946243
1772793796172694800,3.80269482421875,-0.09800928831100464,0.03113722614943981,0.04787765443325043
1772793796182740700,3.81274072265625,-0.10200270265340805,0.04684561491012573,0.04018591344356537
1772793796192786700,3.82278662109375,-0.10122053325176239,0.07485461235046387,0.028407283127307892
1772793796202832000,3.832831787109375,-0.09202676266431808,0.1058194562792778,0.018375156447291374
1772793796212877800,3.8428779296875,-0.08312943577766418,0.1034139096736908,-0.0013758765999227762
1772793796222923800,3.852923828125,-0.06769508868455887,0.0701528936624527,-0.00843378622084856
1772793796232969700,3.8629697265625,-0.06379888206720352,0.03853052109479904,0.0019307042239233851
1772793796243015700,3.873015625,-0.07593411207199097,0.016274746507406235,0.026281317695975304
1772793796253060900,3.883060791015625,-0.07585612684488297,-0.005922345910221338,0.05043293163180351
1772793796263106800,3.89310693359375,-0.06721097230911255,-0.0316772423684597,0.06830140948295593
1772793796273152800,3.90315283203125,-0.05020647123456001,-0.0393180325627327,0.06957647204399109
1772793796283198700,3.91319873046875,-0.03362003713846207,-0.03933054953813553,0.06387731432914734
1772793796293243600,3.92324365234375,-0.018146490678191185,-0.0346064530313015,0.050875283777713776
1772793796303289600,3.93328955078125,-0.010125050321221352,-0.018873564898967743,0.04361071437597275
1772793796313335600,3.94333544921875,-0.005048266611993313,0.0010749292559921741,0.03613368794322014
1772793796323381800,3.9533818359375,-0.001770181697793305,0.010256975889205933,0.029606014490127563
1772793796333426700,3.9634267578125,0.00025147327687591314,0.01641909033060074,0.027857376262545586
1772793796343472600,3.97347265625,0.007986624725162983,0.016286464408040047,0.036888957023620605
1772793796353518800,3.983518798828125,0.016017677262425423,0.006314433645457029,0.038943812251091
1772793796363564800,3.993564697265625,0.026262057945132256,-0.006295368075370789,0.035100605338811874
1772793796373609700,4.003609619140625,0.03049641102552414,-0.019614988937973976,0.027634410187602043
1772793796383655700,4.01365576171875,0.031377919018268585,-0.0264396034181118,0.01726539246737957
1772793796393702000,4.023701904296875,0.029436884447932243,-0.026541516184806824,0.00701593142002821
1772793796403747800,4.033747802734375,0.02706267684698105,-0.022237582132220268,-0.00020602811127901077
1772793796413793800,4.043793701171875,0.024284757673740387,-0.012104963883757591,-0.006380137521773577
1772793796423838700,4.053838623046875,0.021070055663585663,0.006238889880478382,-0.01053386926651001
1772793796433884700,4.063884765625,0.02105838619172573,0.027912139892578125,-0.012664871290326118
1772793796443930600,4.0739306640625,0.02478441596031189,0.04777638986706734,-0.016662275418639183
1772793796453976600,4.0839765625,0.027030283585190773,0.04881573095917702,-0.028986621648073196
1772793796464021800,4.094021728515625,0.03163648396730423,0.042663827538490295,-0.028272895142436028
1772793796474067700,4.104067626953125,0.02882353588938713,0.03333859145641327,-0.02550242468714714
1772793796484113700,4.11411376953125,0.024388305842876434,0.023970656096935272,-0.021792374551296234
1772793796494159600,4.12415966796875,0.017640752717852592,0.016653891652822495,-0.019496146589517593
1772793796504204800,4.134204833984375,0.015952574089169502,0.015158260241150856,-0.012201746925711632
1772793796514250800,4.144250732421875,0.013577809557318687,0.014137733727693558,-0.009075824171304703
1772793796524296700,4.154296630859375,0.01762927696108818,0.003953539300709963,-0.009738418273627758
1772793796534342700,4.1643427734375,0.0190062765032053,-0.005364326760172844,-0.008464714512228966
1772793796544387800,4.174387939453125,0.02063080482184887,0.002639803569763899,-0.00520713534206152
1772793796554433800,4.184433837890625,0.02303830161690712,0.007829057984054089,-0.004619573708623648
1772793796564479700,4.194479736328125,0.022447878494858742,0.012698914855718613,-0.0070401206612586975
1772793796574526000,4.20452587890625,0.02106649801135063,0.025900738313794136,-0.002555357525125146
1772793796584572000,4.214572021484375,0.018743373453617096,0.028563901782035828,-0.006502024829387665
1772793796594616600,4.224616455078125,0.018329372629523277,0.011180829256772995,-0.010092481039464474
1772793796604662800,4.234662841796875,0.017853733152151108,-0.0032076979987323284,-0.007585647515952587
1772793796614708700,4.244708740234375,0.010826908983290195,-0.011409968137741089,0.004113661590963602
1772793796624754700,4.254754638671875,0.0015308790607377887,-0.012405991554260254,0.014345526695251465
1772793796634799600,4.264799560546875,-0.007522561587393284,-0.013595979660749435,0.020877564325928688
1772793796644845800,4.274845703125,-0.012604671530425549,-0.010267827659845352,0.024608386680483818
1772793796654891800,4.284891845703125,-0.01389998383820057,-0.0007369103841483593,0.02362794056534767
1772793796664937700,4.294937744140625,-0.012778259813785553,0.004055980127304792,0.02095838636159897
1772793796674983000,4.30498291015625,-0.011540569365024567,-0.0012086429633200169,0.011171553283929825
1772793796685028900,4.31502880859375,-0.007433974649757147,-0.005880093667656183,0.0047546676360070705
1772793796695074800,4.32507470703125,-0.009227056987583637,-0.006870700512081385,-0.003453564364463091
1772793796705120800,4.335120849609375,-0.008364459499716759,-0.008946368470788002,-0.0058962153270840645
1772793796715165700,4.345165771484375,-0.01242732908576727,-0.011328654363751411,-0.006151819135993719
1772793796725211600,4.355211669921875,-0.020235450938344002,-0.015631522983312607,-0.0034090294502675533
1772793796735257600,4.365257568359375,-0.02565079554915428,-0.01776764541864395,0.0022893790155649185
1772793796745303600,4.375303466796875,-0.027547765523195267,-0.01817670650780201,0.0013836381258442998
1772793796755348700,4.3853486328125,-0.031679585576057434,-0.01543436385691166,0.0006017601117491722
1772793796765394700,4.395394775390625,-0.032828208059072495,-0.017684735357761383,-0.003498709062114358
1772793796775440600,4.405440673828125,-0.03636212646961212,-0.01145586371421814,-0.0018000934505835176
1772793796785486600,4.415486572265625,-0.04193053022027016,0.005015522241592407,-0.0017140733543783426
1772793796795532800,4.42553271484375,-0.04370605945587158,0.004165973514318466,-0.010527271777391434
1772793796805577700,4.43557763671875,-0.038371216505765915,0.004744146019220352,-0.017513543367385864
1772793796815623700,4.445623779296875,-0.03230051323771477,-0.0020368872210383415,-0.027031714096665382
1772793796825670000,4.455669921875,-0.03255005180835724,-0.0012166337110102177,-0.024282267317175865
1772793796835715800,4.4657158203125,-0.02725670486688614,-0.001166121568530798,-0.022033967077732086
1772793796845760800,4.4757607421875,-0.028860194608569145,-0.005398949608206749,-0.021477632224559784
1772793796855806700,4.485806640625,-0.02364923618733883,-0.007141634356230497,-0.019402822479605675
1772793796865853000,4.49585302734375,-0.019577529281377792,0.000244110357016325,-0.010995224118232727
1772793796875899000,4.50589892578125,-0.013796072453260422,-0.001484366599470377,-0.001325887395069003
1772793796885943600,4.515943603515625,-0.009071092121303082,-0.006701498758047819,-0.0009716869681142271
1772793796895989800,4.52598974609375,-0.0011941143311560154,-0.004921003710478544,0.006990949623286724
1772793796906035700,4.53603564453125,0.00579109089449048,-0.007387357298284769,0.006990949623286724
1772793796916081700,4.54608154296875,0.014083737507462502,-0.0073852213099598885,0.010300777852535248
1772793796926126600,4.556126708984375,0.01845877803862095,-0.0017656851559877396,0.017972279340028763
1772793796936172800,4.5661728515625,0.021987151354551315,-0.00030165771022439003,0.021023403853178024
1772793796946218800,4.57621875,0.024742458015680313,-0.003312361193820834,0.02677236869931221
1772793796956264700,4.5862646484375,0.028256451711058617,-0.0053893583826720715,0.03443388640880585
1772793796966310700,4.596310546875,0.025610068812966347,-0.011912238784134388,0.034607261419296265
1772793796976355800,4.60635595703125,0.02533769980072975,-0.017676031216979027,0.029899882152676582
1772793796986401800,4.61640185546875,0.020660122856497765,-0.013363041914999485,0.02320442907512188
1772793796996447700,4.62644775390625,0.012837572954595089,0.002676551230251789,0.018127920106053352
1772793797006493700,4.63649365234375,0.007208182476460934,0.009454827755689621,0.011884670704603195
1772793797016538600,4.64653857421875,0.0021309382282197475,0.008166392333805561,0.010078472085297108
1772793797026584600,4.65658447265625,-0.002347699599340558,0.001769479364156723,0.007750337012112141
1772793797036630500,4.666630615234375,-0.0003318567469250411,-0.0023665851913392544,0.014956970699131489
1772793797046676700,4.6766767578125,-0.000645310792606324,-0.0015484620817005634,0.013949496671557426
1772793797056721700,4.6867216796875,0.0006240977672860026,-0.006856588181108236,0.016444064676761627
1772793797066767600,4.696767578125,0.0024193343706429005,-0.0129722710698843,0.01718495413661003
1772793797076813800,4.706813720703125,0.0008233502740040421,-0.019251827150583267,0.017715783789753914
1772793797086859800,4.71685986328125,-0.004929344169795513,-0.01752077229321003,0.01697169616818428
1772793797096904700,4.72690478515625,-0.005534583702683449,-0.01814332976937294,0.015095085836946964
1772793797106950700,4.73695068359375,-0.008760470896959305,-0.008472591638565063,0.014537154696881771
1772793797116996900,4.746996826171875,-0.013286972418427467,0.000004601664841175079,0.013787500560283661
1772793797127042800,4.757042724609375,-0.016263587400317192,0.007969849742949009,0.012419700622558594
1772793797137087700,4.767087646484375,-0.022672098129987717,0.012853735126554966,0.013097492046654224
1772793797147134000,4.777134033203125,-0.027790959924459457,0.01898007094860077,0.012175239622592926
1772793797157180000,4.787179931640625,-0.032524798065423965,0.021013924852013588,0.016176413744688034
1772793797167225900,4.797225830078125,-0.03345957025885582,0.02481052838265896,0.021004192531108856
1772793797177270500,4.8072705078125,-0.03477887809276581,0.02184491977095604,0.028003942221403122
1772793797187316700,4.817316650390625,-0.03149573132395744,0.020318660885095596,0.030913978815078735
1772793797197362700,4.82736279296875,-0.027196325361728668,0.02034582570195198,0.03124447911977768
1772793797207408600,4.83740869140625,-0.01877620816230774,0.012602153234183788,0.025807367637753487
1772793797217453800,4.847453857421875,-0.010163156315684319,0.01846243627369404,0.017209172248840332
1772793797227499800,4.857499755859375,-0.0029414622113108635,0.02208646573126316,0.01803395338356495
1772793797237545700,4.867545654296875,0.0010281979339197278,0.023396562784910202,0.009354917332530022
1772793797247591700,4.877591796875,0.010703994892537594,0.01875520497560501,0.008091781288385391
1772793797257637600,4.8876376953125,0.013779004104435444,0.017451586201786995,0.005475045181810856
1772793797267682800,4.897682861328125,0.011569911614060402,0.007421322166919708,0.00376423099078238
1772793797277728800,4.907728759765625,0.013666154816746712,0.0010432354174554348,0.006676283665001392
1772793797287774700,4.917774658203125,0.00974678061902523,-0.00005904678255319595,0.010822293348610401
1772793797297821000,4.927821044921875,0.010801173746585846,-0.002730817534029484,0.011324625462293625
1772793797307865900,4.937865966796875,0.017583180218935013,-0.0028754272498190403,0.01367752905935049
1772793797317911800,4.947911865234375,0.019268088042736053,0.0033225459046661854,0.015128993429243565
1772793797327957800,4.957957763671875,0.025820797309279442,0.013975989073514938,0.01318009290844202
1772793797338004000,4.96800390625,0.033714406192302704,0.02020477131009102,0.009255323559045792
1772793797348048600,4.978048583984375,0.04054541513323784,0.01685318350791931,0.019737260416150093
1772793797358094600,4.988094482421875,0.04265543818473816,0.01413436233997345,0.01960676535964012
1772793797368140800,4.998140869140625,0.04494841769337654,0.008492988534271717,0.020396392792463303
1772793797378186800,5.008186767578125,0.04164881259202957,0.009392601437866688,0.02449672296643257
1772793797388231700,5.018231689453125,0.03935503214597702,0.011805159039795399,0.02670874632894993
1772793797398277600,5.028277587890625,0.036854565143585205,0.015841441228985786,0.03141845390200615
1772793797408323800,5.03832373046875,0.031499482691287994,0.021727027371525764,0.0383240282535553
1772793797418369800,5.048369873046875,0.031439781188964844,0.025744225829839706,0.045738741755485535
1772793797428414700,5.058414794921875,0.03075668029487133,0.028128288686275482,0.05294898524880409
1772793797438461000,5.0684609375,0.032820869237184525,0.03148502856492996,0.05873340368270874
1772793797448507000,5.0785068359375,0.03056144341826439,0.030910318717360497,0.06069615110754967
1772793797458552800,5.088552734375,0.033062614500522614,0.027715587988495827,0.05906234681606293
1772793797468597800,5.09859765625,0.023865917697548866,0.025475604459643364,0.05737443268299103
1772793797478643700,5.108643798828125,0.021100515499711037,0.024207497015595436,0.05089246481657028
1772793797488689700,5.118689697265625,0.017718033865094185,0.020887866616249084,0.047594405710697174
1772793797498735600,5.128735595703125,0.015115227550268173,0.023386269807815552,0.042197056114673615
1772793797508780800,5.13878076171875,0.011590534821152687,0.02541906014084816,0.03602198511362076
1772793797518826800,5.14882666015625,0.004950887523591518,0.028118526563048363,0.036977242678403854
1772793797528872700,5.158872802734375,0.002998524345457554,0.03302913159132004,0.03930617496371269
1772793797538918700,5.168918701171875,-0.002392318332567811,0.04096295312047005,0.03957626223564148
1772793797548963800,5.1789638671875,-0.003136405488476157,0.04400854557752609,0.04359257593750954
1772793797559009800,5.189009765625,-0.001773085561580956,0.042060088366270065,0.04882734641432762
1772793797569055700,5.1990556640625,0.0020988844335079193,0.034720417112112045,0.046925317496061325
1772793797579101700,5.209101806640625,-0.0015591108240187168,0.026203356683254242,0.04048587754368782
1772793797589147000,5.21914697265625,-0.005590337794274092,0.02883828803896904,0.03688475117087364
1772793797599192800,5.22919287109375,-0.013002932071685791,0.02910931035876274,0.028735805302858353
1772793797609238800,5.23923876953125,-0.018463479354977608,0.030320249497890472,0.021531157195568085
1772793797619285000,5.249284912109375,-0.02104673907160759,0.03350920230150223,0.012900188565254211
1772793797629329700,5.25932958984375,-0.024269962683320045,0.03743017464876175,0.004501111805438995
1772793797639375600,5.269375732421875,-0.027212565764784813,0.03847618028521538,-0.0004015290178358555
1772793797649421600,5.279421630859375,-0.025480711832642555,0.03670171648263931,-0.0083862179890275
1772793797659467800,5.2894677734375,-0.02531753107905388,0.03517572209239006,-0.013066946528851986
1772793797669512700,5.2995126953125,-0.03026115708053112,0.02939106896519661,-0.014269630424678326
1772793797679558700,5.30955859375,-0.033854443579912186,0.02297729253768921,-0.014219813048839569
1772793797689604900,5.31960498046875,-0.034942876547575,0.01852661743760109,-0.01350502111017704
1772793797699650800,5.32965087890625,-0.04000869393348694,0.030922479927539825,-0.013437049463391304
1772793797709695700,5.33969580078125,-0.032712697982788086,0.04991934075951576,-0.012608273886144161
1772793797719741700,5.34974169921875,-0.026323292404413223,0.062149643898010254,-0.012244882062077522
1772793797729788000,5.359787841796875,-0.02160630002617836,0.05786249041557312,-0.001484646461904049
1772793797739833900,5.369833740234375,-0.026497721672058105,0.0501493401825428,0.011242741718888283
1772793797749879800,5.3798798828125,-0.028482841327786446,0.03267500922083855,0.02681104838848114
1772793797759924700,5.3899248046875,-0.030171604827046394,0.02356567233800888,0.03561559319496155
1772793797769970700,5.399970703125,-0.026506561785936356,0.025340937077999115,0.03887343779206276
1772793797780016600,5.4100166015625,-0.025959601625800133,0.03369314223527908,0.039544954895973206
1772793797790062600,5.4200625,-0.024542799219489098,0.037677764892578125,0.03218105062842369
1772793797800107800,5.430107666015625,-0.025415731593966484,0.03483084589242935,0.02178819663822651
1772793797810153700,5.44015380859375,-0.02562106028199196,0.043261878192424774,0.01562111359089613
1772793797820199700,5.45019970703125,-0.021918106824159622,0.05256998538970947,0.01323850266635418
1772793797830245600,5.46024560546875,-0.018204595893621445,0.056864600628614426,0.010981207713484764
1772793797840290800,5.470290771484375,-0.010993448086082935,0.059112828224897385,0.009687705896794796
1772793797850336800,5.480336669921875,-0.007636533118784428,0.06216747686266899,0.0129617964848876
1772793797860382700,5.4903828125,-0.005514898337423801,0.057987917214632034,0.014556234702467918
1772793797870429000,5.500428955078125,-0.005804117769002914,0.056257396936416626,0.0218407791107893
1772793797880473900,5.510473876953125,-0.004289715085178614,0.052244093269109726,0.020778603851795197
1772793797890519800,5.520519775390625,-0.0032678605057299137,0.0426924005150795,0.014202725142240524
1772793797900565800,5.530565673828125,-0.0041032759472727776,0.03807368502020836,0.016660381108522415
1772793797910612000,5.540612060546875,-0.0038492106832563877,0.039084356278181076,0.014376189559698105
1772793797920656600,5.55065673828125,-0.00006306980503723025,0.043747466057538986,0.016284050419926643
1772793797930702600,5.56070263671875,0.0030251317657530308,0.04938138276338577,0.016458755359053612
1772793797940748800,5.570748779296875,0.008039554581046104,0.05080235004425049,0.02380349673330784
1772793797950794800,5.580794677734375,0.016023976728320122,0.045911453664302826,0.02218322828412056
1772793797960839700,5.590839599609375,0.021461158990859985,0.042299412190914154,0.02285483479499817
1772793797970885600,5.6008857421875,0.0329793281853199,0.035613011568784714,0.022893717512488365
1772793797980931800,5.610931884765625,0.03631746023893356,0.027122054249048233,0.024001680314540863
1772793797990977800,5.620977783203125,0.042936746031045914,0.011856546625494957,0.015933899208903313
1772793798001022700,5.631022705078125,0.05001873895525932,-0.0018724831752479076,0.008966215886175632
1772793798011069000,5.64106884765625,0.056473974138498306,-0.0038607993628829718,0.0065781595185399055
1772793798021115000,5.651114990234375,0.054065901786088943,-0.008902791887521744,0.0045475102961063385
1772793798031160800,5.661160888671875,0.04969698563218117,-0.015344979241490364,-0.0007063739467412233
1772793798041205800,5.671205810546875,0.04485693573951721,-0.018955515697598457,-0.008476575836539268
1772793798051251700,5.681251708984375,0.0409945510327816,-0.01349630206823349,-0.015660984441637993
1772793798061298400,5.69129833984375,0.03240207955241203,-0.007228996604681015,-0.01905178092420101
1772793798071344400,5.701344482421875,0.019370168447494507,-0.00900798849761486,-0.02156047895550728
1772793798081389300,5.711389404296875,0.00852444488555193,-0.0044252206571400166,-0.020449673756957054
1772793798091435500,5.721435546875,-0.0066358656622469425,-0.0012363516725599766,-0.023150919005274773
1772793798101481500,5.7314814453125,-0.022537291049957275,0.0019121337682008743,-0.01612311415374279
1772793798111527400,5.74152734375,-0.0339803621172905,-0.002096722833812237,-0.014003770425915718
1772793798121572600,5.751572509765625,-0.04624515399336815,-0.009637118317186832,-0.01626410335302353
1772793798131618600,5.76161865234375,-0.05150170251727104,-0.012358869425952435,-0.01507074199616909
1772793798141664500,5.77166455078125,-0.06389471888542175,-0.01772087812423706,-0.0142278503626585
1772793798151710500,5.78171044921875,-0.0671381875872612,-0.01777973398566246,-0.013714659959077835
1772793798161755600,5.791755615234375,-0.0669008269906044,-0.015466775745153427,-0.01343134231865406
1772793798171801600,5.801801513671875,-0.0674329325556755,-0.010529275052249432,-0.008693313226103783
1772793798181847600,5.81184765625,-0.0725446492433548,-0.007155310828238726,-0.012170467525720596
1772793798191893500,5.8218935546875,-0.07379793375730515,-0.004901743959635496,-0.008615147322416306
1772793798201938400,5.8319384765625,-0.07976926863193512,-0.005959469825029373,-0.0038269783835858107
1772793798211984400,5.841984375,-0.0814896747469902,-0.018061939626932144,0.007124739233404398
1772793798222030300,5.8520302734375,-0.08676748722791672,-0.0333758182823658,0.019634127616882324
1772793798232075500,5.862075439453125,-0.08596400916576385,-0.041465166956186295,0.029576240107417107
1772793798242121500,5.87212158203125,-0.08431784808635712,-0.05299239978194237,0.03503904864192009
1772793798252167400,5.88216748046875,-0.08261582255363464,-0.05276523157954216,0.03914510831236839
1772793798262213400,5.89221337890625,-0.07540111243724823,-0.04944746196269989,0.038234442472457886
1772793798272258600,5.902258544921875,-0.07019569724798203,-0.04889219254255295,0.0317712165415287
1772793798282304500,5.912304443359375,-0.06135883554816246,-0.040263380855321884,0.023559903725981712
1772793798292350500,5.9223505859375,-0.05577046051621437,-0.021729378029704094,0.022677332162857056
1772793798302396400,5.932396484375,-0.049351997673511505,-0.006551314145326614,0.02193388156592846
1772793798312441600,5.942441650390625,-0.045677900314331055,-0.0031880077440291643,0.021357307210564613
1772793798322487600,5.952487548828125,-0.03630346059799194,-0.005957330577075481,0.02010956034064293
1772793798332533200,5.962533203125,-0.033191557973623276,-0.020516566932201385,0.01993911899626255
1772793798342579500,5.972579345703125,-0.03350968286395073,-0.033096008002758026,0.017476048320531845
1772793798352624400,5.982624267578125,-0.03217544034123421,-0.043800052255392075,0.015593992546200752
1772793798362670300,5.99267041015625,-0.03155527636408806,-0.0443289652466774,0.009729398414492607
1772793798372716500,6.002716552734375,-0.029017817229032516,-0.04405679181218147,0.0024890624918043613
1772793798382762500,6.012762451171875,-0.027393115684390068,-0.03620082512497902,-0.0032254010438919067
1772793798392807400,6.022807373046875,-0.024622628465294838,-0.027641693130135536,-0.01100129820406437
1772793798402853400,6.032853271484375,-0.017199411988258362,-0.0208821389824152,-0.017535926774144173
1772793798412899600,6.042899658203125,-0.012721839360892773,-0.021111171692609787,-0.02426813170313835
1772793798422945500,6.052945556640625,-0.0024794703349471092,-0.025529440492391586,-0.03281207010149956
1772793798432990500,6.062990478515625,0.003570432774722576,-0.02104201540350914,-0.03769497573375702
1772793798443036700,6.07303662109375,0.007029831409454346,-0.016879938542842865,-0.0370769128203392
1772793798453082600,6.08308251953125,0.011652813293039799,-0.014088412746787071,-0.04072358086705208
1772793798463128600,6.093128662109375,0.01584327220916748,-0.019456636160612106,-0.04029737040400505
1772793798473173500,6.103173583984375,0.02516913041472435,-0.01696178689599037,-0.03812689334154129
1772793798483219500,6.113219482421875,0.030423259362578392,-0.005658888723701239,-0.03240685537457466
1772793798493265400,6.123265380859375,0.03287016972899437,0.0029468503780663013,-0.030486980453133583
1772793798503311400,6.133311279296875,0.03883787617087364,0.010638684034347534,-0.02403988130390644
1772793798513356500,6.1433564453125,0.043727971613407135,0.02269800938665867,-0.025135239586234093
1772793798523402500,6.153402587890625,0.04943200945854187,0.028738409280776978,-0.02943648397922516
1772793798533448400,6.163448486328125,0.0559823215007782,0.024831285700201988,-0.03642595186829567
1772793798543494400,6.173494384765625,0.061020683497190475,0.018054336309432983,-0.042965829372406006
1772793798553539600,6.18353955078125,0.06435496360063553,0.012706175446510315,-0.04546786844730377
1772793798563585500,6.19358544921875,0.068890780210495,0.010648082941770554,-0.045564766973257065
1772793798573631500,6.203631591796875,0.07696442306041718,0.011003082618117332,-0.04000914469361305
1772793798583677400,6.213677490234375,0.0808350145816803,0.015121402218937874,-0.028692174702882767
1772793798593722600,6.22372265625,0.0870303213596344,0.014405012130737305,-0.027001334354281425
1772793798603768600,6.2337685546875,0.08407612890005112,0.0069169942289590836,-0.033584002405405045
1772793798613814500,6.243814453125,0.07814952731132507,-0.010500878095626831,-0.05318566784262657
1772793798623860500,6.253860595703125,0.060732193291187286,-0.01627940498292446,-0.08104472607374191
1772793798633905400,6.263905517578125,0.04377584531903267,-0.008729609660804272,-0.1009633019566536
1772793798643951400,6.273951416015625,0.027252960950136185,0.01212303712964058,-0.10871729999780655
1772793798653997300,6.283997314453125,0.002271976787596941,0.031155850738286972,-0.09528777748346329
1772793798664043500,6.29404345703125,-0.021244164556264877,0.04932783544063568,-0.06294029206037521
1772793798674088400,6.30408837890625,-0.03656160086393356,0.05567840486764908,-0.025285325944423676
1772793798684134400,6.314134521484375,-0.03692406043410301,0.04822901636362076,0.02047896571457386
1772793798694180600,6.3241806640625,-0.022565625607967377,0.03759394586086273,0.06692396849393845
1772793798704226600,6.3342265625,-0.0025223162956535816,0.03601451963186264,0.11468281596899033
1772793798714271500,6.344271484375,0.02421662025153637,0.04449695348739624,0.15118730068206787
1772793798724317400,6.3543173828125,0.04723376780748367,0.05208900198340416,0.17263436317443848
1772793798734363600,6.36436376953125,0.06431315094232559,0.056394267827272415,0.1708497852087021
1772793798744409600,6.37440966796875,0.07439056038856506,0.06000186502933502,0.15363411605358124
1772793798754454300,6.384454345703125,0.07559803873300552,0.07270275056362152,0.13297811150550842
1772793798764500500,6.39450048828125,0.07149208337068558,0.09938638657331467,0.11403018981218338
1772793798774546400,6.40454638671875,0.061435189098119736,0.1246696412563324,0.08639323711395264
1772793798784591400,6.41459130859375,0.05581962317228317,0.13938377797603607,0.07185008376836777
1772793798794637600,6.424637451171875,0.048134006559848785,0.1395486295223236,0.05273711308836937
1772793798804683500,6.43468359375,0.04867905378341675,0.1430334746837616,0.04390747472643852
1772793798814729500,6.4447294921875,0.049815159291028976,0.14591261744499207,0.038016028702259064
1772793798824774400,6.4547744140625,0.055679019540548325,0.14184489846229553,0.03184521943330765
1772793798834820600,6.464820556640625,0.06705577671527863,0.1311831921339035,0.033685728907585144
1772793798844866600,6.474866455078125,0.08140192180871964,0.12057165801525116,0.032444726675748825
1772793798854912500,6.48491259765625,0.09664665907621384,0.10912059247493744,0.034909214824438095
1772793798864957700,6.494957763671875,0.09830181300640106,0.09117382019758224,0.0473264679312706
1772793798875003600,6.505003662109375,0.09575290232896805,0.07750008255243301,0.06155041605234146
1772793798885049600,6.515049560546875,0.08392899483442307,0.06088089570403099,0.08502297848463058
1772793798895095600,6.525095458984375,0.07299565523862839,0.04115166887640953,0.10860393941402435
1772793798905140500,6.535140380859375,0.061798740178346634,0.02131919004023075,0.1211722269654274
1772793798915186400,6.5451865234375,0.04786108806729317,0.000054381322115659714,0.12796834111213684
1772793798925232400,6.555232421875,0.032859910279512405,-0.006249049212783575,0.11951938271522522
1772793798935278300,6.5652783203125,0.01717362366616726,-0.00030460767447948456,0.10541794449090958
1772793798945323500,6.575323486328125,-0.0014841135125607252,0.008170008659362793,0.08500074595212936
1772793798955369500,6.585369384765625,-0.03016183152794838,0.01377303246408701,0.07354994863271713
1772793798965415400,6.59541552734375,-0.061185117810964584,0.017476696521043777,0.07577413320541382
1772793798975461400,6.60546142578125,-0.10269021987915039,0.03547833487391472,0.08979567885398865
1772793798985506600,6.615506591796875,-0.14372926950454712,0.0504775233566761,0.11046314239501953
1772793798995552500,6.625552490234375,-0.18149209022521973,0.07124271988868713,0.12330330908298492
1772793799005598500,6.635598388671875,-0.2122981995344162,0.10022757947444916,0.1336236596107483
1772793799015644700,6.645644775390625,-0.2072611004114151,0.1381576508283615,0.1336393803358078
1772793799025689300,6.655689453125,-0.18500986695289612,0.15093089640140533,0.11390314251184464
1772793799035735300,6.6657353515625,-0.15782219171524048,0.1570492386817932,0.07298074662685394
1772793799045781200,6.67578125,-0.12892548739910126,0.16850729286670685,0.028072334825992584
1772793799055826400,6.685826416015625,-0.10065549612045288,0.1750410944223404,-0.01335526630282402
1772793799065872100,6.6958720703125,-0.08015071600675583,0.15857380628585815,-0.03838234022259712
1772793799075918000,6.70591796875,-0.06059778854250908,0.1482093185186386,-0.03306800127029419
1772793799085964300,6.71596435546875,-0.04130454361438751,0.15254884958267212,-0.004080985672771931
1772793799096009000,6.726009033203125,-0.01324414648115635,0.17379288375377655,0.04486392065882683
1772793799106055000,6.736054931640625,0.0257218386977911,0.19190344214439392,0.10518331825733185
1772793799116101000,6.74610107421875,0.07304195314645767,0.1904003620147705,0.15610775351524353
1772793799126147000,6.75614697265625,0.10936565697193146,0.1746690571308136,0.18888847529888153
1772793799136192000,6.76619189453125,0.12613745033740997,0.15629617869853973,0.20827680826187134
1772793799146238200,6.77623828125,0.13137181103229523,0.1369198113679886,0.21718327701091766
1772793799156284200,6.7862841796875,0.131572887301445,0.11156412959098816,0.22594374418258667
1772793799166330000,6.796330078125,0.12545490264892578,0.1215478777885437,0.24392125010490417
1772793799176375000,6.806375,0.12690205872058868,0.15444110333919525,0.2628432810306549
1772793799186421200,6.816421142578125,0.1322515457868576,0.18645550310611725,0.27713221311569214
1772793799196467200,6.82646728515625,0.13307340443134308,0.20357643067836761,0.28537121415138245
1772793799206513200,6.83651318359375,0.12819844484329224,0.20949344336986542,0.278260737657547
1772793799216558300,6.846558349609375,0.1154022142291069,0.196747288107872,0.25752589106559753
1772793799226604000,6.85660400390625,0.10167374461889267,0.17583028972148895,0.23619350790977478
1772793799236650000,6.86664990234375,0.08412563800811768,0.16448096930980682,0.2167271375656128
1772793799246696000,6.876696044921875,0.05444348603487015,0.15887917578220367,0.20327703654766083
1772793799256741000,6.8867412109375,0.02593407966196537,0.1459154486656189,0.18709833920001984
1772793799266787000,6.896787109375,-0.012431279756128788,0.13100308179855347,0.17897294461727142
1772793799276833000,6.9068330078125,-0.04458735138177872,0.13320976495742798,0.16273164749145508
1772793799286878200,6.916878173828125,-0.06746243685483932,0.13480260968208313,0.1411794126033783
1772793799296924200,6.926924072265625,-0.08169197291135788,0.14166051149368286,0.12099424004554749
1772793799306970000,6.93697021484375,-0.0953177809715271,0.15259811282157898,0.08988550305366516
1772793799317016000,6.94701611328125,-0.10026673227548599,0.1520708054304123,0.05919203907251358
1772793799327061200,6.957061279296875,-0.10232473164796829,0.1485893428325653,0.03559361770749092
1772793799337107200,6.967107177734375,-0.10321395844221115,0.1464841216802597,0.021000828593969345
1772793799347153200,6.977153076171875,-0.0913078635931015,0.14492768049240112,0.019513066858053207
1772793799357199000,6.98719921875,-0.06871919333934784,0.13688813149929047,0.021542130038142204
1772793799367244000,6.997244140625,-0.048786014318466187,0.12420544028282166,0.01411398220807314
1772793799377290000,7.0072900390625,-0.026524648070335388,0.0991099402308464,0.011662276461720467
1772793799387336000,7.0173359375,-0.010847441852092743,0.06804966926574707,0.010624279268085957
1772793799397382100,7.027382080078125,0.0074000065214931965,0.03279075026512146,0.012667456641793251
1772793799407427000,7.037427001953125,0.037831127643585205,-0.003573208348825574,0.015972809866070747
1772793799417473000,7.04747314453125,0.06606090068817139,-0.024098191410303116,0.028290729969739914
1772793799427519000,7.05751904296875,0.09092491120100021,-0.04124068468809128,0.04672366753220558
1772793799437565200,7.067565185546875,0.11513171344995499,-0.042195163667201996,0.05760028213262558
1772793799447610000,7.077610107421875,0.1362936943769455,-0.026264755055308342,0.05856844037771225
1772793799457656000,7.087656005859375,0.1504015177488327,-0.008339815773069859,0.04905722662806511
1772793799467702300,7.097702392578125,0.16650117933750153,0.015220006927847862,0.03745061531662941
1772793799477747200,7.107747314453125,0.17689096927642822,0.02472616173326969,0.024172622710466385
1772793799487793200,7.117793212890625,0.18401402235031128,0.01905026100575924,0.010230516083538532
1772793799497839000,7.127839111328125,0.1850353479385376,0.017146900296211243,0.00125193502753973
1772793799507885300,7.13788525390625,0.18987950682640076,0.0003917058929800987,0.001553390291519463
1772793799517930000,7.147929931640625,0.182835191488266,-0.025178901851177216,-0.0020176423713564873
1772793799527976000,7.157975830078125,0.17513608932495117,-0.04835329204797745,-0.0008491203188896179
1772793799538022100,7.168022216796875,0.1736242175102234,-0.051109664142131805,0.0013929951237514615
1772793799548068000,7.178068115234375,0.18172946572303772,-0.03887758031487465,0.010671417228877544
1772793799558113000,7.188113037109375,0.18022345006465912,-0.03045346960425377,0.03467369079589844
1772793799568159000,7.198158935546875,0.173747718334198,-0.02191510796546936,0.06366832554340363
1772793799578205200,7.208205078125,0.14750412106513977,-0.017362166196107864,0.10913674533367157
1772793799588251100,7.218251220703125,0.12314508110284805,-0.07549960911273956,0.12996231019496918
1772793799598296000,7.228296142578125,0.11270522326231003,-0.11682067811489105,0.1335916668176651
1772793799608342300,7.23834228515625,0.11160046607255936,-0.12590374052524567,0.12412038445472717
1772793799618388200,7.24838818359375,0.10176993906497955,-0.10207190364599228,0.10434960573911667
1772793799628433000,7.258432861328125,0.08152393251657486,-0.047276563942432404,0.07180062681436539
1772793799638479000,7.26847900390625,0.05296126380562782,0.01069699227809906,0.026517566293478012
1772793799648525000,7.278525146484375,0.020766794681549072,0.06534700840711594,-0.02352834865450859
1772793799658571000,7.288571044921875,-0.013410617597401142,0.12218153476715088,-0.07248444110155106
1772793799668616000,7.298615966796875,-0.03248213976621628,0.1806229054927826,-0.11551351845264435
1772793799678662100,7.308662109375,-0.05199858546257019,0.23570293188095093,-0.1441803127527237
1772793799688708000,7.3187080078125,-0.0798112228512764,0.2657911479473114,-0.1357271522283554
1772793799698754000,7.328754150390625,-0.09566102921962738,0.2153884321451187,-0.11664426326751709
1772793799708799200,7.33879931640625,-0.09144452959299088,0.10471615940332413,-0.10690617561340332
