time,seconds_elapsed,z,y,x
1772795045202586600,0.072586669921875,0.017506430596113204,-0.012633829865866572,0.009504417257849127
1772795045212630800,0.082630859375,0.02003448776900768,-0.0041214729773346335,0.007655611053388565
1772795045222675500,0.092675537109375,0.02882452794611454,-0.0027103537955961653,0.0019612262035254386
1772795045232719600,0.1027197265625,0.026869302225112912,0.00661737573807477,0.014525816483283415
1772795045242763800,0.112763671875,0.01132218900322914,-0.0012045569091045762,0.030737357563804833
1772795045252808000,0.122807861328125,0.011458967125415801,-0.02074301049769856,0.007797421543719246
1772795045262851800,0.132851806640625,0.030994857722520825,-0.011663169619248947,-0.003234241814026609
1772795045272896000,0.14289599609375,0.030718963390588758,-0.020147464890498668,-0.00492646008413285
1772795045282941000,0.15294091796875,0.021577041035890577,-0.0008587551291391719,0.01277490856219083
1772795045292985000,0.162985107421875,0.013939678025245665,0.0119976337295142,-0.00003020334201864898
1772795045303029000,0.173029052734375,0.03340308790802955,0.015625455138122198,-0.0003933284328319132
1772795045313074000,0.183073974609375,0.03902735753059387,0.008200662303323043,-0.007032309789583087
1772795045323118000,0.1931181640625,0.021575287470221517,0.000136056032156921,-0.0022475779973901806
1772795045333162000,0.203161865234375,0.01680208171904087,0.0028743498599156734,-0.00842316135978326
1772795045343207000,0.21320703125,0.017429273706674575,0.012243102098786039,-0.005214428446348756
1772795045353251000,0.2232509765625,0.027927286845445633,0.0015263875833712518,0.00030822569895535705
1772795045363295000,0.233294921875,0.032549101427197455,-0.0043199706745217555,-0.012204652659874408
1772795045373340000,0.24333984375,0.03256254543066025,-0.011318631639541126,-0.009404555346257984
1772795045383384000,0.253384033203125,0.03915712139010429,0.0014234866146114653,0.008635452403593808
1772795045393428000,0.263427978515625,0.02211246308684349,-0.0019585558974707963,-0.013900588123872876
1772795045403473000,0.273472900390625,0.021658289578557012,-0.016994044644164385,-0.000755768537055701
1772795045413517000,0.28351708984375,0.015229717835783958,-0.00591496651469497,-0.012680161217134445
1772795045423562000,0.29356201171875,0.028251111972332,-0.0014093639036029343,0.00588461932549253
1772795045433606000,0.30360595703125,0.033338205978274346,-0.008572770993257291,0.000015142770204693079
1772795045443650000,0.313650146484375,0.02287234154343605,-0.0014968812152073951,0.008400492870248853
1772795045453695000,0.323695068359375,0.028715222352743146,0.0020026667505444492,0.0033554296414367852
1772795045463739000,0.33373876953125,0.01942892309129238,0.006642263584159081,0.007898589496407657
1772795045473783000,0.343782958984375,0.03320551950931549,0.004173597031860845,0.00630114597082138
1772795045483828000,0.353827880859375,0.01210252572596073,0.0012431422036897856,-0.00589271130040288
1772795045493871900,0.363871826171875,0.02153729354739189,0.020153963129944167,-0.019152352905925363
1772795045503916000,0.373916015625,0.026619126856327054,0.004295536061230814,0.004860281246434897
1772795045513961000,0.3839609375,0.028262217888236043,0.005753097333735786,0.007247432111296802
1772795045524004900,0.3940048828125,0.01434299812912941,0.012653889698139392,0.009576642243843525
1772795045534049000,0.404049072265625,0.02451835518479347,0.009590268910396844,0.004177395282499492
1772795045544094000,0.414093994140625,0.03558627716600895,0.004890500571473967,0.003099135059118271
1772795045554137900,0.424137939453125,0.01598082846403122,-0.010186831722682109,-0.009211078600771725
1772795045564182000,0.43418212890625,0.03244564105272293,-0.0041393157363461795,0.0069309500406496225
1772795045574227000,0.44422705078125,0.01809212152957916,-0.0015933884049765764,0.0148087524773553
1772795045584270800,0.454270751953125,0.029462825849652288,-0.0036883011578815058,0.0037541466354392467
1772795045594315000,0.46431494140625,0.03095511023402214,0.003023488565109437,-0.012667338268179446
1772795045604360000,0.47435986328125,0.023615853387117386,0.0006072577362356242,0.002732731165830046
1772795045614403800,0.48440380859375,0.01807692396044731,-0.015221629285806556,-0.011206709397397934
1772795045624448000,0.494447998046875,0.0322901582300663,0.00004079380551411305,-0.01057465857155621
1772795045634493000,0.504492919921875,0.017180851903557778,-0.009247531874597188,0.008829093545861541
1772795045644537000,0.514537109375,0.02690261997282505,-0.002516622463427484,0.0073675513596273955
1772795045654581000,0.5245810546875,0.007295417705178261,-0.007107871801912551,-0.005805343544203788
1772795045664626000,0.5346259765625,0.0158247611194849,-0.016494869800237937,0.00004592150095850229
1772795045674670000,0.544670166015625,0.024810031607747078,-0.009576319729324313,-0.00851489476384595
1772795045684714000,0.5547138671875,0.03288812412321567,-0.014757937888859304,0.0015065321054309605
1772795045694759000,0.564759033203125,0.0328910467326641,0.005662407392577734,-0.010530326239485292
1772795045704803000,0.574802978515625,0.026461305946111676,0.016094285076134838,0.004116988598462194
1772795045714847000,0.584846923828125,0.022269114953279493,-0.00788741394020035,-0.006500504467822611
1772795045724892000,0.594891845703125,0.02331190200448036,-0.014533930149435763,-0.002892634435277432
1772795045734936000,0.60493603515625,0.01613280415534973,0.0036577165066613813,0.0009272709127515554
1772795045744980000,0.61497998046875,0.012392448583245277,0.016621943945740347,0.004706022266484797
1772795045755025000,0.62502490234375,0.023018472015857695,0.009724536556733073,-0.016542681864183395
1772795045765069000,0.635069091796875,0.02630874573290348,0.006115108179696835,-0.0012228745921514929
1772795045775114000,0.645114013671875,0.030202830561995506,0.00029479425358003937,-0.00880207767477259
1772795045785158000,0.655157958984375,0.021074352210760115,0.0122051435669302,0.002506301998812705
1772795045795202000,0.6652021484375,0.013594225588440895,-0.003576029572577681,-0.004987396491132676
1772795045805247000,0.6752470703125,0.0339455242216587,-0.009540784337528748,0.002377615851536393
1772795045815291000,0.685290771484375,0.037385435542464256,-0.014997106664796592,0.0019694186431355775
1772795045825335000,0.6953349609375,0.036036943542957306,-0.002110960847052047,-0.016394852625019846
1772795045835380000,0.7053798828125,0.040681554478406906,-0.008015939115628134,-0.0018420111374929547
1772795045845423900,0.715423828125,0.0279635272026062,0.012538631571305449,0.006463551724608987
1772795045855468000,0.725468017578125,0.02287935580611229,0.003089901439892128,0.0017427337477914989
1772795045865513000,0.735512939453125,0.028414778101444244,0.009672913684061495,0.0026943901831284166
1772795045875556900,0.745556884765625,0.023030162453651425,-0.006191312937776092,-0.005985412818845361
1772795045885601000,0.75560107421875,0.03350421019494533,0.0011394866080372593,-0.008702526290435343
1772795045895646000,0.76564599609375,0.01644610788822174,-0.005875427947106072,0.01531843729885295
1772795045905689900,0.77568994140625,0.03725099550783634,0.0028989968190493527,0.00381060779672116
1772795045915734000,0.785734130859375,0.03620411680340767,0.00587814848551061,-0.005438081134390086
1772795045925779000,0.795779052734375,0.02228665060997009,-0.010861350575427059,-0.0026684337579645214
1772795045935822800,0.80582275390625,0.023932664251327514,-0.003993577989569166,-0.009686459293868393
1772795045945867000,0.815866943359375,0.035602643778920175,-0.006815291196660837,0.004993406106811016
1772795045955912000,0.825911865234375,0.02961830867230892,-0.000624264811608009,0.0013400894973427057
1772795045965956000,0.8359560546875,0.028871289697289464,-0.011073663310479605,-0.008773472634796053
1772795045976000000,0.846,0.020786767441034314,-0.020247354201553387,-0.009610928105935454
1772795045986045000,0.856044921875,0.010462357303500175,-0.008320148509880528,-0.0027145561883226035
1772795045996089000,0.866089111328125,0.02467792966067791,-0.0070340998878702515,0.014796404452435671
1772795046006134000,0.876134033203125,0.04278524875938892,-0.01167879530499922,0.017411299658566713
1772795046016178000,0.886177978515625,0.0264776725590229,-0.018707169846625765,-0.005140796954557299
1772795046026222000,0.89622216796875,0.024980127477645872,-0.011722436942259083,0.0014080766996368765
1772795046036267000,0.90626708984375,0.020042086553573608,-0.006544812825362896,-0.005470339436177164
1772795046046311000,0.916310791015625,0.015704349610209466,-0.014034105709893628,0.0013850063513033092
1772795046056355000,0.92635498046875,0.022740824118256567,-0.001491880242282059,-0.0010845894994679839
1772795046066400000,0.93639990234375,0.016306407156586645,0.003567342800978804,0.001013761886116117
1772795046076444000,0.94644384765625,0.021691022804379463,-0.0035237673790892584,-0.004375822197739035
1772795046086488000,0.956488037109375,0.02632745043337345,0.012773545438877772,0.011057364054583012
1772795046096533000,0.966532958984375,0.02558160050213337,0.004358341339975595,0.0014900010957382618
1772795046106577000,0.976576904296875,0.022888123634457587,0.001645768187829526,-0.0058044119624421
1772795046116621000,0.98662109375,0.021389994031190872,0.010221452086558565,0.00650265989229083
1772795046126666000,0.996666015625,0.036055063721537585,0.013924977071391184,-0.000783953451924026
1772795046136710000,1.0067099609375,0.0276759424328804,0.008070379566471091,-0.0059745352318044745
1772795046146754000,1.016754150390625,0.03425999699831009,-0.004997770613030297,-0.00046063978169113396
1772795046156799000,1.026799072265625,0.02513444125652313,0.0017654958521598017,-0.011711288785515353
1772795046166843000,1.0368427734375,0.023037761238217352,-0.0019143845372484064,-0.0059953131583519274
1772795046176887000,1.046886962890625,0.03800035257041454,-0.007373872644203947,0.003963478537183255
1772795046186932000,1.056931884765625,0.039347675526142115,-0.008766161544597707,-0.004552804466150701
1772795046196975900,1.066975830078125,0.02632745043337345,0.005592277323902817,0.00759231829252094
1772795046207020000,1.07702001953125,0.024832827961444853,0.014409078785416203,0.0042736587312072515
1772795046217065000,1.08706494140625,0.024835750570893288,-0.005725713853177148,0.0019402838801965117
1772795046227108900,1.09710888671875,0.01795417436361313,0.003259875153849134,-0.001259790802747011
1772795046237154000,1.107154052734375,0.024239538243412972,0.004256507808651076,-0.00750324263642542
1772795046247198000,1.117197998046875,0.017954758885502815,-0.003384699118405115,0.01674217735850252
1772795046257243000,1.127242919921875,0.022892215287685393,-0.004276282229844946,-0.003190822797408327
1772795046267288000,1.1372880859375,0.012268529942631721,0.005196105055080261,0.00013571867626160382
1772795046277331700,1.147331787109375,0.019448796835541723,0.01608963173390366,-0.015874655542662368
1772795046287376000,1.1573759765625,0.027978140249848363,0.003969726756523596,0.0022038941192906347
1772795046297421000,1.167421142578125,0.030370003822445868,0.010927831948868696,0.0008596490366384387
1772795046307465000,1.17746484375,0.02258651033937931,-0.0016075048369413706,0.007605506567656993
1772795046317508900,1.1875087890625,0.015554127484560011,0.020649884287570603,0.013167926467768848
1772795046327554000,1.197553955078125,0.03305821999311447,-0.002748892282764427,-0.0015723456169478595
1772795046337598000,1.207597900390625,0.028269232150912284,-0.01089907735348679,0.006058240593038499
1772795046347641900,1.217641845703125,0.02198386827111244,-0.0031872163430147335,0.0021266550314612684
1772795046357687000,1.22768701171875,0.03680091365277767,-0.002500775298679946,-0.01057701492542401
1772795046367731000,1.23773095703125,0.02991758387982845,0.006486820719053502,0.013653152701444923
1772795046377774800,1.24777490234375,0.020788521006703375,0.00023324135864968411,-0.00571348227597773
1772795046387820000,1.257820068359375,0.010762217032909393,0.005964375739038223,0.002185783073864877
1772795046397864000,1.267864013671875,0.026921909195184706,0.006559778640698641,0.009866839095763861
1772795046407907800,1.277907958984375,0.02841828523278236,-0.0015241979095735585,-0.004037603219319135
1772795046417953000,1.287953125,0.011957564297318458,-0.012265239723713602,-0.009158544695936143
1772795046427997000,1.297996826171875,0.00986263784468174,-0.00036602372573106545,0.002218077908270061
1772795046438041900,1.308041748046875,0.03395721465945244,0.00883548104580841,-0.000734597884863615
1772795046448086000,1.3180859375,0.025126842471957206,0.01270400560031412,-0.006666746146511286
1772795046458130000,1.3281298828125,0.030213351956009864,-0.006033261415408924,-0.008222743416856974
1772795046468174800,1.3381748046875,0.02796703433394432,-0.00545888303546817,0.002136555370967835
1772795046478219000,1.348218994140625,0.023328268617391585,-0.006603678289573872,-0.002220050669647753
1772795046488263000,1.358262939453125,0.016743045008182526,-0.0014736527491360902,-0.0003701119540259242
1772795046498307800,1.368307861328125,0.017940730360150335,0.001864493539003888,0.024061825322639195
1772795046508351700,1.378351806640625,0.021680501410365104,0.011715644158580106,-0.009823456611763686
1772795046518396000,1.38839599609375,0.03380114731490612,-0.008830460094107546,-0.014474095429200678
1772795046528440800,1.39844091796875,0.0315583368241787,0.008584675489360233,-0.003600526976305991
1772795046538484700,1.408484619140625,0.03185644298791885,0.001129718699271325,0.005913078234996647
1772795046548529000,1.41852880859375,0.026915479454398154,0.008657933663460425,0.003199672824144363
1772795046558574000,1.428573974609375,0.032302433189749714,0.0003316316907177679,-0.011466693774145095
1772795046568617700,1.43861767578125,0.02886193734705448,-0.011285840189858572,0.016579451944306493
1772795046578662000,1.448661865234375,0.029456980630755424,-0.01603473120040144,-0.005787150300387293
1772795046588707000,1.45870703125,0.025116905599832533,-0.002240014603798045,0.005670227656140923
1772795046598750700,1.468750732421875,0.007159808626770973,-0.010159098898962838,-0.004215681466273963
1772795046608796000,1.4787958984375,0.021675825235247612,-0.0019860318512190133,-0.01419319612858817
1772795046618840000,1.488840087890625,0.03394318613409996,-0.0010208743302035144,-0.00537789364606142
1772795046628883700,1.4988837890625,0.02960311110317707,0.012686066943180047,0.000100135906226933
1772795046638929000,1.508928955078125,0.031851182290911675,0.025338272715953642,-0.013275843821652233
1772795046648973000,1.51897314453125,0.012546177840232849,0.017997684711776672,-0.008593713887408375
1772795046659017000,1.529016845703125,0.02945581158697605,0.003511459311720682,-0.0049742995475418866
1772795046669062000,1.539061767578125,0.020324410626292227,-0.0038303673765389245,-0.004884630236402154
1772795046679106000,1.54910595703125,0.017629764714837074,0.005283618941751774,-0.0043438378905877465
1772795046689150000,1.55914990234375,0.028706454524397847,-0.0003603486118372529,0.007384959152154624
1772795046699195000,1.56919482421875,0.031548984473943706,-0.010699576150946086,-0.0022254757634364067
1772795046709239000,1.579239013671875,0.018678396984934807,-0.0037812515547848303,-0.010439159091003238
1772795046719283000,1.589282958984375,0.012842530438303947,-0.00005899561166297644,-0.006405501394439488
1772795046729327900,1.599327880859375,0.027057518273591992,0.007188008383015403,0.015090035370457916
1772795046739372000,1.6093720703125,0.036784547039866444,-0.002811595955165103,0.0013470672274008392
1772795046749416000,1.619416015625,0.026011808612942694,0.00211011032203678,-0.015613474722672252
1772795046759460900,1.6294609375,0.026461305946111676,-0.01200669952702592,-0.008394300591479987
1772795046769505000,1.639505126953125,0.011495792004466055,-0.013030982807156396,0.014691866365727037
1772795046779550000,1.649550048828125,0.027505846562981603,0.0015562073328997939,-0.006334244522824883
1772795046789593900,1.65959375,0.025710779839754103,0.006499326290888711,-0.007488072466757148
1772795046799638000,1.669637939453125,0.011795067211985588,0.004524023612949532,0.0084041826646775
1772795046809683000,1.679682861328125,0.033192660027742384,0.0062781715206103395,-0.0015403247771784661
1772795046819726800,1.689726806640625,0.029602526581287383,0.0018802333891857414,-0.0037262722478248176
1772795046829770800,1.699770751953125,0.024817045870423316,0.001171300810185494,0.004692158137913793
1772795046839816000,1.70981591796875,0.019281039053201676,-0.006400641414587153,0.005788648137729615
1772795046849859800,1.71985986328125,0.019127309796214104,-0.001505033126444323,-0.00780733101638034
1772795046859903700,1.72990380859375,0.0313970087826252,0.0018150055412028449,0.00759124058028683
1772795046869949000,1.739948974609375,0.019126725274324415,-0.0026750039210019167,0.010126896537747234
1772795046879993000,1.7499931640625,0.02615793908536434,0.0069370418547187,-0.012460819378029554
1772795046890036700,1.76003662109375,0.030645898154377935,0.004418294791219523,0.0017137999142520129
1772795046900082000,1.77008203125,0.019722353079915045,0.010076198396971449,0.00483032449958846
1772795046910126000,1.7801259765625,0.021067922469973563,0.029688716160552575,0.00882361365314573
1772795046920169700,1.790169677734375,0.028398996010422704,0.0008107010365987662,-0.0012569595248438418
1772795046930215000,1.80021484375,0.029146599507331845,0.006324724350875476,-0.011483791039418429
1772795046940259000,1.810259033203125,0.030343115815520284,0.012539539178536506,0.003902505597565323
1772795046950302700,1.820302734375,0.013881810358166694,0.0056213116221420925,0.0011482567196711897
1772795046960348000,1.830347900390625,0.006699205377697944,-0.014599279011716135,-0.008133786491770297
1772795046970392000,1.84039208984375,0.023460370564460754,-0.014941627317626261,-0.002047105255536735
1772795046980436700,1.850436767578125,0.01103811136484146,0.004283869597967714,-0.026428207394108175
1772795046990481000,1.86048095703125,0.010887889239192008,-0.0007021181040792726,-0.013765179974865167
1772795047000525000,1.870525146484375,0.015228548792004585,-0.007132644341920968,0.00007867299309000373
1772795047010569700,1.88056982421875,0.010441899037361145,-0.01218466360954917,-0.00011257526269182562
1772795047020614000,1.89061376953125,0.020466449445486066,-0.02301945839654654,-0.002872468430083245
1772795047030658000,1.900657958984375,0.022711598023772237,-0.015127573777205543,0.003753123722132295
1772795047040702700,1.91070263671875,0.013133622339367866,-0.004974289272743044,0.01895540556171909
1772795047050747000,1.920746826171875,0.030790275061130523,-0.00042655599064310077,0.0030822204569354653
1772795047060791000,1.930791015625,0.028398996010422704,-0.00026713221180834804,-0.0004862674132920801
1772795047070835700,1.940835693359375,0.025558219626545906,0.013449925171857465,-0.005742891033552587
1772795047080879900,1.9508798828125,0.02705342662036419,0.01794174528194708,-0.0017830657581798732
1772795047090924000,1.960924072265625,0.028549218136072158,-0.0002790224373573437,0.007461001796741038
1772795047100969000,1.970968994140625,0.022862404671311377,0.01215713970673969,-0.003911456089001149
1772795047111012900,1.981012939453125,0.0161298815459013,0.024249890674068592,-0.003987754461914301
1772795047121058000,1.99105810546875,0.024806524476408957,-0.010605629098555072,0.012596519787982105
1772795047131102000,2.00110205078125,0.02046586492359638,0.007159458141966024,-0.009598945407196878
1772795047141145900,2.011145751953125,0.028695348608493803,0.017472568284062434,-0.001580127064604312
1772795047151191000,2.02119091796875,0.033632805010676385,-0.0076103357231128025,0.00019291048990562558
1772795047161235000,2.03123486328125,0.0361766442745924,-0.009262009636987931,-0.0037134310325607654
1772795047171278800,2.04127880859375,0.021211130332946776,-0.0018725455563631838,-0.004279887542594224
1772795047181324000,2.051323974609375,0.019712416207790375,-0.009694717948848847,-0.008313198179285972
1772795047191368000,2.061367919921875,0.029140169766545293,0.004467876403854461,-0.0027172230694442988
1772795047201411800,2.071411865234375,0.019563363125920295,-0.013790112345077795,-0.004956325499434024
1772795047211457000,2.08145703125,0.029739304703474044,-0.00737046255263267,-0.001647858538571745
1772795047221501000,2.0915009765625,0.021508651974797247,0.0012976557197689543,0.000849383370950818
1772795047231545000,2.101545166015625,0.01612052919566631,-0.002443423654831713,-0.0008848565431311726
1772795047241590000,2.111590087890625,0.022702245673537253,0.003661377759982133,-0.005521412036288529
1772795047251634000,2.121634033203125,0.0438011478036642,0.009211134541343199,-0.0020605492589995263
1772795047261678300,2.13167822265625,0.031682839986681935,0.005057154383760644,0.01094758353717625
1772795047271722500,2.141722412109375,0.022256839993596074,0.028586791933793574,-0.015324300784058867
1772795047281766400,2.151766357421875,0.02345043369233608,0.0022911842436762527,-0.0016044395219534636
1772795047291811600,2.1618115234375,0.020607319220900533,0.004619712814566446,-0.004581665234453976
1772795047301855500,2.17185546875,0.033626959791779515,-0.01004687183778733,0.010125617896113544
1772795047311899400,2.1818994140625,0.009384498938918113,-0.013281838595954467,-0.00413127285214141
1772795047321944600,2.191944580078125,0.030782676276564596,-0.0041098544631327965,-0.0015842369841411708
1772795047331988500,2.201988525390625,0.01686521008312702,-0.002498413236590568,0.002380045270640403
1772795047342032400,2.212032470703125,0.02015431475639343,0.013015256656706333,-0.007257843907456845
1772795047352077600,2.22207763671875,0.026589900761842727,-0.0034198012561828363,0.010015508585143834
1772795047362121200,2.232121337890625,0.025091186636686323,0.004951438120118109,0.01286355496002361
1772795047372165400,2.242165283203125,0.011323942568898201,-0.006758253504999447,0.005494469230435789
1772795047382210600,2.25221044921875,0.021498715102672577,-0.011204380442993715,0.004370415370259434
1772795047392254500,2.26225439453125,0.021947627913951873,-0.014778724948561283,-0.007895338093396275
1772795047402298400,2.27229833984375,0.03137479695081711,-0.0009658093999198172,0.001534315161500126
1772795047412343600,2.282343505859375,0.029728783309459685,-0.008151397496985737,-0.001745893819257617
1772795047422387500,2.292387451171875,0.020302783316373824,-0.012665779923688386,0.004463153421320021
1772795047432432400,2.302432373046875,0.031823125240206716,-0.008297249408194329,0.010186901362985373
1772795047442476500,2.3124765625,0.028527590826153755,0.015488095918978796,0.0018639489746652541
1772795047452520400,2.3225205078125,0.02598375156223774,0.017141714053123723,-0.005005589734949171
1772795047462565400,2.3325654296875,0.020149638581275938,0.013819933236250652,0.010072481203079223
1772795047472609500,2.342609619140625,0.024939795467257497,0.000645136352989357,-0.005096154095232486
1772795047482653400,2.3526533203125,0.02479074238538742,-0.005184834742394741,0.011562080440018326
1772795047492698400,2.362698486328125,0.01760813740491867,-0.001270603316061897,-0.002641253490094095
1772795047502742500,2.372742431640625,0.02419336101412773,-0.005889036347350338,-0.005104246070142835
1772795047512786400,2.382786376953125,0.020602058523893355,-0.0020485311692871617,-0.0036207295141182836
1772795047522831400,2.392831298828125,0.028234160837531087,-0.008466547268716386,-0.004171495264675468
1772795047532875500,2.40287548828125,0.0282335763156414,-0.002104378125927178,-0.004380169579293579
1772795047542919400,2.41291943359375,0.024942718076705932,-0.002681971376261208,-0.00268206042451784
1772795047552964400,2.42296435546875,0.025991350346803662,0.0037406284250959287,0.0017277188417501746
1772795047563008500,2.433008544921875,0.037811552000045774,-0.005813643298379611,0.008996942659746855
1772795047573053400,2.443053466796875,0.020151976668834684,0.0023948740886582526,-0.012558434533607214
1772795047583097300,2.453097412109375,0.03197393188774585,-0.002652722448890563,0.0006756707718595862
1772795047593141500,2.4631416015625,0.02015489927828312,-0.006012163828453048,-0.00890928264260292
1772795047603186400,2.4731865234375,0.012373743882775306,0.0015735146607272325,-0.0009956965064629912
1772795047613230600,2.483230712890625,0.02883271125257015,0.0106239764643542,-0.0028563575454987585
1772795047623274500,2.4932744140625,0.031527357164025306,-0.006557894927577581,0.010712806666921823
1772795047633319400,2.5033193359375,0.00982990461885929,-0.00021235040931496767,-0.009923756914772092
1772795047643363600,2.513363525390625,0.026888006925582884,-0.002268448397127213,-0.011009542857483028
1772795047653407500,2.523407470703125,0.018509470158815385,-0.0010373802237212658,-0.004055979126226157
1772795047663452400,2.533452392578125,0.031229835522174832,-0.007582451060699531,-0.0009911481955088674
1772795047673496600,2.54349658203125,0.02330021156668663,-0.013308597597072366,-0.009451755488850177
1772795047683540200,2.553540283203125,0.03212766114473343,-0.02258988960655406,0.0013821750734001397
1772795047693585400,2.56358544921875,0.030931729358434676,-0.017843345816724466,-0.009033036886435001
1772795047703629600,2.573629638671875,0.022849545189738273,0.000013966876559425144,-0.010048168745730071
1772795047713674500,2.583674560546875,0.008335282146930694,-0.0008417977152945241,-0.02407373495614156
1772795047723718400,2.593718505859375,0.028387305572628974,0.00870905820838816,-0.00219559208182618
1772795047733762600,2.603762451171875,0.03182897045910358,0.013630231908516725,0.004228394817374646
1772795047743807500,2.613807373046875,0.02345043369233608,0.015286671045765978,-0.003953852192312479
1772795047753851400,2.623851318359375,0.03153320238292217,0.017529600267502245,-0.005741648924537003
1772795047763895600,2.6338955078125,0.02285539040863514,0.004382137774094008,-0.00162986622415483
1772795047773940500,2.6439404296875,0.0194148945659399,-0.018362145526439416,-0.01006922980006784
1772795047783984400,2.653984375,0.011484101566672324,-0.012306378876633243,0.01073863522792235
1772795047794028500,2.664028564453125,0.01073708259165287,0.004857660031085833,-0.0024980273608118295
1772795047804073500,2.674073486328125,0.016124620848894117,-0.005528977142347139,-0.015940167660079895
1772795047814117400,2.684117431640625,0.031688100683689116,0.005565115322341443,0.005227379259467125
1772795047824161500,2.69416162109375,0.031688100683689116,0.006795954596062074,0.008530183664523065
1772795047834206500,2.70420654296875,0.03557750933766365,-0.005857808379558264,0.005442282385472208
1772795047844250400,2.71425048828125,0.02076397108733654,-0.002247698440865497,-0.009309588805492966
1772795047854295600,2.724295654296875,0.005501520025730133,-0.019811531483998987,-0.00029669965794309973
1772795047864339500,2.73433935546875,0.01642389605641365,-0.015116566042712656,-0.0028997400294989346
1772795047874383400,2.74438330078125,0.018669629156589505,-0.017857177979254627,-0.009120404642634094
1772795047884428500,2.754428466796875,0.026451369073987006,-0.0051708364706166314,0.014268234126176685
1772795047894472400,2.764472412109375,0.02944178306162357,-0.008532367630099178,0.004979158385749906
1772795047904516400,2.774516357421875,0.025699673923850058,-0.0006247300316666951,-0.00003976575480774045
1772795047914561500,2.7845615234375,0.026598084068298337,0.012007770389394136,-0.004664557744935155
1772795047924605400,2.79460546875,0.03153846307992935,0.007954560321455938,0.009262680923845619
1772795047934649300,2.8046494140625,0.02630173147022724,0.009292690186330582,0.0003422923653386533
1772795047944694500,2.814694580078125,0.025553543451428413,0.0029834316910011694,-0.010144687922764569
1772795047954738400,2.824738525390625,0.028248189362883567,-0.014669733307376736,-0.007216653380542993
1772795047964782600,2.834782470703125,0.015827683728933332,-0.012085647656396031,0.00024348989967256783
1772795047974827500,2.84482763671875,0.020616087049245835,0.0011629451154381968,0.0012728512137196958
1772795047984871400,2.854871337890625,0.026304069557785987,-0.015722843106481012,0.013507095294259489
1772795047994916400,2.864916259765625,0.017774726143479348,-0.010032499677495798,0.004229910921026021
1772795048004960500,2.87496044921875,0.018521160596609115,-0.006956007991736987,0.0006913432650268078
1772795048015004400,2.88500439453125,0.013134206861257552,-0.0040490413537190755,0.0028056685378775
1772795048025049300,2.89504931640625,0.025704934620857236,-0.0073594650929386255,0.00913881708215922
1772795048035093500,2.905093505859375,0.036029929280281064,0.006093408946186537,-0.008796780445147305
1772795048045137400,2.915137451171875,0.02600537887215614,0.0099359371179773,-0.004536711847875267
1772795048055182300,2.925182373046875,0.029299159720540046,0.011301632555678951,0.002906370699685067
1772795048065226500,2.9352265625,0.03199146754443645,0.0012831020380312112,0.001504650675598532
1772795048075270400,2.9452705078125,0.02690437353849411,0.017993613608146553,-0.007289499421045184
1772795048085315600,2.955315673828125,0.023313071048259734,0.015132616420148405,0.001871602558158338
1772795048095359500,2.965359375,0.025857494834065436,-0.004086418788618175,0.004278024379070848
1772795048105403400,2.9754033203125,0.017626257583498953,-0.008054003820405341,0.004065495873242617
1772795048115448600,2.985448486328125,0.0146352590739727,0.005018943548511015,-0.0009039996350184082
1772795048125492500,2.995492431640625,0.017477789023518563,-0.0021582020888396072,-0.005281794594135135
1772795048135537400,3.005537353515625,0.017028876212239266,0.005357815547479549,-0.011746935487631708
1772795048145581600,3.01558154296875,0.02136778219938278,-0.007230341695889365,-0.0160910656391643
1772795048155625200,3.025625244140625,0.01598082846403122,0.008133078672294505,0.0024343327411450446
1772795048165670400,3.03567041015625,0.011191256099939345,0.0032079623035213443,-0.004223261984530836
1772795048175714600,3.045714599609375,0.015080664753913878,-0.006211377336626174,-0.004440083072986454
1772795048185758500,3.055758544921875,0.0203168118417263,-0.024738774736132473,-0.009474040385894477
1772795048195803400,3.065803466796875,0.0361766442745924,-0.019841709709842687,0.0014937639554031192
1772795048205847600,3.07584765625,0.018519407030940054,-0.008074149276001844,0.0022410751913674175
1772795048215891500,3.085891357421875,0.013279752811789511,-0.011974402409332105,-0.00013604746982455253
1772795048225936400,3.095936279296875,0.020612579917907714,-0.003277232714026468,-0.009216668091341853
1772795048235980500,3.10598046875,0.0294406140178442,0.012011261537711834,-0.007767346065863967
1772795048246024400,3.1160244140625,0.01552373234629631,0.02575515327102039,0.016126228284090757
1772795048256070000,3.12606982421875,0.03572188624441623,0.016620726952899713,0.003224715933855623
1772795048266113800,3.13611376953125,0.030932898402214047,0.013832449082884704,0.005765468191541731
1772795048276158700,3.14615869140625,0.025396891584992407,0.008185556636558611,-0.0040677060966379935
1772795048286203000,3.156202880859375,0.01626841323375702,-0.014339561779738868,-0.0014313479773700236
1772795048296246800,3.166246826171875,0.021204700592160224,-0.0024599980470084116,0.012243632963392884
1772795048306291700,3.176291748046875,0.014470423901081084,-0.008670508875598898,0.0009691920920275151
1772795048316335900,3.1863359375,0.029584406402707097,-0.002350912790989969,0.0008476663378998636
1772795048326379800,3.1963798828125,0.030778000101447104,-0.003174434493255103,-0.006559614243917167
1772795048336424700,3.2064248046875,0.030179449686408042,0.0009187131469603628,-0.008799739587213844
1772795048346468900,3.21646875,0.020155483800172805,0.0020030469181016087,-0.019756456278916448
1772795048356512800,3.2265126953125,0.014771452674269676,-0.020702920515905134,-0.002824592434056103
1772795048366558000,3.236557861328125,0.025545944666862486,-0.018690077147929696,-0.007571220705565065
1772795048376601900,3.246601806640625,0.03572247076630592,0.0014776245297107378,-0.00033177097132429476
1772795048386645800,3.256645751953125,0.022554946157336234,-0.0091831756720494,0.0035957046707160768
1772795048396691000,3.26669091796875,0.018964228188991544,-0.004541933728975709,-0.0031177666943520304
1772795048406734800,3.27673486328125,0.025250761112570762,0.0019358360339421779,-0.0025454101664945483
1772795048416779800,3.28677978515625,0.02435293549001217,0.0042167477620649145,-0.008364453442487865
1772795048426824000,3.296823974609375,0.011634323692321777,0.000856436449533794,0.009338120780233293
1772795048436867800,3.306867919921875,0.022857143974304196,0.00320330553635722,0.007520440366398542
1772795048446912800,3.316912841796875,0.025699089401960373,0.019011391798965632,0.005977247778698801
1772795048456957000,3.32695703125,0.023753216031193732,0.002182479155214969,-0.02127590266484767
1772795048467000800,3.337000732421875,0.01298047760426998,-0.0031544580010173374,-0.0042799058089032765
1772795048477045800,3.347045654296875,0.023158757269382477,-0.00765579143319046,-0.012792645148281007
1772795048487090000,3.35708984375,0.024657471394538878,-0.0008820229819393716,0.008470324969757349
1772795048497133800,3.3671337890625,0.02001929019987583,-0.004599305922421627,-0.004066372656077146
1772795048507178800,3.3771787109375,0.02405833645761013,-0.003576817307155579,-0.005210190662648529
1772795048517223000,3.387222900390625,0.010891396370530129,-0.009682186119194375,-0.015908512146491558
1772795048527266800,3.397266845703125,0.025705519142746925,0.0006794302065914962,0.0007086597260087728
1772795048537311700,3.407311767578125,0.0292968216329813,0.006474630241049453,-0.004220741233881563
1772795048547356000,3.41735595703125,0.01837152299284935,-0.0014648506714613175,0.0009132241210900246
1772795048557400800,3.42740087890625,0.031987960413098336,-0.00006791185376932844,-0.002582545572798699
1772795048567444700,3.43744482421875,0.030192309167981147,0.002324823935085442,0.012516239359695463
1772795048577489000,3.447489013671875,0.03318447672128677,0.004019735344132641,-0.00022737901508808136
1772795048587533800,3.457533935546875,0.018071078741550443,-0.003086895490408642,0.006046184829063713
1772795048597577700,3.46757763671875,0.014778466936945914,-0.0013632534605101682,0.006332034299429506
1772795048607622000,3.477621826171875,0.017173837640881536,-0.0038141891349398062,0.00011113222427666186
1772795048617666800,3.487666748046875,0.031389409998059274,-0.00237767635868513,-0.009156553668249398
1772795048627710700,3.497710693359375,0.00954407341480255,0.010593338155851234,-0.002788753935694694
1772795048637755000,3.5077548828125,0.03438625372648239,-0.006979399142123293,0.0025967202286235986
1772795048647799800,3.5177998046875,0.028847324299812314,-0.0010340066647680942,0.0020067915114574133
1772795048657843700,3.52784375,0.007149287232756614,-0.0009461891007085796,-0.0032572664965875445
1772795048667889000,3.537888916015625,0.019569792866706848,0.005049664055404719,-0.014465053606219589
1772795048677932800,3.547932861328125,0.023607670080661773,0.0023922642897523474,-0.014614472014270722
1772795048687977000,3.55797705078125,0.01911912648975849,0.011356022774172015,0.006063391692191362
1772795048698022000,3.56802197265625,0.024207389539480206,-0.013171177870780228,-0.01558408423140645
1772795048708065800,3.578065673828125,0.020167174237966535,-0.012737216033460572,-0.0018322569284588098
1772795048718110000,3.58810986328125,0.023755554118752478,0.0014680906580295412,-0.005892656501475722
1772795048728155000,3.59815478515625,0.03003799538910389,0.0009789497259946073,-0.02250414755186066
1772795048738198800,3.60819873046875,0.028089783930778503,0.005551938463648548,-0.0026376367609016594
1772795048748243000,3.618242919921875,0.008339958322048186,0.023731769101077223,0.014710169207397848
1772795048758288000,3.628287841796875,0.02016132901906967,-0.0018341726076207122,0.011865867425873875
1772795048768331800,3.638331787109375,0.029437106886506078,0.01191039840405574,-0.007722447478212415
1772795048778376000,3.6483759765625,0.034973698225617404,-0.002721030453237472,0.0003910086115822196
1772795048788420900,3.6584208984375,0.025547698232531547,-0.010354399992065737,-0.009126158529985695
1772795048798464800,3.66846484375,0.029287469282746312,-0.005769889779976801,-0.004539963250886648
1772795048808510000,3.678510009765625,0.020757541346549988,-0.0006881341028551105,0.00021070187492296097
1772795048818553900,3.688553955078125,0.033325931018590924,0.000764362835464999,0.0032743820281699297
1772795048828597800,3.69859765625,0.009981880310177802,-0.000043823158706072715,0.009968819899205119
1772795048838643000,3.708642822265625,0.024647534522414204,-0.0009050853387627284,-0.009259338189288974
1772795048848686800,3.718686767578125,0.02614624864757061,0.0052363092013052665,-0.007906900667026638
1772795048858730800,3.728730712890625,0.010285831692814827,-0.005502889998909086,-0.002145377998240292
1772795048868776000,3.73877587890625,0.02794306893646717,-0.0013451127323321997,-0.020409714289568365
1772795048878819800,3.74881982421875,0.02854161935150623,0.005445689052110537,0.005349361671321094
1772795048888863700,3.75886376953125,0.028542203873395917,0.001752269902761327,0.012430588636547326
1772795048898909000,3.768908935546875,0.03258417274057865,0.004662637499195989,-0.014547708654683083
1772795048908952800,3.778952880859375,0.017321137157082556,-0.0060043344317353324,0.004766154955886304
1772795048918997800,3.788997802734375,0.02779752298593521,-0.00953963013512548,-0.003226542564760893
1772795048929042000,3.7990419921875,0.01014145478606224,0.009451069360616383,-0.0020946707243099808
1772795048939085800,3.8090859375,0.015527823999524116,0.008964880720782093,-0.0024351364587433637
1772795048949130800,3.819130859375,0.024507833790779112,-0.010806712620117467,-0.0012973098015412686
1772795048959175000,3.8291748046875,0.020468203011155126,-0.002444093800045084,-0.010359280521515756
1772795048969218800,3.83921875,0.026752397847175598,0.00024971071954932994,-0.006084671942237764
1772795048979263700,3.849263671875,0.019420739784836768,-0.002764579617307754,0.002052512083016336
1772795048989308000,3.859307861328125,0.023908698853850364,-0.008225530170631828,-0.006841572990454733
1772795048999351800,3.869351806640625,0.020167758759856224,-0.008605590413225582,-0.0005843209602870047
1772795049009396700,3.879396728515625,0.010440145471692084,-0.010965632933808955,-0.006316069545317441
1772795049019441000,3.88944091796875,0.011787468427419661,0.002745074624172412,0.0004317424807697534
1772795049029484800,3.89948486328125,0.006100654962658882,0.0048908967220515475,0.0018874029154889284
1772795049039529700,3.90952978515625,0.0203168118417263,-0.001474290928308619,0.008677081321924924
1772795049049574000,3.919573974609375,0.025852818658947944,0.007638670193386496,0.000549414043687284
1772795049059619000,3.929619140625,0.028394904357194897,0.0006968882314686198,0.0037213768769986926
1772795049069662700,3.939662841796875,0.02121054581105709,-0.0020705420716956723,-0.009424319492653013
1772795049079707000,3.949706787109375,0.03452653898000717,0.00500677362010465,-0.006833828075416386
1772795049089751800,3.959751708984375,0.030935236489772793,-0.0009690824941731989,-0.009047302873805165
1772795049099795700,3.969795654296875,0.02868891886770725,-0.0039017212879203724,-0.006456921054422855
1772795049109840000,3.97983984375,0.029586744490265843,0.004199039717082633,-0.010070764170028269
1772795049119884800,3.989884765625,0.020756372302770613,-0.015727345751662503,0.00748801766782999
1772795049129928700,3.9999287109375,0.01836100159883499,0.005626259508606744,0.00009867460150271653
1772795049139972900,4.009972900390625,0.021053309422731398,-0.005785599947406445,-0.018413827764615417
1772795049150017800,4.020017822265625,0.02314940491914749,-0.007379511225479654,-0.005013663443550467
1772795049160062000,4.03006201171875,0.020606734699010847,0.009852495476580224,-0.010924915047641842
1772795049170107000,4.04010693359375,0.014921674799919127,0.00880593757420429,-0.005467380294110626
1772795049180150800,4.05015087890625,0.01626782871186733,-0.010168508331413613,0.0051252705918624995
1772795049190195000,4.06019482421875,0.022552023547887802,0.00580674890835653,-0.0015157200588844716
1772795049200239900,4.070239990234375,0.018359832555055616,0.0047592799738165915,0.01256988750938326
1772795049210283800,4.08028369140625,0.01821077947318554,-0.001455755191197386,-0.01314039914002642
1772795049220328000,4.090327880859375,0.020757541346549988,-0.006528377713792724,-0.013697612897679208
1772795049230372900,4.100372802734375,0.0034013328760862348,-0.0067116584338946265,0.0003236424637958407
1772795049240416800,4.110416748046875,0.020158990931510926,-0.006134239855140913,0.0018578662937507031
1772795049250461000,4.1204609375,0.01821720921397209,-0.0023299659010837786,0.0010503127705305815
1772795049260506000,4.130506103515625,0.019714169773459432,-0.017833348437451057,-0.0013165807575918733
1772795049270550000,4.140550048828125,0.027345103043317793,0.013229795598174677,-0.0013476700155995785
1772795049280594200,4.15059423828125,0.027045243313908576,0.006343383385572815,-0.0015229900498874484
1772795049290639000,4.16063916015625,0.023006197056174276,-0.0029809999886085277,-0.006380677480436861
1772795049300683000,4.17068310546875,0.028693595042824743,-0.0015758184989565051,-0.010334566205367445
1772795049310728200,4.180728271484375,0.030638299369812008,-0.0009360375994525384,-0.00856026827553287
1772795049320772000,4.190772216796875,0.012382511711120604,-0.012603675614553504,0.009984273196663706
1772795049330816000,4.20081591796875,0.030489830809831617,-0.004521027938264887,-0.014043120133411139
1772795049340861200,4.210861083984375,0.01597381420135498,-0.007493526101653696,-0.0028886523799039423
1772795049350905000,4.220905029296875,0.021660627666115758,-0.0002886019748111721,-0.0022639446103014053
1772795049360949000,4.230948974609375,0.025402152281999588,0.0018361088363802991,-0.011949125262536107
1772795049370994200,4.240994140625,0.025552958929538724,0.0038921725748630705,-0.005731145796831697
1772795049381038000,4.2510380859375,0.019268764093518256,0.008208832480869023,-0.001071629553195089
1772795049391082000,4.26108203125,0.02181318787932396,-0.017407276503997853,0.010480970672424882
1772795049401127200,4.271127197265625,0.017172668597102165,-0.013519004927761851,0.005747585474979132
1772795049411171000,4.281171142578125,0.021812603357434273,0.0030939519939245656,0.013887345049809664
1772795049421216000,4.291216064453125,0.019119711011648177,0.01353193404963822,0.0016594211122021077
1772795049431260200,4.30126025390625,0.011338555616140365,0.007267856128106359,0.0028857845693826675
1772795049441304000,4.311303955078125,0.007597031000256538,-0.00936131100122002,0.004482022518571466
1772795049451349000,4.321348876953125,0.030490415331721303,-0.008265993470116518,-0.010084116841945797
1772795049461393200,4.33139306640625,0.02809679819345474,0.015194954766368026,-0.004076875783782452
1772795049471437000,4.34143701171875,0.020615502527356146,0.0006838700613356195,0.020949136662203816
1772795049481483000,4.35148291015625,0.01358136610686779,-0.010282579148159129,-0.005164250895380974
1772795049491527200,4.361527099609375,0.019414310044050215,0.007021256389317568,0.003196969410404563
1772795049501572000,4.371572021484375,0.017319968113303184,0.016609827674616825,-0.0036644042590633034
1772795049511616000,4.381615966796875,0.024502573093771934,0.01523069165838533,0.008883618478383868
1772795049521660200,4.39166015625,0.017470190238952635,0.00420082639043685,-0.004072583201155066
1772795049531705000,4.401705078125,0.01776888092458248,0.007141276314592687,0.01010587201602757
1772795049541749000,4.4117490234375,0.01776888092458248,-0.012432941565482178,-0.0003587868424132466
1772795049551793200,4.421793212890625,0.027344518521428107,0.005705127722874749,0.00986649203589186
1772795049561838000,4.431838134765625,0.015073065969347953,0.015069414990826044,-0.003657645724713802
1772795049571882000,4.441882080078125,0.02494797877371311,0.0107379810657294,-0.006118629010766744
1772795049581926100,4.451926025390625,0.03617255262136459,-0.004118157642241567,0.00551527455644682
1772795049591971000,4.46197119140625,0.028840310037136076,-0.012722026455838932,-0.018125567141454666
1772795049602015000,4.472014892578125,0.026148586735129355,-0.0022059102631523273,0.004581117245182394
1772795049612059100,4.48205908203125,0.021959318351745603,0.012239975135005078,-0.011712466962449252
1772795049622104000,4.49210400390625,0.021060908207297325,-0.01964458655241178,-0.018940646384004504
1772795049632148000,4.50214794921875,0.0267436300188303,-0.004240807916020276,-0.008231072853785007
1772795049642193200,4.512193115234375,0.028541034829616545,-0.008460636976093519,-0.012933935048803686
1772795049652237000,4.522237060546875,0.023155250138044356,0.009261241310363402,-0.001329513304401189
1772795049662281000,4.532281005859375,0.010882628542184828,0.0034254112963506486,-0.012385982309840619
1772795049672326100,4.542326171875,0.02330313417613506,-0.007209821780957281,-0.01880136577747762
1772795049682370300,4.552370361328125,0.02809153749644756,0.011679875300521963,-0.00517124689174816
1772795049692414000,4.5624140625,0.02479892569184303,0.000048816710943356155,-0.004435498229414224
1772795049702459100,4.572459228515625,0.036621465432643885,-0.004971009328623767,-0.008407068741507828
1772795049712503300,4.58250341796875,0.01357435184419155,0.00468322591278702,-0.012497826920170336
1772795049722547000,4.592546875,0.013126608076691627,-0.00915209897212917,-0.0067324683264829216
1772795049732592000,4.602592041015625,0.002951251021027565,-0.009963400513638043,0.006269399125687778
1772795049742636300,4.61263623046875,0.023001520881056784,-0.0027555377943266645,-0.005624397486727685
1772795049752681000,4.622680908203125,0.02554711371064186,0.008192057159292745,0.005562785226292908
1772795049762725000,4.63272509765625,0.029139585244655607,-0.0007428588231327012,0.008648257086239754
1772795049772769000,4.64276904296875,0.020910101559758185,-0.004924814974673791,-0.007179170914366841
1772795049782814000,4.65281396484375,0.0016080197185277937,-0.0007557354293705429,-0.010842314798105507
1772795049792858000,4.662858154296875,0.02420505145192146,-0.002017113117716508,-0.0007027962408028542
1772795049802902000,4.672902099609375,0.02629997790455818,-0.00048622174751944836,-0.010109397413674741
1772795049812947000,4.682947021484375,0.02974164279103279,-0.00019639821329037657,-0.007869820059649646
1772795049822991000,4.6929912109375,0.028246435797214507,0.015503408794186543,-0.0024058738316409286
1772795049833036300,4.703036376953125,0.02300736609995365,0.013696970151929416,0.0037830074037425217
1772795049843080000,4.713079833984375,0.031982115194201466,-0.0005637416798505001,-0.004972746911272407
1772795049853124000,4.7231240234375,0.034525954458117486,-0.007561772457207553,0.013897464585024862
1772795049863169300,4.733169189453125,0.021956980264186857,-0.0032687114808533806,0.00492841457920149
1772795049873213000,4.743212890625,0.020161913540959357,-0.005306938168546185,-0.00012306012408807874
1772795049883257000,4.753257080078125,0.02689560571014881,0.0016000099420081823,-0.014940836158115416
1772795049893302300,4.76330224609375,0.010433131209015846,0.0036202602983044924,-0.003999353568162769
1772795049903346200,4.77334619140625,0.033626959791779515,0.005420938203344121,0.00628940073410049
1772795049913390000,4.78339013671875,0.019111527705192564,0.0023245031330327037,0.0023687749579548835
1772795049923435000,4.79343505859375,0.01656593487560749,-0.01187458159693633,-0.0007129157760180533
1772795049933479200,4.803479248046875,0.03302607128918171,0.00032966121262870726,-0.0024943558326922357
1772795049943524000,4.813524169921875,0.032878187251091,0.004651710821449524,-0.011971830284688621
1772795049953568000,4.823568115234375,0.03272621155977249,0.00441416432208498,-0.006881156082171947
1772795049963612200,4.833612060546875,0.005490998631715774,0.005246598841523518,-0.0036442747864872216
1772795049973657000,4.843656982421875,0.019705401945114134,-0.002669263733382104,-0.007902973410580307
1772795049983701000,4.853700927734375,0.04095511072278023,-0.0019681765341199933,-0.0011060067468322812
1772795049993745200,4.8637451171875,0.017163316246867177,-0.00016267175691318697,-0.0024284875222481787
1772795050003790000,4.8737900390625,0.02554185301363468,-0.006281819074199301,-0.006845244518574327
1772795050013834000,4.883833984375,0.028833880296349524,0.0014799454926047472,0.0025872948131524026
1772795050023878100,4.893878173828125,0.026590485283732413,-0.0006025381786341313,-0.006745309541746973
1772795050033923000,4.903923095703125,0.015517887127399444,0.005385546087910188,0.0051205761504359544
1772795050043967000,4.913967041015625,0.02255026998221874,-0.002257229458435904,0.005067384658474475
1772795050054012200,4.92401220703125,0.030479893937706944,0.0008330612821679097,-0.013871033235825598
1772795050064056000,4.93405615234375,0.021352000108361243,0.004987820041173836,-0.009073496760986744
1772795050074100000,4.944099853515625,0.020008184283971785,-0.0029523549910809377,-0.0027685513978824017
1772795050084145200,4.954145263671875,0.020756372302770613,-0.0024110728798550553,-0.0017410897799767552
1772795050094189000,4.96418896484375,0.015817746856808663,0.008532526318659073,-0.005348229160159826
1772795050104233000,4.97423291015625,0.010135025045275688,0.0054856089289009105,-0.0009500307338312267
1772795050114278100,4.984278076171875,0.02928980737030506,-0.0005310267203371041,-0.0025111791033297776
1772795050124322000,4.994322021484375,0.013426467806100845,-0.002299839049234288,0.005288808856811374
1772795050134366000,5.004365966796875,0.017615736189484595,0.020670479551027528,-0.0019452157836407423
1772795050144411100,5.0144111328125,0.024349428358674048,-0.0035284481207840143,-0.022743107406888157
1772795050154455300,5.024455322265625,0.014473931032419203,0.0009090148784976918,-0.008065634892694651
1772795050164500000,5.0345,0.013424714240431785,0.0035850862369348757,0.0009760967568494379
1772795050174544100,5.044544189453125,0.028088030365109443,-0.004119964865193469,-0.0011929726442322134
1772795050184588300,5.05458837890625,0.017163316246867177,-0.0013285725894849746,0.01876768270358443
1772795050194633000,5.064633056640625,0.0255453601449728,0.012969630841625621,0.015332776351459323
1772795050204677000,5.074677001953125,0.025696166792511937,0.000948199536348693,0.0037284642049111422
1772795050214721300,5.08472119140625,0.02868891886770725,0.005783938854926964,0.007017696742340922
1772795050224766000,5.094765869140625,0.030336101552844046,0.0016436641373555176,0.000489811077248305
1772795050234810000,5.10481005859375,0.029290976414084433,-0.00449777036026353,-0.007003723015915602
1772795050244854000,5.11485400390625,0.031236849784851074,-0.0008217441620654426,0.0091896522202529
1772795050254899000,5.12489892578125,0.012826748347282408,-0.00582938429020578,-0.00008994330577552318
1772795050264942800,5.13494287109375,0.013423545196652412,-0.005644523534370819,0.005040624515712261
1772795050274988000,5.144988037109375,0.020904840862751007,-0.012777002337865996,0.005911434267181903
1772795050285032000,5.155031982421875,0.03197685449719429,0.005474546395480865,0.00418676589904353
1772795050295075800,5.165075927734375,0.017612813580036163,-0.0014462110447173472,0.010838442340586334
1772795050305121000,5.17512109375,0.014918167668581008,-0.004770972694898955,-0.011534242585022001
1772795050315165000,5.1851650390625,0.02868541173636913,-0.0017698934660642406,-0.016865849403943867
1772795050325208800,5.195208740234375,0.03182897045910358,0.022990551962470636,0.006394833869952708
1772795050335254000,5.20525390625,0.01551671808362007,-0.009426601639640285,-0.00418170613143593
1772795050345298000,5.2152978515625,0.009229016116261481,-0.0042485790888778865,0.0030869331646710633
1772795050355341800,5.225341796875,0.04289806148409843,0.0012429686737537849,0.0000145765146240592
1772795050365387000,5.235386962890625,0.03676350425183773,0.008962457009899663,-0.0007030702354386448
1772795050375431000,5.245430908203125,0.025541268491744994,0.015170292965858242,-0.008750950275734066
1772795050385475800,5.255475830078125,0.017310615763068197,-0.00850261181265232,-0.007439137024804949
1772795050395520000,5.26552001953125,0.0342202495098114,-0.006759255868708715,-0.011279117046482861
1772795050405564000,5.27556396484375,0.015814239725470542,0.002434579336317256,-0.008041358967963605
1772795050415608800,5.28560888671875,0.006985036581754684,0.009271058309834915,0.006291665756423026
1772795050425653000,5.295653076171875,0.01865735419690609,-0.004993162936571752,0.00766509126778692
1772795050435697000,5.30569677734375,0.03841360954642296,-0.010362971457588719,-0.00047455870918929575
1772795050445741800,5.315741943359375,-0.0007943652480840683,-0.005064562513725832,-0.004970445356331766
1772795050455786000,5.325785888671875,0.035870939326286315,0.0005838996935344766,0.0008212715213187039
1772795050465831000,5.335830810546875,-0.0018389058649539945,0.0032976567308360244,-0.00016622341237962246
1772795050475874800,5.345874755859375,0.06295768369436264,-0.009896447641093983,-0.0015915435077622532
1772795050485919000,5.3559189453125,-0.0009416647642850875,0.021833344751363618,-0.0018237448284402489
1772795050495964000,5.3659638671875,0.03871522284150123,-0.0035333023924147707,0.0047949791915714735
1772795050506007800,5.3760078125,0.014622399592399596,-0.010566006049286807,0.0059008580742403866
1772795050516052000,5.386052001953125,0.027492402559518812,-0.011795044379099272,-0.00688833474162966
1772795050526097000,5.396096923828125,0.03706687111258507,0.0007662933560030068,0.008976338263135403
1772795050536140800,5.406140869140625,0.00743921009004116,-0.01547139594592736,0.0006223696820437908
1772795050546185000,5.41618505859375,0.031084289571642873,0.004798834524425911,-0.008957158638630062
1772795050556230000,5.42622998046875,0.02614800221323967,0.004571864218002883,-0.014940671761333941
1772795050566274000,5.436274169921875,0.012979893082380295,0.004841371049988084,-0.004933273417409509
1772795050576319000,5.446319091796875,0.016719664132595062,0.006472848134272498,-0.005153912164457142
1772795050586363000,5.45636279296875,0.04021335244476795,-0.008582861416542437,-0.006466236872039735
1772795050596407000,5.466406982421875,0.02405307576060295,0.004403459123335778,-0.01328581722639501
1772795050606452000,5.476451904296875,0.024353520011901855,0.0069411700405646115,0.010875815208908169
1772795050616495900,5.486495849609375,0.01492635097503662,0.009494933618517824,0.00038938291007652875
1772795050626540000,5.4965400390625,0.02614917125701904,-0.00040225723302573894,-0.024618070965912193
1772795050636585000,5.5065849609375,0.030490415331721303,-0.0036128795678028835,-0.012828081787843256
1772795050646628900,5.51662890625,0.016125789892673492,0.008043682214146248,0.003221227068826556
1772795050656673800,5.526673828125,0.029144845941662785,0.004007656747271539,0.005359152412973344
1772795050666718000,5.536718017578125,0.021064415338635442,0.006432228429516544,-0.007663922224007546
1772795050676761900,5.546761962890625,0.023160510835051534,0.00762281732041738,-0.00008117547743022442
1772795050686807000,5.55680712890625,0.030194062733650207,-0.006387638085830258,0.004129574085399508
1772795050696851000,5.566850830078125,0.013284428986907005,-0.011074661107611608,-0.007297609662264585
1772795050706894800,5.576894775390625,0.019421908828616143,-0.006955168883164878,0.005575462044775486
1772795050716940000,5.58693994140625,0.01762684210538864,0.005396890607476234,0.0024364881656132637
1772795050726984000,5.59698388671875,0.015531331130862235,-0.007948429120657964,0.005856836269423365
1772795050737027800,5.60702783203125,0.02031914992928505,-0.0016305717603419907,0.001779101969115436
1772795050747073000,5.617072998046875,0.03259235604703426,0.006332053707382874,0.0073538333615288136
1772795050757117000,5.627116943359375,0.043217210435867306,0.0023431119353801476,-0.006702201052382588
1772795050767161900,5.637161865234375,0.025559973192214966,0.012694176042755134,0.001674362953007221
1772795050777206000,5.6472060546875,0.032442718443274496,0.0031094383990683126,-0.003276336523238569
1772795050787250000,5.65725,0.03274374721646309,-0.007654536766087403,-0.005408325316943228
1772795050797294800,5.667294921875,0.01044774425625801,0.008774881423881742,-0.007220343174971639
1772795050807339000,5.677339111328125,0.022568974682688713,0.0010191458807094023,0.012575659663043916
1772795050817383000,5.6873828125,0.014039046746492385,-0.0038876208389759994,-0.0047906683426350355
1772795050827427800,5.697427734375,0.023466800305247306,-0.002386022920277901,-0.007899904670659453
1772795050837472000,5.707471923828125,0.018230653217434882,0.0034209976994257884,0.005057301655877381
1772795050847516000,5.717515869140625,0.019879004946351052,0.013486645019630667,0.0005653605314902961
1772795050857560800,5.727560791015625,0.02766074486374855,-0.002066934475657763,0.0073208444073796265
1772795050867605000,5.73760498046875,0.013895838883519172,0.0005818812663841527,0.0001090315987356007
1772795050877650000,5.74764990234375,0.02527005033493042,-0.006301908589224331,-0.003819996679574251
1772795050887693800,5.75769384765625,0.018986440020799637,-0.00977995996333193,-0.0026932759382762013
1772795050897738000,5.767738037109375,0.0016273089408874511,0.013075814037793315,0.0047102600501850245
1772795050907783000,5.777782958984375,0.022726211071014402,0.0009528871279093436,-0.0003923237858340144
1772795050917826800,5.787826904296875,0.014496142864227294,0.005213410099619068,-0.0063707588746212416
1772795050927871000,5.79787109375,0.019435352832078933,-0.0033069702651642727,-0.007167224748246371
1772795050937916000,5.807916015625,0.012550854015350341,-0.007777145940670743,-0.004393851044774055
1772795050947959800,5.817959716796875,0.02646773568689823,-0.008788769526983377,-0.018145093825832008
1772795050958005000,5.8280048828125,0.03335106545984745,0.0038791018890915437,-0.0007803184564225375
1772795050968049000,5.838048828125,0.027964111724495887,0.011916461677016923,-0.007646185637917369
1772795050978092800,5.8480927734375,0.025420856982469556,-0.00034682811820530333,0.01257880146820098
1772795050988138000,5.858137939453125,0.01644143171310425,0.001987301359698176,0.0014335399344563484
1772795050998182000,5.868181884765625,0.02781447412073612,0.003468929636024404,0.0025185769584961234
1772795051008225800,5.878225830078125,0.030360066950321195,-0.002692714249272831,-0.0014073460472747684
1772795051018271000,5.88827099609375,0.03395136944055557,-0.008757981663075043,0.009506700546480715
1772795051028315000,5.89831494140625,0.03200724963545799,-0.0018927515191084238,0.006434837086778134
1772795051038359000,5.908359130859375,0.025722470277547836,0.014535922318766823,-0.002400485270470381
1772795051048404000,5.918404052734375,0.02736965296268463,-0.001794882918492658,0.00008481047293171286
1772795051058448000,5.92844775390625,0.013901099580526351,-0.005122004347475013,0.01033803680408746
1772795051068492800,5.938492919921875,0.027368483918905256,0.008822336153156356,0.00522673993865028
1772795051078537000,5.948536865234375,0.014202128353714942,0.008104135705600491,0.004305222913250327
1772795051088580900,5.958580810546875,0.030964462584257123,0.0022154281518131026,-0.0013772249036468564
1772795051098625800,5.968625732421875,0.0077712185233831405,-0.0019898438015894496,0.011986918255966155
1772795051108670000,5.978669921875,0.014801847812533377,-0.0038967722598114048,-0.0068732467703521245
1772795051118713900,5.9887138671875,0.017345687076449394,-0.0015714345847838557,0.005836177073884755
1772795051128758800,5.9987587890625,0.013306640818715096,0.01440979345475789,-0.009934661901276558
1772795051138803000,6.008802978515625,0.015550620353221892,-0.002819146790669765,-0.0015853146963752806
1772795051148847900,6.018847900390625,0.022286066088080404,-0.016220036055875242,0.0001615655035711825
1772795051158892000,6.02889208984375,0.026324527823925015,-0.007010438167781103,-0.0015844927124679087
1772795051168936000,6.03893603515625,0.020785598397254943,-0.0013597543206822593,0.007385598472971469
1772795051178980900,6.04898095703125,0.024974866780638694,-0.01139746446283534,0.005672748406790196
1772795051189025000,6.05902490234375,0.027220015358924866,-0.003442752873507561,0.0006226802092976867
1772795051199069000,6.06906884765625,0.03290624430179596,-0.0009266920990834477,-0.004312273708544671
1772795051209113900,6.07911376953125,0.034553426986932756,0.0030882803049637002,0.009390636418759823
1772795051219158000,6.089157958984375,0.022430442994832992,0.004548975391115527,-0.002265515512879938
1772795051229202000,6.099201904296875,0.013002104914188383,-0.004442993124347413,-0.011919826102815568
1772795051239246800,6.109246826171875,0.018688333857059477,-0.007081773812853498,0.004821209611371159
1772795051249291000,6.119291015625,0.029613632497191428,0.007504386564029846,-0.019590159801300615
1772795051259335200,6.129335205078125,0.03425298273563385,-0.003997219834936549,-0.011025434546358882
1772795051269379300,6.13937939453125,0.021685177585482596,0.00477256186378654,-0.006134557232260703
1772795051279423200,6.14942333984375,0.02602642166018486,0.008717603986914036,-0.019323563020676372
1772795051289468400,6.159468505859375,0.009716507372260094,0.019010866642580365,-0.007043452238105237
1772795051299512300,6.16951220703125,0.008069324687123298,0.00921281732506468,-0.0063523647014051676
1772795051309556200,6.17955615234375,0.014353519523143768,0.004476172733097337,-0.006378101930860429
1772795051319601400,6.189601318359375,0.01869301003217697,-0.005789687034056987,-0.0037184725338593122
1772795051329645300,6.199645263671875,0.030214520999789236,-0.009269178021646802,-0.012419519253261386
1772795051339689200,6.209689208984375,0.01614800172448158,-0.0055695426189980935,0.010100666117947549
1772795051349734400,6.219734375,0.025275311031937597,0.006612786327925278,-0.002635134276561439
1772795051359778300,6.2297783203125,0.01958849756717682,-0.005192731496127089,-0.008505396283138542
1772795051369823200,6.2398232421875,0.02826981667280197,-0.005092399227077839,0.012861070741992444
1772795051379867400,6.249867431640625,0.03021685908734798,0.00600041288351058,-0.018133056328166273
1772795051389911300,6.259911376953125,0.032763036438822744,0.015410278017481323,-0.011563450413197278
1772795051399956200,6.269956298828125,0.026776947766542433,-0.0030690824141493067,0.006236757231410593
1772795051410000400,6.28000048828125,0.028573183533549307,-0.007485926175443455,0.008664514101296662
1772795051420044300,6.290044189453125,0.014954992547631264,-0.00019934593891375696,0.011124054348934442
1772795051430089200,6.300089111328125,0.026479426124691962,-0.00714143842808553,0.0007854878218844533
1772795051440133400,6.31013330078125,0.015557050094008444,-0.00023673479025601408,0.005652253608033061
1772795051450178300,6.32017822265625,0.019147183540463446,0.0010232877662871033,0.0036314153049141168
1772795051460222200,6.33022216796875,0.020944003829360007,0.0074201058140606615,-0.003150700849574059
1772795051470266400,6.340266357421875,0.013314239603281021,-0.008184225479286397,0.00951395227117464
1772795051480311300,6.350311279296875,0.030821839243173596,-0.015688852930266874,-0.004859057403728366
1772795051490355200,6.360355224609375,0.028575521621108053,0.0005242111037718132,0.004323525754921138
1772795051500399400,6.3703994140625,0.019298574709892272,0.0006853576238790993,0.0012073390963021665
1772795051510444300,6.3804443359375,0.03306698782145977,-0.010004750870756106,-0.005744443669822067
1772795051520488200,6.39048828125,0.022890461722016333,-0.004998002366826404,-0.013437518923077731
1772795051530532400,6.400532470703125,0.019448796835541723,0.012531463186646578,-0.00999853918403387
1772795051540577500,6.41057763671875,0.026930677023530004,0.010562874518928582,0.008875106378365307
1772795051550621200,6.42062109375,0.0291746565580368,-0.013539302222052355,-0.00001777311870828271
1772795051560666400,6.430666259765625,0.03755553141236305,-0.0076899676974280734,-0.007252108286414295
1772795051570710300,6.440710205078125,0.018850830942392347,-0.002691814633551985,-0.006654854779317975
1772795051580754200,6.450754150390625,0.02229366487264633,-0.007669684673691517,0.009868327799951657
1772795051590799400,6.46079931640625,0.01630874524414539,0.004426189261663239,0.006136703523574397
1772795051600843300,6.47084326171875,0.007629764226078987,-0.0015393520962214097,0.003913922040723264
1772795051610887200,6.48088720703125,0.021546645897626875,0.00003789003319689072,-0.013272546752868219
1772795051620932400,6.490932373046875,0.01974924108684063,-0.0008231814922590274,-0.000941135041322559
1772795051630976300,6.500976318359375,0.019147768062353132,0.0015400233830790966,-0.003513853339850902
1772795051641021200,6.511021240234375,0.009273439779877662,-0.0009960007546731503,-0.0023580343682318926
1772795051651065300,6.5210654296875,0.02304185289144516,-0.011562317902036011,0.003856547563988715
1772795051661109200,6.531109130859375,0.030523148557543754,-0.000779151125109638,-0.005912703775661066
1772795051671154200,6.541154296875,0.030669863551855085,0.0027077508465561547,-0.005207322852127254
1772795051681198300,6.5511982421875,0.020793781703710556,-0.0019097523154370719,-0.017929259118065238
1772795051691242200,6.5612421875,0.016153262421488762,-0.001308936307253316,-0.0076926368618384
1772795051701287200,6.571287109375,-0.020735329514741895,0.02400475908986991,-0.014109609498362987
1772795051711331300,6.581331298828125,-0.173702954480052,0.012140052716265198,-0.10618992730258033
1772795051721375200,6.591375244140625,0.39699382347166534,-0.037677116531995125,0.06634476884938777
1772795051731420200,6.601420166015625,-0.20457506260573863,-0.04556837667189538,-0.3107737760029733
1772795051741464300,6.61146435546875,0.13796236353516578,-0.10535854537920095,-0.328398572281748
1772795051751509200,6.62150927734375,0.040599136891961096,0.09280212013958952,0.08225468750167637
1772795051761553400,6.631553466796875,0.03929039238095283,0.07333469623539131,0.6881865545615553
1772795051771597300,6.641597412109375,0.011048048236966132,-0.020693791927956045,-0.012144446905236691
1772795051781642200,6.651642333984375,-0.01469020413160324,-0.0059749348073150025,-0.04448249939763918
