time,seconds_elapsed,z,y,x
1772795045202586600,0.072586669921875,0.0014787915861234069,-0.0003489311784505844,-0.000050089904107153416
1772795045212630800,0.082630859375,-0.00014786707470193505,0.0007749227806925774,-0.0007995034684427083
1772795045222675500,0.092675537109375,0.0006324496353045106,-0.0008929092437028885,0.0006486150668933988
1772795045232719600,0.1027197265625,0.001562425633892417,-0.0024955994449555874,-0.0011551439529284835
1772795045242763800,0.112763671875,0.0007945520337671041,0.0003826962783932686,-0.001237100688740611
1772795045252808000,0.122807861328125,-0.0008153288508765399,-0.0017030914314091206,-0.0012914291583001614
1772795045262851800,0.132851806640625,-0.0017513353377580643,-0.0005567120388150215,0.001044518663547933
1772795045272896000,0.14289599609375,-0.00013586180284619331,-0.0005623046308755875,-0.0027984227053821087
1772795045282941000,0.15294091796875,-0.0001302062883041799,-0.0015976382419466972,0.0014856858178973198
1772795045292985000,0.162985107421875,0.0018423970323055983,-0.0008729919791221619,-0.0018344770651310682
1772795045303029000,0.173029052734375,0.001314302789978683,-0.0023096618242561817,-0.0002710436237975955
1772795045313074000,0.183073974609375,-0.0003363243886269629,-0.0008185580372810364,0.0014432331081479788
1772795045323118000,0.1931181640625,-0.0012978410813957453,-0.00013342685997486115,0.0011975516099482775
1772795045333162000,0.203161865234375,-0.0011385841062292457,-0.0003914870321750641,0.001029506092891097
1772795045343207000,0.21320703125,0.0011238763108849525,0.00019413651898503304,-0.00007519277278333902
1772795045353251000,0.2232509765625,0.001249311026185751,0.0035081743262708187,-0.0010965151013806462
1772795045363295000,0.233294921875,-0.002140240976586938,0.0002467148005962372,-0.0006100347964093089
1772795045373340000,0.24333984375,0.000539964297786355,-0.00027899350970983505,0.00016893981955945492
1772795045383384000,0.253384033203125,0.0007252009818330407,0.00043967971578240395,-0.0026467409916222095
1772795045393428000,0.263427978515625,0.0014519777614623308,-0.001644243486225605,-0.00022459612227976322
1772795045403473000,0.273472900390625,0.0011422206880524755,-0.00048342347145080566,-0.001372092985548079
1772795045413517000,0.28351708984375,0.0001493942691013217,-0.0005774330347776413,-0.001145990565419197
1772795045423562000,0.29356201171875,-0.0007315898546949029,-0.0007575694471597672,-0.0002452008193358779
1772795045433606000,0.30360595703125,0.000012497359421104193,0.0006424542516469955,0.0017276688013225794
1772795045443650000,0.313650146484375,0.0018295615445822477,0.00038535427302122116,0.00013014685828238726
1772795045453695000,0.323695068359375,-0.000621079234406352,-0.0015281271189451218,-0.0012839916162192822
1772795045463739000,0.33373876953125,0.0027516107074916363,-0.00032640574499964714,0.0011092727072536945
1772795045473783000,0.343782958984375,-0.00004284403985366225,0.0012856055982410908,-0.0002414825139567256
1772795045483828000,0.353827880859375,-0.00039760861545801163,0.0008051199838519096,0.00014899601228535175
1772795045493871900,0.363871826171875,0.00026232271920889616,-0.0002561495639383793,0.000533556449227035
1772795045503916000,0.373916015625,0.0011863134568557143,0.0008549806661903858,0.0001188723836094141
1772795045513961000,0.3839609375,0.0004145294660702348,0.0006320741958916187,-0.0001005721278488636
1772795045524004900,0.3940048828125,0.0004260126734152436,-0.0022129295393824577,0.0028658644296228886
1772795045534049000,0.404049072265625,0.0013511948054656386,-0.0021207844838500023,-0.0005421829991973937
1772795045544094000,0.414093994140625,0.0026645921170711517,0.0017709513194859028,0.0002937429817393422
1772795045554137900,0.424137939453125,0.0003425818867981434,-0.0015918225981295109,-0.0017875174526125193
1772795045564182000,0.43418212890625,0.00021538801956921816,0.00040927110239863396,0.0032751327380537987
1772795045574227000,0.44422705078125,0.0026583056896924973,0.0004771812818944454,-0.0006881832960061729
1772795045584270800,0.454270751953125,0.0009701700182631612,-0.0008180229924619198,0.0012403102591633797
1772795045594315000,0.46431494140625,-0.0010884534567594528,0.0009947908110916615,0.00016545853577554226
1772795045604360000,0.47435986328125,0.002054504118859768,0.001057647168636322,0.0018824177095666528
1772795045614403800,0.48440380859375,-0.001453411765396595,-0.00010428996756672859,0.000615019234828651
1772795045624448000,0.494447998046875,-0.0006178729236125946,-0.000005226116627454758,0.00036279880441725254
1772795045634493000,0.504492919921875,0.00015337858349084854,0.0011497866362333298,0.00044269359204918146
1772795045644537000,0.514537109375,-0.00008979957783594728,0.00041070813313126564,-0.0009591353009454906
1772795045654581000,0.5245810546875,-0.0006993971765041351,-0.0025350144132971764,0.002024670597165823
1772795045664626000,0.5346259765625,0.0006110351532697678,-0.000876137986779213,-0.00008112157229334116
1772795045674670000,0.544670166015625,-0.00023345323279500008,-0.0008361907675862312,-0.002845749258995056
1772795045684714000,0.5547138671875,0.0003174921730533242,-0.00020991917699575424,-0.0005530622438527644
1772795045694759000,0.564759033203125,-0.0014258130686357617,0.0006353682838380337,0.0008608099306002259
1772795045704803000,0.574802978515625,0.0001728149363771081,-0.0009513953700661659,0.0014611952938139439
1772795045714847000,0.584846923828125,-0.0008045652066357434,0.0006992318667471409,0.0009706411510705948
1772795045724892000,0.594891845703125,-0.0018010400235652924,0.0009541814215481281,-0.0016959448112174869
1772795045734936000,0.60493603515625,0.00020165718160569668,-0.0022610528394579887,-0.0013223033165559173
1772795045744980000,0.61497998046875,-0.0002268336247652769,0.000018471386283636093,0.0006189483683556318
1772795045755025000,0.62502490234375,-0.00009287666762247682,0.0017196987755596638,-0.0018838904798030853
1772795045765069000,0.635069091796875,-0.0009002010338008404,0.00004528369754552841,0.0009245448745787144
1772795045775114000,0.645114013671875,0.00032405409729108214,-0.0010657869279384613,0.0010936555918306112
1772795045785158000,0.655157958984375,0.0013410053215920925,-0.0014356342144310474,0.000854438403621316
1772795045795202000,0.6652021484375,0.0018470059148967266,0.0005231210961937904,-0.00008592382073402405
1772795045805247000,0.6752470703125,0.0015464399475604296,0.0005793371237814426,-0.0004936605109833181
1772795045815291000,0.685290771484375,-0.000998210278339684,0.0008299406617879868,0.0008645517518743873
1772795045825335000,0.6953349609375,0.0027256093453615904,-0.0015535294078290462,-0.00041993928607553244
1772795045835380000,0.7053798828125,-0.0007801758474670351,0.0005724718794226646,0.0002802057424560189
1772795045845423900,0.715423828125,0.000683086458593607,0.00011567492038011551,0.0003412978257983923
1772795045855468000,0.725468017578125,0.0017076045041903853,-0.0006366684101521969,-0.0021687315311282873
1772795045865513000,0.735512939453125,-0.0013159533264115453,0.00031264033168554306,-0.002022900152951479
1772795045875556900,0.745556884765625,0.0009328199084848166,0.0004380755126476288,0.0013257584068924189
1772795045885601000,0.75560107421875,0.0004656451055780053,-0.0012949984520673752,-0.00030548463109880686
1772795045895646000,0.76564599609375,-0.0016334584215655923,-0.0012433328665792942,0.0007190334144979715
1772795045905689900,0.77568994140625,-0.0010538800852373242,0.0015177191235125065,-0.0008430913439951837
1772795045915734000,0.785734130859375,-0.0009870347566902637,0.0020631342194974422,-0.0004867604002356529
1772795045925779000,0.795779052734375,0.0012816379312425852,-0.0015490762889385223,0.0031902207992970943
1772795045935822800,0.80582275390625,0.00030319264624267817,0.0011100899428129196,0.002244798466563225
1772795045945867000,0.815866943359375,-0.0008086411980912089,0.0008500600233674049,-0.0012819464318454266
1772795045955912000,0.825911865234375,0.0002947064349427819,0.00028280680999159813,0.00028931861743330956
1772795045965956000,0.8359560546875,-0.0002694634604267776,0.0004926347173750401,0.000307353213429451
1772795045976000000,0.846,0.00016436551231890917,-0.0015662549994885921,-0.00039119389839470387
1772795045986045000,0.856044921875,-0.0022408554796129465,-0.0008368054404854774,0.0007948540151119232
1772795045996089000,0.866089111328125,-0.0005601345328614116,0.000898243859410286,0.00011894374620169401
1772795046006134000,0.876134033203125,-0.00003239384386688471,0.0008213510736823082,0.0011015086201950908
1772795046016178000,0.886177978515625,0.0016371416859328747,-0.00252331281080842,0.00005515257362276316
1772795046026222000,0.89622216796875,0.00004235433880239725,0.0011814069002866745,-0.0011989183258265257
1772795046036267000,0.90626708984375,-0.0011139902053400874,-0.0011094440706074238,0.0014679711312055588
1772795046046311000,0.916310791015625,-0.0012423162115737796,0.00037291552871465683,0.001108013791963458
1772795046056355000,0.92635498046875,0.0005723618087358773,-0.0004846220836043358,-0.0018840477569028735
1772795046066400000,0.93639990234375,0.0027914801612496376,0.002293025143444538,-0.0016579882940277457
1772795046076444000,0.94644384765625,-0.0015611904673278332,-0.0027536654379218817,0.0006927839713171124
1772795046086488000,0.956488037109375,-0.0011694015702232718,0.0010941601358354092,-0.0014441998209804296
1772795046096533000,0.966532958984375,0.002135581336915493,-0.0008563394658267498,0.0017433376051485538
1772795046106577000,0.976576904296875,-0.000564117101021111,0.0014876220375299454,0.0009933621622622013
1772795046116621000,0.98662109375,-0.000927105953451246,0.0008679046295583248,-0.002935333177447319
1772795046126666000,0.996666015625,0.001704634167253971,-0.0007266802713274956,0.00013845623470842838
1772795046136710000,1.0067099609375,0.001752837561070919,0.0011511142365634441,0.00005936028901487589
1772795046146754000,1.016754150390625,-0.0010572948958724737,-0.00036748452112078667,-0.0025664670392870903
1772795046156799000,1.026799072265625,-0.0018993865232914686,0.00009483983740210533,-0.00256486888974905
1772795046166843000,1.0368427734375,-0.0014306900557130575,0.00040914304554462433,0.0012951988028362393
1772795046176887000,1.046886962890625,-0.001834159018471837,-0.00045611755922436714,-0.00012240197975188494
1772795046186932000,1.056931884765625,0.00022115639876574278,0.00012965500354766846,0.0020514135248959064
1772795046196975900,1.066975830078125,0.0003231554292142391,-0.0005398634821176529,-0.00045621913159266114
1772795046207020000,1.07702001953125,0.0008932366035878658,-0.002400217577815056,0.002031122799962759
1772795046217065000,1.08706494140625,0.002670363988727331,-0.0008670357055962086,0.00180635170545429
1772795046227108900,1.09710888671875,-0.0003808187902905047,0.0002582194283604622,-0.00000908703077584505
1772795046237154000,1.107154052734375,0.0011702061165124178,-0.00010849814862012863,-0.0015830151969566941
1772795046247198000,1.117197998046875,-0.0031114963348954916,-0.002447855193167925,0.0006544144125655293
1772795046257243000,1.127242919921875,0.0012235972099006176,-0.00022597983479499817,-0.0018369726603850722
1772795046267288000,1.1372880859375,0.0004125548875890672,0.001701271627098322,-0.000217671156860888
1772795046277331700,1.147331787109375,-0.0013685672311112285,0.0004810113459825516,0.0020537390373647213
1772795046287376000,1.1573759765625,-0.0012632741127163172,0.0008453479968011379,0.0019263527356088161
1772795046297421000,1.167421142578125,0.0025202790275216103,0.0008698492310941219,-0.0009392085485160351
1772795046307465000,1.17746484375,-0.00006710318848490715,0.000890790019184351,-0.0007932818261906505
1772795046317508900,1.1875087890625,-0.0008308977703563869,0.0011073052883148193,-0.0005514667718671262
1772795046327554000,1.197553955078125,-0.0013039812911301851,0.0028171949088573456,0.0030646491795778275
1772795046337598000,1.207597900390625,-0.0020914780907332897,0.0019266344606876373,0.0005751260323449969
1772795046347641900,1.217641845703125,0.0004638097598217428,-0.000037455931305885315,-0.0014210877707228065
1772795046357687000,1.22768701171875,-0.001037946785800159,-0.0012081814929842949,0.0012604491785168648
1772795046367731000,1.23773095703125,0.0013261502608656883,0.0017414139583706856,0.00341520132496953
1772795046377774800,1.24777490234375,0.0005330608109943569,0.0005938583053648472,-0.0004812695551663637
1772795046387820000,1.257820068359375,0.0005136918043717742,0.00004628254100680351,-0.0017333164578303695
1772795046397864000,1.267864013671875,-0.0010748838540166616,-0.00008181575685739517,0.0005524746375158429
1772795046407907800,1.277907958984375,-0.002305604051798582,-0.0011481856927275658,-0.001722731743939221
1772795046417953000,1.287953125,0.0003567581297829747,0.0010627703741192818,0.0034430017694830894
1772795046427997000,1.297996826171875,-0.0016218650853261352,-0.002186044119298458,-0.00034935399889945984
1772795046438041900,1.308041748046875,-0.0008910936885513365,0.0012092199176549911,-0.0005730594857595861
1772795046448086000,1.3180859375,-0.0007867647218517959,-0.0017613880336284637,0.0020682206377387047
1772795046458130000,1.3281298828125,-0.00022829987574368715,0.002575836144387722,0.00004608253948390484
1772795046468174800,1.3381748046875,-0.0024834712967276573,-0.0010745953768491745,-0.001802493236027658
1772795046478219000,1.348218994140625,-0.0011990286875516176,0.003398716449737549,0.0019243343267589808
1772795046488263000,1.358262939453125,-0.000913303520064801,-0.00041779596358537674,-0.0007900776690803468
1772795046498307800,1.368307861328125,0.00021108315559104085,0.002732456661760807,0.000872533768415451
1772795046508351700,1.378351806640625,-0.00013967201812192798,0.0016012964770197868,-0.00012722599785774946
1772795046518396000,1.38839599609375,0.0009799208492040634,-0.0007529379799962044,0.0011135407257825136
1772795046528440800,1.39844091796875,-0.002821577712893486,0.000133538618683815,-0.0013693239307031035
1772795046538484700,1.408484619140625,-0.000254556885920465,0.002814809326082468,0.0010930347489193082
1772795046548529000,1.41852880859375,0.00016318383859470487,0.001862548291683197,0.0004369366215541959
1772795046558574000,1.428573974609375,-0.001433913828805089,0.00046758493408560753,-0.0008400491205975413
1772795046568617700,1.43861767578125,0.0015344517305493355,-0.00021399185061454773,-0.0007662427960895002
1772795046578662000,1.448661865234375,-0.001227512606419623,0.0010190517641603947,-0.00011696410365402699
1772795046588707000,1.45870703125,-0.0012668712297454476,0.000025371089577674866,-0.0010042949579656124
1772795046598750700,1.468750732421875,-0.00017364363884553313,0.0006964877247810364,-0.001755572622641921
1772795046608796000,1.4787958984375,0.002091056667268276,0.00008279876783490181,-0.0022325641475617886
1772795046618840000,1.488840087890625,0.0016218078089877963,0.0017600581049919128,-0.0002035018987953663
1772795046628883700,1.4988837890625,-0.00020843156380578876,0.0006970511749386787,-0.00042641523759812117
1772795046638929000,1.508928955078125,-0.001884358818642795,-0.0015479936264455318,0.0014439227525144815
1772795046648973000,1.51897314453125,-0.00006999686593189836,-0.0000870884396135807,-0.00018249358981847763
1772795046659017000,1.529016845703125,-0.000982129480689764,0.0003683120012283325,-0.001192364259622991
1772795046669062000,1.539061767578125,-0.0005937379319220781,0.0034079658798873425,-0.0021104998886585236
1772795046679106000,1.54910595703125,-0.0016659265384078026,-0.00007731281220912933,-0.0005514853401109576
1772795046689150000,1.55914990234375,0.0015707495622336864,-0.0016831941902637482,-0.0005459061358124018
1772795046699195000,1.56919482421875,0.0010535635519772768,0.0016998196952044964,-0.00027000263798981905
1772795046709239000,1.579239013671875,0.00018412445206195116,0.0015643411315977573,-0.0012554246932268143
1772795046719283000,1.589282958984375,0.0005058343522250652,0.001965146977454424,0.002083113882690668
1772795046729327900,1.599327880859375,-0.0007912013679742813,-0.0008526756428182125,0.0009562572231516242
1772795046739372000,1.6093720703125,-0.0000420541618950665,0.00047171441838145256,0.0005810179281979799
1772795046749416000,1.619416015625,-0.00034410058287903666,-0.0004646778106689453,0.001619225600734353
1772795046759460900,1.6294609375,0.0012697750935330987,0.0005718246102333069,0.0013606324791908264
1772795046769505000,1.639505126953125,-0.000574721023440361,-0.000501521397382021,0.0005500988336279988
1772795046779550000,1.649550048828125,-0.002446657046675682,0.00007931375876069069,0.00232136738486588
1772795046789593900,1.65959375,0.0016401874599978328,-0.0005083894357085228,-0.0004119502264074981
1772795046799638000,1.669637939453125,0.0014721419429406524,-0.0023931083269417286,-0.0021978660952299833
1772795046809683000,1.679682861328125,-0.001954349223524332,-0.001218749675899744,-0.0007599960081279278
1772795046819726800,1.689726806640625,-0.000886155292391777,-0.0026605851016938686,-0.0015930328518152237
1772795046829770800,1.699770751953125,-0.0007535637123510242,-0.0009767739102244377,-0.0026751828845590353
1772795046839816000,1.70981591796875,0.0006406011525541544,0.0010983613319694996,0.0007131570018827915
1772795046849859800,1.71985986328125,-0.0008548753103241324,0.001434587873518467,-0.00029204681050032377
1772795046859903700,1.72990380859375,0.0012980240862816572,0.0009277882054448128,0.00015190220437943935
1772795046869949000,1.739948974609375,0.00029867119155824184,0.0006861872971057892,-0.0007446692907251418
1772795046879993000,1.7499931640625,-0.00358634814620018,0.001525349449366331,-0.002901829779148102
1772795046890036700,1.76003662109375,-0.0003066176432184875,0.00035037146881222725,0.0011993192601948977
1772795046900082000,1.77008203125,-0.0014219494769349694,-0.0005553695373237133,0.002418514573946595
1772795046910126000,1.7801259765625,-0.0010238877730444074,0.0009194659069180489,-0.00007177959196269512
1772795046920169700,1.790169677734375,-0.001109375269152224,-0.0015514148399233818,0.00458608940243721
1772795046930215000,1.80021484375,-0.0009007200133055449,0.0013804379850625992,0.002237723208963871
1772795046940259000,1.810259033203125,-0.0010149696609005332,-0.0015929811634123325,-0.001682183356024325
1772795046950302700,1.820302734375,-0.0004553086473606527,0.001605586614459753,-0.0018466373439878225
1772795046960348000,1.830347900390625,0.00028158805798739195,-0.0007846006192266941,0.0010902966605499387
1772795046970392000,1.84039208984375,0.0016248920001089573,-0.002762419171631336,-0.0007190084434114397
1772795046980436700,1.850436767578125,-0.000693922396749258,0.0007881070487201214,-0.0011613594833761454
1772795046990481000,1.86048095703125,-0.0007716624531894922,-0.00014166394248604774,0.00019248179160058498
1772795047000525000,1.870525146484375,0.000008377362973988056,-0.0015398235991597176,-0.000795284635387361
1772795047010569700,1.88056982421875,-0.00009506259812042117,-0.000015095807611942291,0.0017848609713837504
1772795047020614000,1.89061376953125,0.0001398281892761588,-0.001141879241913557,0.0019031051779165864
1772795047030658000,1.900657958984375,0.0008974289521574974,0.0013005253858864307,0.00441543897613883
1772795047040702700,1.91070263671875,0.0013565579429268837,-0.0012947251088917255,0.0014436176279559731
1772795047050747000,1.920746826171875,0.0011990686180070043,-0.000405825674533844,0.00029216601978987455
1772795047060791000,1.930791015625,0.000041126273572444916,-0.0008806674741208553,-0.0014037350192666054
1772795047070835700,1.940835693359375,-0.001585823018103838,0.0012934161350131035,-0.0007748317439109087
1772795047080879900,1.9508798828125,0.0004144771955907345,0.0002590441145002842,-0.0012640544446185231
1772795047090924000,1.960924072265625,-0.00014777021715417504,-0.000005403067916631699,-0.0010691559873521328
1772795047100969000,1.970968994140625,0.0002543671289458871,-0.0008650715462863445,0.00008132960647344589
1772795047111012900,1.981012939453125,0.00010306830517947674,-0.002345610409975052,-0.0011008428409695625
1772795047121058000,1.99105810546875,0.0011118737747892737,0.0032499576918780804,-0.0006097559235058725
1772795047131102000,2.00110205078125,-0.00045040756231173873,0.0007310463115572929,-0.001781376893632114
1772795047141145900,2.011145751953125,-0.0004991433816030622,0.0010823174379765987,-0.0013880280312150717
1772795047151191000,2.02119091796875,0.00031907076481729746,0.002419212367385626,0.00022637296933680773
1772795047161235000,2.03123486328125,-0.0005408638971857727,0.00007563037797808647,0.000991765409708023
1772795047171278800,2.04127880859375,-0.0005106060998514295,0.0028186598792672157,-0.0027472502551972866
1772795047181324000,2.051323974609375,-0.00013243721332401037,0.002169380895793438,0.002341251587495208
1772795047191368000,2.061367919921875,-0.0006142418133094907,-0.00019064918160438538,0.002135593444108963
1772795047201411800,2.071411865234375,0.0021301456727087498,-0.0013057147152721882,-0.0010961525840684772
1772795047211457000,2.08145703125,-0.0016703964211046696,0.0010035289451479912,-0.0002471847692504525
1772795047221501000,2.0915009765625,-0.00017423252575099468,0.000794737134128809,-0.0023121999111026525
1772795047231545000,2.101545166015625,-0.0007800395833328366,0.0009862142615020275,-0.0019511755090206861
1772795047241590000,2.111590087890625,-0.0024775383062660694,0.0017550690099596977,-0.0010267922189086676
1772795047251634000,2.121634033203125,-0.0004240788985043764,-0.0021883402951061726,0.0004279001150280237
1772795047261678300,2.13167822265625,-3.6996789276599884e-7,-0.0005976338870823383,-0.0021255386527627707
1772795047271722500,2.141722412109375,-0.0024188163224607706,0.001066482625901699,0.00021433003712445498
1772795047281766400,2.151766357421875,0.0004233091603964567,0.0012467787601053715,0.0030159757006913424
1772795047291811600,2.1618115234375,-0.0014972081407904625,-0.0016710157506167889,0.0020800773054361343
1772795047301855500,2.17185546875,-0.00027881196001544595,-0.0017780750058591366,-0.00025444990023970604
1772795047311899400,2.1818994140625,0.0014114994555711746,0.0012437393888831139,-0.0007376361172646284
1772795047321944600,2.191944580078125,-0.0010348804062232375,0.0006650346331298351,0.0018357764929533005
1772795047331988500,2.201988525390625,0.00021900399588048458,0.0010603428818285465,-0.0005678351735696197
1772795047342032400,2.212032470703125,0.00016414280980825424,0.0008121361024677753,-0.0011747695971280336
1772795047352077600,2.22207763671875,-0.001682479865849018,0.0009473715908825397,-0.0022028591483831406
1772795047362121200,2.232121337890625,0.0012107784859836102,0.0009020981378853321,-0.0006792647764086723
1772795047372165400,2.242165283203125,-0.0019851643592119217,0.001967727206647396,-0.003937317989766598
1772795047382210600,2.25221044921875,0.0016319410642609,-0.001207027118653059,-0.0006744129932485521
1772795047392254500,2.26225439453125,-0.0017994061345234513,0.001806718297302723,-0.0007848055101931095
1772795047402298400,2.27229833984375,-0.000010560848750174046,-0.00026601972058415413,0.0009566355729475617
1772795047412343600,2.282343505859375,-0.0014313553692772985,-0.0008485266007483006,-0.0008245562785305083
1772795047422387500,2.292387451171875,-0.00037248246371746063,0.0019017192535102367,0.0005429768934845924
1772795047432432400,2.302432373046875,0.0015525422058999538,0.00007248576730489731,-0.0028668753802776337
1772795047442476500,2.3124765625,0.0015906253829598427,0.0013603903353214264,-0.0025622097309678793
1772795047452520400,2.3225205078125,-0.0022179237566888332,-0.001029202714562416,-0.0014321345370262861
1772795047462565400,2.3325654296875,0.0010694821830838919,-0.0013586357235908508,-0.000640643120277673
1772795047472609500,2.342609619140625,0.0010784121695905924,-0.0003241416998207569,0.00044322689063847065
1772795047482653400,2.3526533203125,0.00135697890073061,-0.001076218206435442,0.0005612049717456102
1772795047492698400,2.362698486328125,0.0009226006222888827,-0.0004375958815217018,0.00022164545953273773
1772795047502742500,2.372742431640625,0.0004363075131550431,-0.00041655683889985085,-0.0004947448032908142
1772795047512786400,2.382786376953125,0.0004604326095432043,-0.000721990130841732,0.002415388822555542
1772795047522831400,2.392831298828125,0.0022966822143644094,-0.00037604523822665215,-0.0014347429387271404
1772795047532875500,2.40287548828125,-0.0002395415212959051,-0.0004416797310113907,0.00088306306861341
1772795047542919400,2.41291943359375,-0.00028987525729462504,-0.0007455460727214813,-0.0026347064413130283
1772795047552964400,2.42296435546875,0.0013939159689471126,0.0010009673424065113,0.001032347441650927
1772795047563008500,2.433008544921875,-0.0015944171464070678,0.00006939377635717392,0.0004909266717731953
1772795047573053400,2.443053466796875,0.000029260641895234585,0.0019385269843041897,0.0017310419352725148
1772795047583097300,2.453097412109375,0.0008897280786186457,-0.0004223659634590149,0.0011438148794695735
1772795047593141500,2.4631416015625,-0.000912784191314131,0.00034467224031686783,-0.0033396005164831877
1772795047603186400,2.4731865234375,-0.0017772463615983725,-0.0006212559528648853,0.0007835053838789463
1772795047613230600,2.483230712890625,-0.00018395425286144018,0.0019606761634349823,-0.00172367412596941
1772795047623274500,2.4932744140625,-0.0005541336140595376,-0.0010388423688709736,0.0017112710047513247
1772795047633319400,2.5033193359375,-0.0015118129085749388,-0.000014293938875198364,0.0009167997632175684
1772795047643363600,2.513363525390625,-0.0005770433344878256,0.0006965035572648048,-0.001071782666258514
1772795047653407500,2.523407470703125,0.00006026227492839098,0.00023583974689245224,-0.0028436570428311825
1772795047663452400,2.533452392578125,0.0007902347715571523,-0.00022195791825652122,0.0017257947474718094
1772795047673496600,2.54349658203125,0.0013339670840650797,0.0010851584374904633,-0.002500594826415181
1772795047683540200,2.553540283203125,-0.0009331819601356983,-0.00013643363490700722,-0.0017333382274955511
1772795047693585400,2.56358544921875,0.001669227727688849,-0.0005205003544688225,-0.00042211858090013266
1772795047703629600,2.573629638671875,-0.0023771789856255054,0.0016318666748702526,-0.0029947322327643633
1772795047713674500,2.583674560546875,-0.0015966371865943074,-0.000939792487770319,-0.0013169556623324752
1772795047723718400,2.593718505859375,0.0013133988250046968,0.002273577731102705,-0.0035694572143256664
1772795047733762600,2.603762451171875,-0.0015221855137497187,0.0011070491746068,0.0003050534287467599
1772795047743807500,2.613807373046875,-0.0002768913982436061,0.0008615055121481419,0.0017665962222963572
1772795047753851400,2.623851318359375,0.0007141653914004564,-0.00079003581777215,-0.00011523137800395489
1772795047763895600,2.6338955078125,0.003459351835772395,-0.00281323934905231,0.0004757241113111377
1772795047773940500,2.6439404296875,0.0012634368613362312,-0.00018379464745521545,0.0012607374228537083
1772795047783984400,2.653984375,0.000720950891263783,-0.000596584752202034,0.001355013344436884
1772795047794028500,2.664028564453125,0.0016169333830475807,0.0002562031149864197,-0.001416208571754396
1772795047804073500,2.674073486328125,0.0001034588785842061,-0.0003382144495844841,0.00013588170986622572
1772795047814117400,2.684117431640625,0.00019419018644839525,-0.0013482356444001198,0.0009691473096609116
1772795047824161500,2.69416162109375,0.00218889769166708,-0.0009895074181258678,0.001210695831105113
1772795047834206500,2.70420654296875,-0.0012287063291296363,0.000872995238751173,-0.0008246373618021607
1772795047844250400,2.71425048828125,-0.0005783624364994466,0.0009430362842977047,0.000640900107100606
1772795047854295600,2.724295654296875,-0.0011582998558878899,-0.00043750135228037834,0.0015761317918077111
1772795047864339500,2.73433935546875,-0.0000703985569998622,-0.0007288511842489243,-0.00047024129889905453
1772795047874383400,2.74438330078125,0.0009397587273269892,0.00007472233846783638,0.0005440302193164825
1772795047884428500,2.754428466796875,-0.0010565469274297357,0.0012198816984891891,0.0018308695871382952
1772795047894472400,2.764472412109375,0.0013519561616703868,-0.000384774524718523,-0.0014448147267103195
1772795047904516400,2.774516357421875,0.0022129560820758343,0.0012754406780004501,-0.0006940696621313691
1772795047914561500,2.7845615234375,-0.0005649665836244822,-0.0016301143914461136,0.002272634766995907
1772795047924605400,2.79460546875,0.0015714212786406279,-0.002155822701752186,0.0006941793253645301
1772795047934649300,2.8046494140625,-0.00013106036931276321,-0.00031955400481820107,0.0016382124740630388
1772795047944694500,2.814694580078125,-0.00209700595587492,0.0003156098537147045,-0.00013944751117378473
1772795047954738400,2.824738525390625,-0.000522744667250663,-0.0007803542539477348,-0.0019019837491214275
1772795047964782600,2.834782470703125,-0.0006955838180147111,-0.0005071135237812996,-0.00029663031455129385
1772795047974827500,2.84482763671875,-0.0013405929785221815,-0.0010298755951225758,-0.0006748948362655938
1772795047984871400,2.854871337890625,-0.0016018491005524993,-0.0010511805303394794,-0.00018194376025348902
1772795047994916400,2.864916259765625,0.002288638614118099,-0.0006738868542015553,0.0005959311965852976
1772795048004960500,2.87496044921875,0.0022204616107046604,-0.0013940054923295975,0.0020529464818537235
1772795048015004400,2.88500439453125,-0.002016348298639059,-0.0018336791545152664,0.001658390974625945
1772795048025049300,2.89504931640625,-0.0008488185703754425,-0.0010357960127294064,-0.0011688206577673554
1772795048035093500,2.905093505859375,0.000055072945542633533,-0.0003115101717412472,0.00010881409980356693
1772795048045137400,2.915137451171875,-0.0009049966465681791,-0.00021537020802497864,0.0024334872141480446
1772795048055182300,2.925182373046875,0.0013998227659612894,-0.002397355157881975,-0.00006703031249344349
1772795048065226500,2.9352265625,-0.0023006396368145943,0.0002570175565779209,0.0019103667000308633
1772795048075270400,2.9452705078125,0.0024865716695785522,0.0002034362405538559,0.002217731438577175
1772795048085315600,2.955315673828125,-0.0020141706336289644,-0.0007070982828736305,0.000917576253414154
1772795048095359500,2.965359375,-0.0013284030137583613,0.0017067627049982548,-0.001853597117587924
1772795048105403400,2.9754033203125,-0.00008550577331334352,-0.0016781147569417953,-0.0002873920602723956
1772795048115448600,2.985448486328125,0.00023086974397301674,0.0015090364031493664,-0.0021076102275401354
1772795048125492500,2.995492431640625,-0.0024895493406802416,0.0004288586787879467,0.00033424212597310543
1772795048135537400,3.005537353515625,0.0007620082469657063,0.0023977551609277725,0.0011563303414732218
1772795048145581600,3.01558154296875,-0.00037809094646945596,0.0005479240790009499,-0.00166315829847008
1772795048155625200,3.025625244140625,-0.001437954604625702,-0.00016851816326379776,-0.00100427505094558
1772795048165670400,3.03567041015625,-0.00034419435542076826,-0.0007054111920297146,-0.0010889635886996984
1772795048175714600,3.045714599609375,-0.00040682469261810184,0.00009361421689391136,-0.0007135221385397017
1772795048185758500,3.055758544921875,0.0004959868965670466,0.0021514385007321835,0.0009658671915531158
1772795048195803400,3.065803466796875,0.0019578393548727036,-0.001556294970214367,0.00018919736612588167
1772795048205847600,3.07584765625,0.0007772600511088967,0.0023404420353472233,0.0027269236743450165
1772795048215891500,3.085891357421875,0.0014255862915888429,0.0010333475656807423,-0.0008823131211102009
1772795048225936400,3.095936279296875,0.0011323721846565604,-0.00021753879263997078,0.0006572601851075888
1772795048235980500,3.10598046875,-0.0018231128342449665,0.0009624185040593147,0.001623424468562007
1772795048246024400,3.1160244140625,0.0005835858173668385,0.0009770658798515797,-0.0010581123642623425
1772795048256070000,3.12606982421875,-0.0007382084149867296,0.0024459809064865112,0.0008959246333688498
1772795048266113800,3.13611376953125,-0.0015225093811750412,-0.000490154605358839,0.0006703550461679697
1772795048276158700,3.14615869140625,0.002361722057685256,-0.0005157818086445332,0.0010285555617883801
1772795048286203000,3.156202880859375,0.0005321304779499769,0.001722071785479784,-0.0028173155151307583
1772795048296246800,3.166246826171875,-0.0009530936367809772,0.0011717695742845535,0.0012647679541260004
1772795048306291700,3.176291748046875,-0.0014455121709033847,0.00018666591495275497,0.0006969820242375135
1772795048316335900,3.1863359375,0.001136905630119145,-0.0002615656703710556,0.00012540724128484726
1772795048326379800,3.1963798828125,-0.001765939872711897,0.0005054245702922344,0.002079368568956852
1772795048336424700,3.2064248046875,0.0012766807340085506,0.00012760842218995094,-0.002374056726694107
1772795048346468900,3.21646875,0.00017546373419463634,-0.002549667377024889,-0.0007628444000147283
1772795048356512800,3.2265126953125,-0.0022521077189594507,0.000010118819773197174,0.0010934226447716355
1772795048366558000,3.236557861328125,0.0007543348474428058,-0.0006663245148956776,0.00009100872557610273
1772795048376601900,3.246601806640625,0.0013122007949277759,-0.0004978771321475506,-0.0021476128604263067
1772795048386645800,3.256645751953125,-0.0008654660196043551,0.0002613901160657406,-0.0002517085522413254
1772795048396691000,3.26669091796875,-0.0017232291866093874,-0.0004096301272511482,-0.0007549827569164336
1772795048406734800,3.27673486328125,-0.0003234717878513038,-0.0016322876326739788,-0.0010069177951663733
1772795048416779800,3.28677978515625,0.0007706745527684689,0.0016453322023153305,-0.0006726027349941432
1772795048426824000,3.296823974609375,0.0016348704230040312,-0.00003725243732333183,0.0009300876408815384
1772795048436867800,3.306867919921875,0.0007499802159145474,0.0013569574803113937,0.0016958419000729918
1772795048446912800,3.316912841796875,-0.00040263577830046415,-0.000475296750664711,0.0011957002570852637
1772795048456957000,3.32695703125,-0.00002596981357783079,0.0008616335690021515,0.0006335549987852573
1772795048467000800,3.337000732421875,0.0021823232527822256,-0.002524842042475939,0.0015763139817863703
1772795048477045800,3.347045654296875,-0.00028698029927909374,-0.0008458583615720272,0.0008715653093531728
1772795048487090000,3.35708984375,-0.0007953777676448226,0.0016623064875602722,-0.0018397991079837084
1772795048497133800,3.3671337890625,-0.0014775043819099665,-0.000932756345719099,0.001085531199350953
1772795048507178800,3.3771787109375,-0.000878026825375855,-0.0011442112736403942,0.0006362558342516422
1772795048517223000,3.387222900390625,-0.00037393299862742424,-0.0012012929655611515,0.000697328825481236
1772795048527266800,3.397266845703125,0.00015710131265223026,0.0009548021480441093,0.000494662206619978
1772795048537311700,3.407311767578125,0.0008874934865161777,-0.0006873304955661297,0.00047983648255467415
1772795048547356000,3.41735595703125,-0.0008653990807943046,0.003433645237237215,0.002648448571562767
1772795048557400800,3.42740087890625,-0.0014450489543378353,0.001238133292645216,-0.0018564597703516483
1772795048567444700,3.43744482421875,-0.001485529006458819,0.0005169492214918137,-0.0008852048777043819
1772795048577489000,3.447489013671875,-0.0002793041057884693,-0.0015458166599273682,-0.0016828954685479403
1772795048587533800,3.457533935546875,-0.001057746121659875,0.0029711704701185226,-0.0018810346955433488
1772795048597577700,3.46757763671875,0.000896086567081511,-0.003420543856918812,0.0022813091054558754
1772795048607622000,3.477621826171875,-0.0017399101052433252,-0.0011235675774514675,-0.0018535146955400705
1772795048617666800,3.487666748046875,0.0018869691994041204,0.0013210969045758247,-0.0021234466694295406
1772795048627710700,3.497710693359375,0.00010238506365567446,-0.002174302004277706,0.00008458015508949757
1772795048637755000,3.5077548828125,0.00033929524943232536,0.002040399704128504,0.0007559286896139383
1772795048647799800,3.5177998046875,0.0007174641359597445,0.0013226778246462345,0.00008747540414333344
1772795048657843700,3.52784375,-0.0009522591717541218,-0.00129307946190238,-0.0007381858304142952
1772795048667889000,3.537888916015625,-0.0013735712273046374,-0.000480548944324255,-0.0011203493922948837
1772795048677932800,3.547932861328125,-0.0005951922503300011,0.0014857049100100994,0.0004490537103265524
1772795048687977000,3.55797705078125,-0.00016322755254805088,-0.0009087431244552135,-0.001087057520635426
1772795048698022000,3.56802197265625,0.0013319271383807063,0.00003627222031354904,-0.0015521954046562314
1772795048708065800,3.578065673828125,-0.0004971320158801973,0.0020762537606060505,-0.0009726915741339326
1772795048718110000,3.58810986328125,-0.0016480321064591408,0.0010440670885145664,-0.0004447390092536807
1772795048728155000,3.59815478515625,0.000945354113355279,0.0010757590644061565,-0.00036164838820695877
1772795048738198800,3.60819873046875,0.002783740172162652,-0.0006722360849380493,-0.00011419376824051142
1772795048748243000,3.618242919921875,0.002301974454894662,0.00024575553834438324,0.0028725415468215942
1772795048758288000,3.628287841796875,0.00024975009728223085,0.0018109180964529514,-0.003461329033598304
1772795048768331800,3.638331787109375,-0.0014442866668105125,0.001113169826567173,-0.0000775166554376483
1772795048778376000,3.6483759765625,-0.0014253836125135422,0.0002786698751151562,0.003284775884822011
1772795048788420900,3.6584208984375,0.0015709389699622989,0.00048320088535547256,0.0005078978138044477
1772795048798464800,3.66846484375,0.001204645843245089,0.0031641144305467606,0.000829011551104486
1772795048808510000,3.678510009765625,-0.0012372065102681518,-0.00004179868847131729,-0.0011925940634682775
1772795048818553900,3.688553955078125,-0.0020643037278205156,0.0020723864436149597,-0.0006481006275862455
1772795048828597800,3.69859765625,-0.00011513626668602228,-0.001548714004456997,-0.00038790982216596603
1772795048838643000,3.708642822265625,0.00027572852559387684,-0.0025307503528892994,-0.0005531621281988919
1772795048848686800,3.718686767578125,0.00032286648638546467,-0.0014316635206341743,-0.00026793754659593105
1772795048858730800,3.728730712890625,-0.0008186175837181509,0.0009658532217144966,0.00015503319445997477
1772795048868776000,3.73877587890625,0.0020394870080053806,-0.002108233515173197,0.0011718281311914325
1772795048878819800,3.74881982421875,-0.001693881582468748,-0.0009293551556766033,0.0009792138589546084
1772795048888863700,3.75886376953125,-0.0003798779216594994,-0.0017022048123180866,0.0017587213078513741
1772795048898909000,3.768908935546875,0.0018296418711543083,-0.0022574537433683872,0.0023815790191292763
1772795048908952800,3.778952880859375,-0.0007160737877711654,0.0018874905072152615,0.0003754196222871542
1772795048918997800,3.788997802734375,-0.00138315639924258,-0.002440759912133217,0.0014899756060913205
1772795048929042000,3.7990419921875,-0.0006252207094803452,0.0006517027504742146,0.0003594637382775545
1772795048939085800,3.8090859375,-0.0018148076487705112,-0.0001070578582584858,-0.0015561310574412346
1772795048949130800,3.819130859375,-0.0022499682381749153,-0.0021102875471115112,0.0008985045133158565
1772795048959175000,3.8291748046875,-0.0013904920779168606,-0.0012987484224140644,-0.0008268632809631526
1772795048969218800,3.83921875,-0.0002525233430787921,-0.0005333558656275272,-0.00010621186811476946
1772795048979263700,3.849263671875,-0.0015017380937933922,-0.0008089062757790089,0.0018093469552695751
1772795048989308000,3.859307861328125,0.0017901953542605042,0.00008325278759002686,-0.0006881654844619334
1772795048999351800,3.869351806640625,0.0023691891692578793,-0.0002616140991449356,-0.001274947077035904
1772795049009396700,3.879396728515625,0.0025367019698023796,-0.00004403386265039444,0.0044804103672504425
1772795049019441000,3.88944091796875,0.000124808750115335,-0.0017248718068003654,-0.00005241134203970432
1772795049029484800,3.89948486328125,0.000588997732847929,0.0022704019211232662,-0.0012420454295352101
1772795049039529700,3.90952978515625,-0.00013412476982921362,-0.000012269709259271622,-0.0002410101005807519
1772795049049574000,3.919573974609375,-0.0022742408327758312,0.0021110684610903263,-0.0007880234043113887
1772795049059619000,3.929619140625,-0.0008604992181062698,0.0020048171281814575,-0.0011876781936734915
1772795049069662700,3.939662841796875,0.0003248737193644047,0.0007898830808699131,-0.0005075068329460919
1772795049079707000,3.949706787109375,0.00035652006044983864,0.00042390869930386543,0.0018728782888501883
1772795049089751800,3.959751708984375,0.0013552054297178984,-0.00132339121773839,0.0022337366826832294
1772795049099795700,3.969795654296875,-0.0005143898888491094,0.001738866325467825,0.0022073620930314064
1772795049109840000,3.97983984375,-0.0010169283486902714,0.0008965088054537773,-0.0010155952768400311
1772795049119884800,3.989884765625,0.0002984902821481228,0.0017756102606654167,-0.00047124276170507073
1772795049129928700,3.9999287109375,0.002125152386724949,-0.0010071266442537308,-0.0003583247307687998
1772795049139972900,4.009972900390625,0.0022085290402173996,0.00009266100823879242,-0.0015846610767766833
1772795049150017800,4.020017822265625,0.00005456444341689348,-0.0020043118856847286,0.000981561024673283
1772795049160062000,4.03006201171875,-0.0013537942431867123,-0.000154868233948946,-0.0018497946439310908
1772795049170107000,4.04010693359375,0.0002917730016633868,0.001211333554238081,-0.0023954762145876884
1772795049180150800,4.05015087890625,-0.0007090038852766156,0.0009336830116808414,-0.00021189521066844463
1772795049190195000,4.06019482421875,-0.002245381474494934,0.0032626171596348286,0.0005718730390071869
1772795049200239900,4.070239990234375,0.002362482948228717,-0.0003303978592157364,0.002463630400598049
1772795049210283800,4.08028369140625,0.0003360835835337639,-0.0005996432155370712,-0.0004559928784146905
1772795049220328000,4.090327880859375,-0.0013290608767420053,-0.0015363958664238453,0.00296401372179389
1772795049230372900,4.100372802734375,0.0013396927388384938,0.0006609782576560974,0.0023879718501120806
1772795049240416800,4.110416748046875,0.0002491577761247754,0.0009213411249220371,0.0013274881057441235
1772795049250461000,4.1204609375,0.001080330228433013,-0.002255809959024191,0.002408198779448867
1772795049260506000,4.130506103515625,0.0021784622222185135,-0.0008409996517002583,0.00054248480591923
1772795049270550000,4.140550048828125,0.0013906992971897125,0.0005614208057522774,0.001978993881493807
1772795049280594200,4.15059423828125,0.00005325197707861662,-0.003755537560209632,0.0004671690985560417
1772795049290639000,4.16063916015625,0.0002537879627197981,-0.0017190179787576199,0.0011843583779409528
1772795049300683000,4.17068310546875,-0.00030931795481592417,0.000496892724186182,-0.00018425181042402983
1772795049310728200,4.180728271484375,0.0005815094336867332,0.0017978474497795105,-0.0018165032379329205
1772795049320772000,4.190772216796875,-0.0004212448839098215,-0.0037269426975399256,0.0016106682596728206
1772795049330816000,4.20081591796875,-0.0008617317071184516,0.0005253264680504799,-0.0013462394708767533
1772795049340861200,4.210861083984375,0.0009730758611112833,-0.0008935346268117428,0.00038424902595579624
1772795049350905000,4.220905029296875,0.0031643249094486237,-0.0004581077955663204,-0.0021827719174325466
1772795049360949000,4.230948974609375,0.00024413468781858683,-0.0002381899394094944,0.0001390199176967144
1772795049370994200,4.240994140625,0.0007008668035268784,0.00009816698729991913,-0.00026791112031787634
1772795049381038000,4.2510380859375,0.0015754846390336752,0.0011927513405680656,0.0009447418851777911
1772795049391082000,4.26108203125,-0.0007790161180309951,-0.0005023502744734287,0.0008920113323256373
1772795049401127200,4.271127197265625,-0.0003228065907023847,-0.0005711540579795837,-0.0024117575958371162
1772795049411171000,4.281171142578125,0.0015456672990694642,-0.00004304898902773857,0.0019489022670313716
1772795049421216000,4.291216064453125,0.0006537766894325614,-0.00004421127960085869,0.002055099233984947
1772795049431260200,4.30126025390625,-0.0008375935722142458,0.00047936616465449333,0.000704077654518187
1772795049441304000,4.311303955078125,-0.001028532162308693,0.0012468495406210423,0.002310223411768675
1772795049451349000,4.321348876953125,-0.0019989879801869392,-0.00040883803740143776,-0.00003229302819818258
1772795049461393200,4.33139306640625,-0.0016987163107842207,-0.0015943367034196854,0.0001225932501256466
1772795049471437000,4.34143701171875,-0.0021716938354074955,-0.0003658207133412361,-0.0006276192143559456
1772795049481483000,4.35148291015625,-0.0001850245171226561,0.0006645526736974716,-0.0015362149570137262
1772795049491527200,4.361527099609375,0.0008008776931092143,0.0010294057428836823,-0.000916497316211462
1772795049501572000,4.371572021484375,-0.000029594404622912407,-0.0009558801539242268,-0.0024684458039700985
1772795049511616000,4.381615966796875,0.00005509401671588421,-0.0004978165961802006,-0.001396789913997054
1772795049521660200,4.39166015625,0.0030938968993723392,0.0004914267919957638,0.002133024390786886
1772795049531705000,4.401705078125,-0.001339200884103775,0.0009297830983996391,0.0013260864652693272
1772795049541749000,4.4117490234375,0.0003396484535187483,-0.0006650793366134167,0.0019720159471035004
1772795049551793200,4.421793212890625,-0.001027085818350315,0.000229742843657732,-0.002619007369503379
1772795049561838000,4.431838134765625,-0.0013264091685414314,0.0009378967806696892,-0.00026557082310318947
1772795049571882000,4.441882080078125,-0.00006646767724305391,0.0012217899784445763,0.0005640038289129734
1772795049581926100,4.451926025390625,0.00014958472456783056,-0.0000569317489862442,0.00015114899724721909
1772795049591971000,4.46197119140625,-0.0012094263220205903,0.0005758353509008884,0.0017682204488664865
1772795049602015000,4.472014892578125,0.0008419747464358807,-0.0012907544150948524,-0.0006342953420244157
1772795049612059100,4.48205908203125,-0.0021812457125633955,0.001811562106013298,-0.002649775706231594
1772795049622104000,4.49210400390625,-0.0004567020805552602,0.00393817899748683,-0.0018912560772150755
1772795049632148000,4.50214794921875,-0.0010436627781018615,-0.0005332687869668007,0.0011138550471514463
1772795049642193200,4.512193115234375,0.0002820482477545738,-0.0007351832464337349,0.0012957957806065679
1772795049652237000,4.522237060546875,-0.00004658580292016268,-0.0019352035596966743,0.0009391984203830361
1772795049662281000,4.532281005859375,-0.0006324310088530183,0.0004104776307940483,-0.00012716581113636494
1772795049672326100,4.542326171875,-0.0009014102979563177,-0.00023533916100859642,0.0015375762013718486
1772795049682370300,4.552370361328125,-0.0006106970831751823,0.0001566912978887558,0.0009872030932456255
1772795049692414000,4.5624140625,-0.0005089643527753651,0.0005007716827094555,0.000872687203809619
1772795049702459100,4.572459228515625,-0.0007240234408527613,0.0015469109639525414,0.0016994231846183538
1772795049712503300,4.58250341796875,-0.0025602730456739664,-0.0005921404808759689,0.00028688262682408094
1772795049722547000,4.592546875,-0.0013956663897261024,0.00015351036563515663,0.0004681955324485898
1772795049732592000,4.602592041015625,0.00026401563081890345,0.0007553850300610065,0.0008407718269154429
1772795049742636300,4.61263623046875,-0.0013792068930342793,0.0012983274646103382,0.00174993509426713
1772795049752681000,4.622680908203125,0.000008832663297653198,-0.0007107611745595932,-0.0004298621788620949
1772795049762725000,4.63272509765625,-0.0016496472526341677,-0.00023001199588179588,0.0016546430997550488
1772795049772769000,4.64276904296875,0.0003029824001714587,-0.002031374257057905,0.0022424026392400265
1772795049782814000,4.65281396484375,0.001589124440215528,-0.0004825950600206852,-0.00020317011512815952
1772795049792858000,4.662858154296875,0.003180629573762417,0.001146993599832058,0.0011718198657035828
1772795049802902000,4.672902099609375,0.001552198315039277,-0.0003670891746878624,0.00007934169843792915
1772795049812947000,4.682947021484375,0.0007756204577162862,-0.00006748363375663757,-0.00009429629426449537
1772795049822991000,4.6929912109375,-0.0019143474055454135,0.0004729139618575573,-0.0011955681256949902
1772795049833036300,4.703036376953125,-0.0012514865957200527,0.0008492185734212399,-0.00010846578516066074
1772795049843080000,4.713079833984375,0.0013998812064528465,-0.0006357980892062187,-0.00022671744227409363
1772795049853124000,4.7231240234375,-0.00252908025868237,-0.0016643106937408447,0.000022820779122412205
1772795049863169300,4.733169189453125,0.0013401558389887214,-0.0005813133902847767,0.0015060906298458576
1772795049873213000,4.743212890625,0.001440024352632463,-0.0005922322161495686,0.00042884203139692545
1772795049883257000,4.753257080078125,-0.002381946425884962,0.0004119677469134331,-0.0032312804833054543
1772795049893302300,4.76330224609375,0.00007801549509167671,0.00149108050391078,0.0006955504650250077
1772795049903346200,4.77334619140625,0.0018470091745257378,0.00045582232996821404,-0.002334834076464176
1772795049913390000,4.78339013671875,-0.0009863278828561306,0.0017184270545840263,0.000598904094658792
1772795049923435000,4.79343505859375,0.00038490048609673977,0.0020892834290862083,-0.00036797719076275826
1772795049933479200,4.803479248046875,-0.0005469395546242595,-0.0006361957639455795,0.0018158149905502796
1772795049943524000,4.813524169921875,0.0007027159444987774,-0.0006229863502085209,0.0006921763997524977
1772795049953568000,4.823568115234375,0.0010566499549895525,0.002378130331635475,0.0002836474450305104
1772795049963612200,4.833612060546875,0.0003644207026809454,0.0019830837845802307,0.0011105273151770234
1772795049973657000,4.843656982421875,-0.0014758235774934292,0.0007170168682932854,0.0011568662011995912
1772795049983701000,4.853700927734375,-0.001062119728885591,-0.00300214858725667,0.000074789859354496
1772795049993745200,4.8637451171875,0.000392765155993402,-0.001720635686069727,0.001286261947825551
1772795050003790000,4.8737900390625,-0.00239143380895257,0.0025139055214822292,-0.002034940989688039
1772795050013834000,4.883833984375,0.0012134211137890816,0.0007330495864152908,0.0013275662204250693
1772795050023878100,4.893878173828125,-0.00019620888633653522,-0.0009101857431232929,-0.0011182352900505066
1772795050033923000,4.903923095703125,-0.00001591281034052372,0.001128197181969881,0.00110310735180974
1772795050043967000,4.913967041015625,0.0010985475964844227,0.0015228921547532082,0.0002643477637320757
1772795050054012200,4.92401220703125,0.0003171762218698859,0.0013029146939516068,-0.002076038159430027
1772795050064056000,4.93405615234375,-0.0015449435450136662,-0.0015327800065279007,-0.0014983952278271317
1772795050074100000,4.944099853515625,0.00037359772250056267,0.00035327067598700523,-0.0014264899073168635
1772795050084145200,4.954145263671875,-0.0017447795253247023,0.00032479409128427505,-0.0006803642027080059
1772795050094189000,4.96418896484375,0.0013306387700140476,-0.002032103482633829,0.0013052887516096234
1772795050104233000,4.97423291015625,-0.00031068798853084445,-0.0005772975273430347,0.0003164015943184495
1772795050114278100,4.984278076171875,0.000800649169832468,0.00018090428784489632,0.0001140013337135315
1772795050124322000,4.994322021484375,-0.000042367842979729176,0.004055845085531473,-0.0013964786194264889
1772795050134366000,5.004365966796875,-0.0006450411747209728,0.001165516208857298,-0.0017155252862721682
1772795050144411100,5.0144111328125,-0.0007775075500831008,-0.0008499566465616226,-0.0008851904422044754
1772795050154455300,5.024455322265625,0.0013202645350247622,0.0008914843201637268,-0.0010223432909697294
1772795050164500000,5.0345,-0.0004175719222985208,0.0010168561711907387,0.0007742875022813678
1772795050174544100,5.044544189453125,0.0008871107129380107,0.0017092782072722912,0.0015034611569717526
1772795050184588300,5.05458837890625,0.00001576426438987255,-0.00046444637700915337,-0.0016147969290614128
1772795050194633000,5.064633056640625,0.00019313080701977015,-0.0003110482357442379,-0.00043208716670051217
1772795050204677000,5.074677001953125,0.00026794697623699903,0.00044054584577679634,-0.0018915558466687799
1772795050214721300,5.08472119140625,0.0003560975892469287,0.0005912808701395988,-0.00247585354372859
1772795050224766000,5.094765869140625,-0.000505289004649967,-0.0015089311636984348,-0.001647481694817543
1772795050234810000,5.10481005859375,0.0010936728212982416,-0.002985121449455619,0.0007632117485627532
1772795050244854000,5.11485400390625,0.001512796268798411,0.002837379463016987,-0.0015452054794877768
1772795050254899000,5.12489892578125,0.0015735164051875472,0.0028229989111423492,-0.000680477125570178
1772795050264942800,5.13494287109375,0.0010945446556434035,-0.0005226265639066696,-0.0020364089868962765
1772795050274988000,5.144988037109375,0.0007821558974683285,-0.0015894891694188118,-0.0007061601500026882
1772795050285032000,5.155031982421875,0.001154999015852809,0.00011978298425674438,-0.00007340626325458288
1772795050295075800,5.165075927734375,-0.0008911076001822948,-0.0011497456580400467,0.000031788600608706474
1772795050305121000,5.17512109375,0.0003572296118363738,0.00030267611145973206,0.003425667528063059
1772795050315165000,5.1851650390625,-0.000015879282727837563,-0.00133463554084301,-0.0018170314142480493
1772795050325208800,5.195208740234375,0.0009843525476753712,-0.0007554520852863789,-0.0003757417434826493
1772795050335254000,5.20525390625,-0.0008771970751695335,0.003002534620463848,-0.001892145723104477
1772795050345298000,5.2152978515625,-0.0011082865530624986,0.0017625740729272366,0.0011126446770504117
1772795050355341800,5.225341796875,-0.0002877666265703738,-0.001684620976448059,0.0013507312396541238
1772795050365387000,5.235386962890625,-0.0009384449222125113,0.0001471424475312233,0.0010091144358739257
1772795050375431000,5.245430908203125,0.00027409230824559927,-0.0007727132178843021,-0.0006420455174520612
1772795050385475800,5.255475830078125,-0.00010887085227295756,-0.0013159345835447311,-0.0007576280040666461
1772795050395520000,5.26552001953125,-0.0013312618248164654,0.002036985009908676,0.0006162967765703797
1772795050405564000,5.27556396484375,0.001524382154457271,0.00010777264833450317,-0.0010847507510334253
1772795050415608800,5.28560888671875,0.0014490146422758698,-0.0006038239225745201,0.0016609682934358716
1772795050425653000,5.295653076171875,-0.0003108239034190774,-0.0037555978633463383,0.003270804649218917
1772795050435697000,5.30569677734375,0.0003435147227719426,-0.00009268615394830704,0.0007194965146481991
1772795050445741800,5.315741943359375,-0.0023858272470533848,-0.0009249849244952202,-0.0031620669178664684
1772795050455786000,5.325785888671875,0.0011825421825051308,0.0010175248607993126,-0.0006408522604033351
1772795050465831000,5.335830810546875,-0.00014533137436956167,-0.002144362311810255,0.002435620641335845
1772795050475874800,5.345874755859375,0.0001297731650993228,0.0019499817863106728,0.002149863401427865
1772795050485919000,5.3559189453125,0.0004877950996160507,-0.0008265380747616291,0.0005967253819108009
1772795050495964000,5.3659638671875,-0.0001385803916491568,0.0005708225071430206,-0.002312511671334505
1772795050506007800,5.3760078125,0.00022832409013062716,-0.00048279110342264175,-0.0005795807228423655
1772795050516052000,5.386052001953125,0.001147381030023098,-0.0008998420089483261,-0.0016983747482299805
1772795050526097000,5.396096923828125,0.0005692730192095041,0.0011989418417215347,0.002904789289459586
1772795050536140800,5.406140869140625,-0.00031969015253707767,-0.0023941947147250175,0.004128778353333473
1772795050546185000,5.41618505859375,0.00007318449206650257,-0.0008823401294648647,-0.00048310664715245366
1772795050556230000,5.42622998046875,0.001157623715698719,-0.0030195266008377075,0.0006330241449177265
1772795050566274000,5.436274169921875,-0.000772087078075856,0.001054135151207447,0.0010851173428818583
1772795050576319000,5.446319091796875,-0.0000578272738493979,0.0014568045735359192,-0.000569770869333297
1772795050586363000,5.45636279296875,0.000057713594287633896,-0.0007150871679186821,-0.0008398952195420861
1772795050596407000,5.466406982421875,0.0004657098324969411,-0.00024104444310069084,0.0016613457119092345
1772795050606452000,5.476451904296875,0.0007251371862366796,-0.000757153145968914,-0.0008233613916672766
1772795050616495900,5.486495849609375,0.0013531105360016227,0.0009989351965487003,-0.0012561250478029251
1772795050626540000,5.4965400390625,0.0007141537498682737,-0.0028895745053887367,0.0042638350278139114
1772795050636585000,5.5065849609375,0.00017539621330797672,0.0006140801124274731,-0.0027024615556001663
1772795050646628900,5.51662890625,-0.0013986295089125633,-0.00016953982412815094,-0.00044830789556726813
1772795050656673800,5.526673828125,-0.0003671872545965016,0.0021503400057554245,-0.0015649714041501284
1772795050666718000,5.536718017578125,0.0014168904162943363,-0.0016078278422355652,0.00005548621993511915
1772795050676761900,5.546761962890625,0.00036813749466091394,-0.0019867955707013607,0.0018552504479885101
1772795050686807000,5.55680712890625,-0.001159711624495685,0.0005853129550814629,-0.001364521449431777
1772795050696851000,5.566850830078125,-0.000987138831987977,-0.0005973968654870987,-0.003072939347475767
1772795050706894800,5.576894775390625,0.00013929337728768587,-0.00012062164023518562,-0.0003814459778368473
1772795050716940000,5.58693994140625,-0.0011704491917043924,0.0017273458652198315,-0.0006767905433662236
1772795050726984000,5.59698388671875,0.0013340302975848317,-0.00016302242875099182,-0.0008304092334583402
1772795050737027800,5.60702783203125,0.0012911533704027534,-0.000675681047141552,-0.0010091073345392942
1772795050747073000,5.617072998046875,-0.0002566102775745094,-0.001628049649298191,-0.0005302889621816576
1772795050757117000,5.627116943359375,-0.00009895110270008445,0.0014524292200803757,0.000491565908305347
1772795050767161900,5.637161865234375,-0.0014730591792613268,0.0007345369085669518,0.001205163192935288
1772795050777206000,5.6472060546875,0.0013901054626330733,-0.0013493867591023445,0.001340185641311109
1772795050787250000,5.65725,0.00000460620503872633,-0.000765691976994276,-0.0019041365012526512
1772795050797294800,5.667294921875,-0.00039673212449997663,-0.0009118993766605854,0.0018338762456551194
1772795050807339000,5.677339111328125,-0.001195283024571836,0.0005945153534412384,0.0006293007172644138
1772795050817383000,5.6873828125,0.0010588165605440736,-0.0012920680455863476,-0.00020773080177605152
1772795050827427800,5.697427734375,0.001499323989264667,-0.00029664114117622375,0.0022513791918754578
1772795050837472000,5.707471923828125,-0.00034864351619035006,-0.0008122292347252369,-0.0006951420218683779
1772795050847516000,5.717515869140625,-0.0010431896662339568,-0.0009194081649184227,-0.00014025613199919462
1772795050857560800,5.727560791015625,-0.0008639588486403227,-0.0002940976992249489,0.0008365912362933159
1772795050867605000,5.73760498046875,-0.0002500341506674886,-0.0005338131450116634,0.002116184215992689
1772795050877650000,5.74764990234375,-0.0008926548762246966,-0.00252905348315835,-0.0014495220966637135
1772795050887693800,5.75769384765625,0.0003756970399990678,-0.0000571901910007,-0.00046267342986539006
1772795050897738000,5.767738037109375,-0.0009423013543710113,-0.00029900530353188515,-0.0006688020657747984
1772795050907783000,5.777782958984375,-0.0023543965071439743,0.001978951971977949,-0.0014116551028564572
1772795050917826800,5.787826904296875,0.0008840074297040701,-0.0006013847887516022,0.0012930512893944979
1772795050927871000,5.79787109375,0.000628099194727838,0.0005413349717855453,0.002187185687944293
1772795050937916000,5.807916015625,-0.0004976190393790603,-0.0009420458227396011,-0.0022890553809702396
1772795050947959800,5.817959716796875,-0.0008030495373532176,-0.0009450200013816357,0.0004584261914715171
1772795050958005000,5.8280048828125,-0.0016025304794311523,-0.0002784309908747673,-0.0003453157842159271
1772795050968049000,5.838048828125,-0.0012059278087690473,0.0010591410100460052,0.003039970062673092
1772795050978092800,5.8480927734375,0.002481485018506646,0.0011494224891066551,-0.0026714452542364597
1772795050988138000,5.858137939453125,0.0012415510136634111,-0.0002710358239710331,-0.0016448784153908491
1772795050998182000,5.868181884765625,0.00003620435018092394,-0.0009003407321870327,0.0015762150287628174
1772795051008225800,5.878225830078125,0.0000338447280228138,-0.0005465592257678509,0.0013070618733763695
1772795051018271000,5.88827099609375,0.0013334674295037985,-0.00038943253457546234,0.0012378199025988579
1772795051028315000,5.89831494140625,0.0013775754487141967,-0.0002465159632265568,-0.00155066535808146
1772795051038359000,5.908359130859375,0.00046783953439444304,-0.0016691768541932106,-0.0004989830777049065
1772795051048404000,5.918404052734375,-0.0013246530434116721,-0.00010079052299261093,0.0013715089298784733
1772795051058448000,5.92844775390625,0.0010841761250048876,0.00006033061072230339,-0.0012138879392296076
1772795051068492800,5.938492919921875,-0.00035450683208182454,-0.000367654487490654,-0.002232641214504838
1772795051078537000,5.948536865234375,0.00014084111899137497,-0.0012840484268963337,-0.0005926666781306267
1772795051088580900,5.958580810546875,0.0003603552468121052,0.00010804412886500359,-0.002883393317461014
1772795051098625800,5.968625732421875,-0.0010489895939826965,0.00001163780689239502,-0.001239157747477293
1772795051108670000,5.978669921875,0.0020240515004843473,0.002065958920866251,-0.0007576096104457974
1772795051118713900,5.9887138671875,0.00022508623078465462,-0.0002118428237736225,0.001510604633949697
1772795051128758800,5.9987587890625,0.0009127565426751971,-0.0005262489430606365,0.0021909261122345924
1772795051138803000,6.008802978515625,-0.0006233548047021031,0.0008423496037721634,-0.0020269881933927536
1772795051148847900,6.018847900390625,0.0011462506372481585,0.0006491858512163162,-0.0007419673493131995
1772795051158892000,6.02889208984375,-0.001142203575000167,0.0022803721949458122,-0.004295156802982092
1772795051168936000,6.03893603515625,-0.002641805214807391,-0.00007387157529592514,-0.00008044473361223936
1772795051178980900,6.04898095703125,-0.00041966367280110717,0.0000038929283618927,-0.0007006949163042009
1772795051189025000,6.05902490234375,0.0013251471100375056,-0.0000375695526599884,0.0005254867719486356
1772795051199069000,6.06906884765625,0.0004409775137901306,0.0005643046461045742,0.0002298759063705802
1772795051209113900,6.07911376953125,-0.0014478240627795458,0.0011786101385951042,-0.00022570649161934853
1772795051219158000,6.089157958984375,-0.0012622016947716475,0.00004703272134065628,0.00006377906538546085
1772795051229202000,6.099201904296875,-0.000014008372090756893,0.0006668097339570522,-0.0005144151509739459
1772795051239246800,6.109246826171875,-0.0005069595063105226,-0.0013486705720424652,-0.0009013724629767239
1772795051249291000,6.119291015625,0.0012311965692788363,-0.0008301981724798679,-0.0023471591994166374
1772795051259335200,6.129335205078125,-0.0012189114931970835,-0.00028158677741885185,0.00037192809395492077
1772795051269379300,6.13937939453125,-0.0022533396258950233,-0.0018119188025593758,0.0013559332583099604
1772795051279423200,6.14942333984375,0.0004090224392712116,-0.0009253527969121933,0.0005532565992325544
1772795051289468400,6.159468505859375,0.0008575002430006862,0.001276147086173296,-0.002902823034673929
1772795051299512300,6.16951220703125,0.0013840071624144912,-0.0006714225746691227,0.0001941670197993517
1772795051309556200,6.17955615234375,0.0017148662591353059,-0.0004975935444235802,-0.00043932057451456785
1772795051319601400,6.189601318359375,-0.002642331412062049,-0.0004674997180700302,-0.0025591966696083546
1772795051329645300,6.199645263671875,-0.0007838752353563905,0.001797468401491642,0.00014039210509508848
1772795051339689200,6.209689208984375,0.0006502369651570916,-0.0011589066125452518,0.0007161676185205579
1772795051349734400,6.219734375,-0.0002606713678687811,0.0007490124553442001,0.0003478550352156162
1772795051359778300,6.2297783203125,0.0018831733614206314,0.00012210430577397346,-0.000515275401994586
1772795051369823200,6.2398232421875,-0.0006142605561763048,-0.0007789041846990585,-0.00019652489572763443
1772795051379867400,6.249867431640625,0.0007551368325948715,0.00003229454159736633,0.0006098803132772446
1772795051389911300,6.259911376953125,0.0013623092090710998,0.00011984910815954208,0.00006868666969239712
1772795051399956200,6.269956298828125,0.00033353001344949007,0.00026312749832868576,0.00046176917385309935
1772795051410000400,6.28000048828125,-0.0005064309807494283,-0.0003912113606929779,-0.0003331843763589859
1772795051420044300,6.290044189453125,0.0007002070778980851,0.0012591811828315258,-0.0022032554261386395
1772795051430089200,6.300089111328125,-0.0000641942024230957,-0.0035965112037956715,-0.00025404931511729956
1772795051440133400,6.31013330078125,-0.0003430271754041314,0.0005106157623231411,0.001095640822313726
1772795051450178300,6.32017822265625,0.000474289758130908,-0.00045861024409532547,0.0015509084332734346
1772795051460222200,6.33022216796875,-0.00044716399861499667,0.00010944204404950142,0.00005767401307821274
1772795051470266400,6.340266357421875,-0.00016515731113031507,0.00042473338544368744,-0.0030589329544454813
1772795051480311300,6.350311279296875,-0.00236652628518641,-0.00039472151547670364,-0.00016327796038240194
1772795051490355200,6.360355224609375,-0.00005077081732451916,0.00030026305466890335,-0.0013157572830095887
1772795051500399400,6.3703994140625,0.0004094233736395836,-0.0014494340866804123,-0.0006987028755247593
1772795051510444300,6.3804443359375,0.0014498595846816897,0.0011005415581166744,0.00026910484302788973
1772795051520488200,6.39048828125,-0.0017989305779337883,0.0003671068698167801,0.0007354244589805603
1772795051530532400,6.400532470703125,-0.001832963665947318,-0.002486085519194603,0.0013292246730998158
1772795051540577500,6.41057763671875,0.0008312625577673316,0.001304924488067627,-0.002605329267680645
1772795051550621200,6.42062109375,-0.00023580878041684628,0.0008054240606725216,-0.00013649289030581713
1772795051560666400,6.430666259765625,-0.0012456794502213597,-0.00146145885810256,-0.000995894894003868
1772795051570710300,6.440710205078125,-0.001124139060266316,-0.0006394586525857449,-0.0015553151024505496
1772795051580754200,6.450754150390625,0.0010423423955217004,-0.00056488998234272,-0.0020104493014514446
1772795051590799400,6.46079931640625,-0.0013008040841668844,0.0013776752166450024,-0.0012363697169348598
1772795051600843300,6.47084326171875,0.0018156269798055291,-0.0015214416198432446,0.0006520777242258191
1772795051610887200,6.48088720703125,0.001060239621438086,-0.00051501439884305,-0.0007541038794443011
1772795051620932400,6.490932373046875,-0.00148094876203686,0.000841866247355938,0.00148614717181772
1772795051630976300,6.500976318359375,0.0013512095902115107,0.0003304760903120041,0.002047881716862321
1772795051641021200,6.511021240234375,0.0004020590567961335,0.00012035248801112175,-0.002645939588546753
1772795051651065300,6.5210654296875,-0.0010459222830832005,-0.0012064999900758266,-0.0020239902660250664
1772795051661109200,6.531109130859375,-0.0009399284608662128,0.001051328144967556,-0.001579508651047945
1772795051671154200,6.541154296875,0.000036368146538734436,0.002444180194288492,0.0012897559208795428
1772795051681198300,6.5511982421875,-0.0007450033444911242,-0.0003388230688869953,-0.00008816365152597427
1772795051691242200,6.5612421875,0.0016451794654130936,0.004240243695676327,-0.0003974463907070458
1772795051701287200,6.571287109375,-0.0277438685297966,0.05848643556237221,0.08412756025791168
1772795051711331300,6.581331298828125,-0.009925096295773983,-0.01746489107608795,-0.0007610715110786259
1772795051721375200,6.591375244140625,-0.06959109008312225,0.027579545974731445,0.022513624280691147
1772795051731420200,6.601420166015625,-0.15885259211063385,-0.004287676885724068,-0.008278529159724712
1772795051741464300,6.61146435546875,-0.14957015216350555,-0.015838604420423508,-0.010370975360274315
1772795051751509200,6.62150927734375,-0.006613282021135092,-0.028647929430007935,-0.026769861578941345
1772795051761553400,6.631553466796875,0.0020201532170176506,-0.021957537159323692,-0.021007047966122627
1772795051771597300,6.641597412109375,-0.0014038315275684,-0.013585465028882027,-0.0019155475310981274
1772795051781642200,6.651642333984375,0.0015157919842749834,0.004597533028572798,-0.00015226856339722872
