time,seconds_elapsed,z,y,x
1772793862105369900,0.072369873046875,-1.9420172798603772,1.280287647330761,-0.27488438770454376
1772793862115414800,0.082414794921875,-1.358833945301175,1.4161521618038415,-0.07264175010174513
1772793862125459200,0.092459228515625,-0.7746586770951748,1.4058289207100867,0.08174856461044401
1772793862135505200,0.102505126953125,-0.3804559456467628,1.264615446424484,0.2221933560784906
1772793862145550300,0.11255029296875,-0.045461189970374107,1.431419873562455,0.5706663828134536
1772793862155596300,0.12259619140625,0.4990601132392883,1.9890169314444064,0.6580204027481377
1772793862165641200,0.13264111328125,0.6519044040858745,1.5248206263154744,0.4476229541318491
1772793862175686400,0.142686279296875,0.4134726645857095,0.7840496057748794,0.5539139123897999
1772793862185732400,0.152732421875,0.2794032168358564,0.5881377420961856,0.8815862162236123
1772793862195777500,0.162777587890625,0.3370844214320183,0.5174176077067851,1.170100156558305
1772793862205822200,0.172822265625,0.46310324919521806,0.4903577513456344,0.8704068697571754
1772793862215868200,0.1828681640625,0.4912251818299293,0.7912514999777078,0.33391233073454346
1772793862225913300,0.192913330078125,0.40823944010734553,1.0198866526067256,0.15854838423971085
1772793862235959300,0.202959228515625,0.2955389436006546,1.0448363849461078,0.3266754748161882
1772793862246004200,0.213004150390625,0.30695524062812324,0.9754255795896053,0.48195484732259064
1772793862256049400,0.22304931640625,0.43054947159290313,0.9150988289207219,0.5484451986551284
1772793862266095400,0.233095458984375,0.5966261689782142,0.7616659245312214,0.5390383782865479
1772793862276140300,0.243140380859375,0.8053074978590011,0.5155243413060904,0.5239343691896647
1772793862286186200,0.253186279296875,1.0053285504221916,0.3052612961918115,0.5218279714949429
1772793862296231200,0.263231201171875,1.1797416989982128,0.19616028548181055,0.49808637283630663
1772793862306276400,0.2732763671875,1.330023445880413,0.1004822354465723,0.41401349346414207
1772793862316322300,0.283322265625,1.3640665852576492,0.014637597161531447,0.2721627441883087
1772793862326367500,0.293367431640625,1.3003221350997685,-0.09702245038151741,0.04584843572229147
1772793862336412400,0.303412353515625,1.1223165149897336,-0.10305822341442107,-0.10515841056406497
1772793862346458000,0.3134580078125,0.9071405633926392,-0.04586801720559597,-0.22473931423425672
1772793862356503300,0.32350341796875,0.7278530867785215,0.074139587444067,-0.21123167095072568
1772793862366549200,0.33354931640625,0.6125833243057132,0.17913666996657848,-0.10915182758178561
1772793862376594400,0.343594482421875,0.5072977802306413,0.25242285545170307,0.03924377676025033
1772793862386639400,0.353639404296875,0.3988648780405521,0.2780366046577692,0.11956256429590284
1772793862396685300,0.363685302734375,0.3867880712777376,0.26907062339186666,0.13536978975869715
1772793862406730500,0.37373046875,0.40012276914715766,0.25312369719743727,0.12060900460891424
1772793862416776400,0.3837763671875,0.28526071069240566,0.19689619854092597,0.0830196805248037
1772793862426821000,0.393821044921875,0.162414083224535,0.11855272966623305,0.04427428174074739
1772793862436866300,0.4038662109375,0.039541444532573224,0.07111877831816672,0.013544139369018375
1772793862446912300,0.413912353515625,-0.07450082197189331,0.061924833515286444,-0.002341046700812876
1772793862456957400,0.42395751953125,-0.13741349748075007,0.08061024476289749,0.04280015406757593
1772793862467003400,0.43400341796875,-0.22776596857905387,0.1143202066630125,0.03515975884962827
1772793862477048300,0.44404833984375,-0.28826398416161536,0.13325520875751973,0.08435757806506007
1772793862487093200,0.45409326171875,-0.336821971103549,0.09122107062637805,0.0918978008441627
1772793862497139200,0.46413916015625,-0.340305721566081,0.05348492195010185,0.1237039749495685
1772793862507184400,0.474184326171875,-0.22296821290850638,0.07026070018410682,0.17226057365201414
1772793862517229300,0.484229248046875,-0.08290244735330343,0.03476443938910961,0.22673132830169052
1772793862527275300,0.494275146484375,-0.03243628870248794,-0.07391571556031704,0.057646863935142754
1772793862537320400,0.504320556640625,0.2093167041748762,-0.05186696535944938,-0.10202493484392762
1772793862547366400,0.514366455078125,0.44813364360034463,-0.03485913193523884,-0.2152878144737333
1772793862557411000,0.5244111328125,0.5872162433370948,-0.08309972349107266,-0.20504352036770432
1772793862567456300,0.534456298828125,0.6755559133082628,-0.10364216078221797,-0.1305600513894111
1772793862577502200,0.544502197265625,0.8297899049475789,-0.05176993472576141,-0.06649824237804859
1772793862587547400,0.55454736328125,1.0101260138317942,0.013187398353219032,-0.009786175074987113
1772793862597593300,0.56459326171875,1.0679390281140804,0.019847440764307975,0.012669110100157558
1772793862607638300,0.57463818359375,1.1501011784940958,-0.00061608607172966,-0.012688801181316375
1772793862617683500,0.584683349609375,1.3145499824166298,-0.013556231665611266,-0.017702939548902213
1772793862627729400,0.5947294921875,1.4822475590020416,0.007938391783833503,0.031947190011292696
1772793862637774300,0.6047744140625,1.6003607282072305,0.07739478984773158,0.16244210374262183
1772793862647820300,0.6148203125,1.6610896299362181,0.15266192001700402,0.3515864095151424
1772793862657865200,0.624865234375,1.662520539522171,0.2623041979968548,0.46294035025108604
1772793862667910400,0.634910400390625,1.5655927816867827,0.29767361754179,0.438141424559243
1772793862677956400,0.644956298828125,1.3920903182148932,0.3076046444475651,0.38243345626480874
1772793862688001300,0.655001220703125,1.1573586022764444,0.31043606848120686,0.42453744476176797
1772793862698047500,0.665047607421875,0.9325099824488162,0.25083237138986586,0.4989155902020633
1772793862708092200,0.675092041015625,0.7946358817189931,0.17707272317409514,0.5531495769537985
1772793862718137300,0.685137451171875,0.7270236502170563,0.1271346800506115,0.5269455337043851
1772793862728183300,0.695183349609375,0.670962155777216,0.08737491659224032,0.36500871260277923
1772793862738228200,0.705228271484375,0.6103752928674221,0.02123275764286518,0.11804305397788993
1772793862748273400,0.7152734375,0.5975146422505379,-0.0443850851714611,-0.0922404585356824
1772793862758319400,0.7253193359375,0.6203893218815326,-0.11100538302659987,-0.2869385442441329
1772793862768364500,0.735364501953125,0.6142255385547876,-0.16429332109987735,-0.43709476505052297
1772793862778410200,0.74541015625,0.48720600931644437,-0.21670096920728682,-0.5415244594812393
1772793862788455200,0.755455078125,0.3017021424055099,-0.25850597475767134,-0.6456533808670938
1772793862798500400,0.765500244140625,0.1663993534684181,-0.2611649648338556,-0.6541830896075814
1772793862808546300,0.77554638671875,0.032681203374266624,-0.3191150494992733,-0.6436072619922458
1772793862818591200,0.78559130859375,0.021363690546154973,-0.38457974757850166,-0.5841171813432127
1772793862828637400,0.795637451171875,0.04083002303838729,-0.4167465716898441,-0.46543417636081574
1772793862838682400,0.805682373046875,0.0053343467652797695,-0.4002028486460447,-0.42351197417154907
1772793862848727300,0.815727294921875,-0.06706628805696964,-0.32714404217600823,-0.4081643290445208
1772793862858773200,0.825773193359375,-0.20480010353326797,-0.2727911052197218,-0.4389502932567149
1772793862868818200,0.835818115234375,-0.3824503343343735,-0.24725626646876334,-0.44845432692207393
1772793862878864400,0.845864501953125,-0.5199041638255119,-0.19922785635888576,-0.38909393706731493
1772793862888909300,0.855909423828125,-0.5770318261921406,-0.15737959618866443,-0.2767595704592764
1772793862898954500,0.86595458984375,-0.6131044255703687,-0.11030278771519661,-0.1141061620535329
1772793862909000400,0.87600048828125,-0.6294055720299482,-0.04716974745392799,0.03235085717504844
1772793862919045000,0.886045166015625,-0.685658205127716,0.00576046322286129,0.10746665097381919
1772793862929090300,0.89609033203125,-0.7599930228829384,0.015577508360147475,0.06378726638630032
1772793862939136300,0.90613623046875,-0.8045137171328067,0.03823474584817886,-0.0032714594187214967
1772793862949181400,0.916181396484375,-0.7589367918282747,0.09363339246511458,-0.021478329901769757
1772793862959227400,0.926227294921875,-0.6895557970881462,0.11850012269616127,-0.0283490193888545
1772793862969272300,0.936272216796875,-0.6120750825226307,0.12818798849582672,-0.057033006353117525
1772793862979317500,0.9463173828125,-0.5645744956791401,0.1122287873417139,-0.08233162519540638
1772793862989363200,0.95636328125,-0.5628209300100803,0.10069324784874915,-0.11372158318273723
1772793862999408000,0.966408203125,-0.5399059183686972,0.08763035265803337,-0.16706274928059428
1772793863009454300,0.976454345703125,-0.4831827451497316,0.06532382830381393,-0.21601013739891348
1772793863019499300,0.986499267578125,-0.4483925867974758,0.030057869133353232,-0.23390315615981816
1772793863029544400,0.99654443359375,-0.40953415609300137,0.017948913666605948,-0.22256430828273294
1772793863039590400,1.00659033203125,-0.3780822022527456,-0.01409457632601261,-0.19117131808809934
1772793863049635300,1.01663525390625,-0.4077747452050447,-0.03141922061443329,-0.11538564393743872
1772793863059681500,1.026681640625,-0.42979836096465585,-0.05292378093600273,-0.11845745259821414
1772793863069726200,1.036726318359375,-0.4285287794202566,-0.030794951236248015,-0.167539536479488
1772793863079771400,1.046771484375,-0.4030734356462955,-0.02669043852686882,-0.20205120668392626
1772793863089817300,1.0568173828125,-0.37706630320847034,-0.04047112659811973,-0.17367069617826492
1772793863099862300,1.0668623046875,-0.3463765659123659,-0.04225508740544319,-0.16265578302592038
1772793863109907500,1.076907470703125,-0.2617658533364534,-0.058770753398537635,-0.1821760741950944
1772793863119952100,1.0869521484375,-0.18739070357084273,-0.09569967734515666,-0.2218525798168033
1772793863129997300,1.096997314453125,-0.12387830860316752,-0.1315004740446806,-0.2540858567604795
1772793863140043300,1.107043212890625,-0.10656301666498183,-0.18730360980927943,-0.26353757571671155
1772793863150088200,1.117088134765625,-0.029010405907034874,-0.20085282721221445,-0.20258651913702486
1772793863160133400,1.12713330078125,-0.024732874718308446,-0.22349954330623148,-0.18325667250603436
1772793863170179300,1.137179443359375,-0.06483984417915344,-0.23642682941853999,-0.18782741448767482
1772793863180224500,1.147224609375,-0.13507599444389343,-0.2151075625360012,-0.24810572290495037
1772793863190270500,1.1572705078125,-0.2039659907966852,-0.1549889016598463,-0.32248218784481286
1772793863200315100,1.167315185546875,-0.3026969986617565,-0.13311901515722274,-0.36089616271741687
1772793863210360300,1.1773603515625,-0.3747229549527168,-0.07265490184426307,-0.3397279216781258
1772793863220406300,1.18740625,-0.3995236342102289,-0.042781741628050804,-0.3010308920804411
1772793863230451500,1.197451416015625,-0.3582797696739435,0.023485505005717278,-0.23305614740904418
1772793863240496400,1.207496337890625,-0.3359031026929617,0.08006605488359927,-0.0927004955291748
1772793863250542300,1.217542236328125,-0.31359950094819067,0.12115852825045585,0.027589433193206784
1772793863260587300,1.227587158203125,-0.3020119390070438,0.159694887393713,0.07887068935288116
1772793863270633200,1.23763330078125,-0.289027369749546,0.19352116914987563,0.0849869620097801
1772793863280678400,1.247678466796875,-0.2610235105365515,0.21313947733342647,0.05251889906269498
1772793863290723300,1.257723388671875,-0.17398995472788809,0.1933054805725813,-0.002306623841403052
1772793863300769300,1.267769287109375,-0.10897183137238026,0.1613841556549072,-0.05825723265213892
1772793863310814500,1.277814453125,-0.025229718324542044,0.16807517772614955,-0.08462643986800684
1772793863320860400,1.2878603515625,0.0389870255202055,0.1666483597934246,-0.04643612681659869
1772793863330905000,1.297905029296875,0.10019289711117745,0.1564560516029596,-0.018177562190173194
1772793863340950300,1.3079501953125,0.16379589297175406,0.14084230288565158,-0.018372819900792092
1772793863350996200,1.317996337890625,0.1943459295362234,0.12867898688316345,-0.0331816454433836
1772793863361041400,1.32804150390625,0.2320914305627346,0.11110533626973629,-0.0318287329970859
1772793863371087400,1.33808740234375,0.28005905039608475,0.09589607670009136,-0.02920403791614808
1772793863381132300,1.34813232421875,0.3251099059998989,0.10143383708298205,-0.033360792269418016
1772793863391177500,1.358177490234375,0.3304670491188764,0.07728606877624988,-0.042012072429805994
1772793863401223400,1.368223388671875,0.3399707905232906,0.04918985510468483,-0.05907282335134223
1772793863411268400,1.378268310546875,0.37759237290918823,-0.0028337621212005614,-0.08314316990715451
1772793863421313300,1.388313232421875,0.4062807072550058,-0.06556523584425449,-0.06286005027247592
1772793863431359200,1.398359130859375,0.41232115646302697,-0.11517711575329304,-0.09126301007196307
1772793863441404400,1.408404296875,0.33894904626011846,-0.15255612155497073,-0.17388949002809823
1772793863451450400,1.418450439453125,0.27479659982323645,-0.18444062159359453,-0.28663444673102345
1772793863461495300,1.428495361328125,0.28092706540226936,-0.18640870679616928,-0.3478455059537664
1772793863471540200,1.438540283203125,0.28421090937852855,-0.20500293262898922,-0.3619514804566279
1772793863481586200,1.448586181640625,0.26049685631394387,-0.22081366522312162,-0.3681251275902614
1772793863491631400,1.45863134765625,0.2372761397242546,-0.25190146192610263,-0.34315555803924797
1772793863501677300,1.46867724609375,0.2641431038618088,-0.24148586637377736,-0.373835796854645
1772793863511722200,1.47872216796875,0.22024667899012565,-0.2404863339424133,-0.3519398260626942
1772793863521767400,1.488767333984375,0.1501607508510351,-0.24549510201513766,-0.29187121487334367
1772793863531813400,1.4988134765625,0.11932020690739154,-0.22117548427283762,-0.25890852767657485
1772793863541858300,1.5088583984375,0.08377192366421223,-0.19167407997846603,-0.2885985133456066
1772793863551903200,1.5189033203125,0.05883621985018253,-0.17077157720327377,-0.32741076682079584
1772793863561949200,1.52894921875,0.06126666186749935,-0.174299751329422,-0.30355644676899535
1772793863571994400,1.538994384765625,0.02449438978731632,-0.1552326472878456,-0.22487541650300844
1772793863582040300,1.549040283203125,0.04814823709726333,-0.1482002644330263,-0.1669595811670646
1772793863592085200,1.559085205078125,0.07746668604016303,-0.10073182629346847,-0.1359220716129057
1772793863602130400,1.56913037109375,0.05072890124022961,-0.11886135722398757,-0.1524865177843254
1772793863612176400,1.57917626953125,0.050557636326551435,-0.15819441970288753,-0.1946232486402616
1772793863622221300,1.58922119140625,0.14423662149906158,-0.12672609924972056,-0.24782438521292058
1772793863632267300,1.599267333984375,0.2221884607076645,-0.1098234797656536,-0.2099038564130664
1772793863642312200,1.609312255859375,0.24322832612693307,-0.11846154425144195,-0.14519849793431347
1772793863652357400,1.619357421875,0.2825374232083559,-0.06324409942030906,-0.07128758641327732
1772793863662403300,1.6294033203125,0.2968453500241041,-0.015400982749462127,-0.006406250313110649
1772793863672448500,1.639448486328125,0.2914963902115822,0.028029578176140782,0.012902991921268403
1772793863682493200,1.6494931640625,0.26072715793848034,0.010298691174387932,0.049922041836753486
1772793863692539100,1.6595390625,0.24022213004827497,-0.01002513493001461,0.05031385416593402
1772793863702584300,1.669584228515625,0.2548912913918495,0.01904606125354767,-0.023841277907136825
1772793863712630300,1.67963037109375,0.2668658068239689,0.04338263013064861,-0.05179653047174215
1772793863722675200,1.68967529296875,0.2479243749886751,0.009275777867436408,-0.03828058515074663
1772793863732720400,1.699720458984375,0.18764730868041515,0.01047697035074234,-0.06358216313510201
1772793863742766300,1.709766357421875,0.11968728665411471,0.027371991050243377,-0.08603756704125552
1772793863752811300,1.719811279296875,0.02775777549743652,0.05356441692709923,-0.08326874164873733
1772793863762857200,1.729857177734375,-0.011413374418020247,0.09337795639932155,-0.06332591421855613
1772793863772902100,1.739902099609375,0.009969605350494385,0.12717968823611736,-0.04261647719689644
1772793863782947300,1.749947265625,0.0724058955192566,0.10182663579285144,-0.01303955084774643
1772793863792993300,1.7599931640625,0.14268646944761276,0.06067395667135715,0.0257423166223336
1772793863803038500,1.77003857421875,0.20599837340712546,0.05260287841856479,0.01581489731259644
1772793863813083400,1.78008349609375,0.2061182003945112,0.02350654779374599,-0.013765563567355274
1772793863823129300,1.79012939453125,0.17075988676548004,0.003084522011876106,-0.02559001213745214
1772793863833174300,1.80017431640625,0.18421324257850646,0.021771102303266524,-0.06299727591923437
1772793863843220200,1.81022021484375,0.2209405064731836,0.011872808623313903,-0.02870517588276416
1772793863853265400,1.820265380859375,0.19771336014270782,-0.017975217151641843,0.02717715346473269
1772793863863310300,1.830310302734375,0.20389584816992282,-0.00019815292060375213,0.03907087701191194
1772793863873356300,1.840356201171875,0.19386136088967323,0.004589081355929375,0.03226584577271715
1772793863883401500,1.8504013671875,0.08268529747128486,-0.04768237315118313,-0.014594698734721167
1772793863893447400,1.860447509765625,0.03011807488799095,-0.05787058968842029,-0.0545429522362072
1772793863903492000,1.8704921875,0.020743512821197508,-0.03914250834286213,-0.08422146666315383
1772793863913537300,1.880537353515625,-0.005362988337874412,-0.07598492304980754,-0.09768829387910663
1772793863923583200,1.890583251953125,-0.07591887207627296,-0.07384031223654747,-0.1078825382983312
1772793863933628400,1.90062841796875,-0.10056874468624591,-0.0608113193154335,-0.13340760457394643
1772793863943673300,1.91067333984375,-0.10545242507457732,-0.0662011956602335,-0.1714482708884403
1772793863953719300,1.92071923828125,-0.10342822577059269,-0.07508534386157989,-0.1585297891370952
1772793863963764500,1.930764404296875,-0.0795423232704401,-0.08514379653930663,-0.1382794118613936
1772793863973810200,1.94081005859375,-0.00851239227950573,-0.08332359537482262,-0.13250041746799834
1772793863983855400,1.95085546875,0.023413608813285827,-0.1076315226793289,-0.1144791418180801
1772793863993900300,1.960900390625,0.10244798256158828,-0.1382002639442682,-0.16425952842812985
1772793864003946200,1.9709462890625,0.1808084025710821,-0.1281102470844984,-0.22714330663606522
1772793864013991400,1.980991455078125,0.20133973394632337,-0.13681436254382132,-0.25791007295744495
1772793864024037400,1.991037353515625,0.17923779225349426,-0.135621353366971,-0.22119833542546255
1772793864034082300,2.001082275390625,0.17589666513204574,-0.12029402037560939,-0.17665146555472164
1772793864044127200,2.011127197265625,0.13717910420298576,-0.09497253211438655,-0.13908753164019436
1772793864054173200,2.021173095703125,0.053045946010947226,-0.09120645757913588,-0.09593346783472224
1772793864064218400,2.03121826171875,0.01792845540046692,-0.07252104633152484,-0.09439503362053073
1772793864074263300,2.04126318359375,-0.003836217162013054,-0.07446516613662242,-0.10921955905575305
1772793864084309200,2.051309326171875,-0.06704816787838935,-0.07655950806736946,-0.1432276271196082
1772793864094354400,2.0613544921875,-0.10018003762960434,-0.08977028729617595,-0.15856206570519132
1772793864104400400,2.071400390625,-0.10038462029099464,-0.03957563906311989,-0.17978110534995792
1772793864114445300,2.0814453125,-0.07193535539805888,0.00010930559337139129,-0.1738420706897974
1772793864124491300,2.0914912109375,-0.02168400854170322,-0.024877251625061034,-0.1691161564127542
1772793864134537200,2.101537109375,-0.011318681871891022,-0.06056523559987545,-0.14538425716422498
1772793864144582100,2.11158203125,-0.04052022643685341,-0.058135962626338,-0.13925786497211082
1772793864154628000,2.121628173828125,-0.01494505567550659,-0.019676175850629807,-0.13418510088562033
1772793864164673000,2.131673095703125,0.08169336382448673,0.020803718575835226,-0.08068010426186956
1772793864174718200,2.14171826171875,0.1103770219951868,-0.014086977541446685,-0.027004226316930724
1772793864184764200,2.15176416015625,0.09216390443444251,-0.01818155337870121,-0.004322717470745556
1772793864194809000,2.16180908203125,0.08239595913589,0.01764730037152767,-0.0275978767945664
1772793864204854000,2.17185400390625,0.11416940001547336,0.04776069908440113,-0.02340932993039023
1772793864214900000,2.18189990234375,0.10865911216139792,0.04135959987044334,-0.002519969764561392
1772793864224945200,2.191945068359375,0.07520107919573783,0.019838672935962677,0.029659275436936874
1772793864234991000,2.2019912109375,0.0807183813124895,0.032274960660934444,0.06160702257065568
1772793864245036000,2.2120361328125,0.11969137830734253,0.03518880228102207,0.03561580008801538
1772793864255081200,2.222081298828125,0.13157470832467077,0.03550444410145283,0.021285570108913816
1772793864265127200,2.232127197265625,0.10787351474165915,0.01087912141084671,0.024841006701323203
1772793864275172000,2.242172119140625,0.1136836623251438,0.01530278307199478,0.01071284319953993
1772793864285218000,2.252218017578125,0.1452636264592409,0.008581365862488746,-0.0029465291801374404
1772793864295263000,2.262262939453125,0.15104454794824124,0.019368132814764974,-0.03229904478942044
1772793864305308200,2.27230810546875,0.07883154465258121,0.009710077631473541,-0.05559347506929189
1772793864315354000,2.28235400390625,0.009248889860510826,-0.006685176852345466,-0.11240878355111926
1772793864325399000,2.29239892578125,-0.031019407641887663,-0.016492869639396668,-0.1750285587943159
1772793864335444200,2.3024443359375,-0.0752326433777809,-0.03045359045267105,-0.1834919060340151
1772793864345490200,2.312490234375,-0.09653379008173942,-0.03277238878905773,-0.14383492709668352
1772793864355535000,2.32253515625,-0.08229366780519486,-0.02913198646008968,-0.11088509938148781
1772793864365581000,2.3325810546875,-0.052803369426727295,-0.008418284255266188,-0.09056988584180362
1772793864375626000,2.3426259765625,-0.04419862268865108,-0.043970074629783626,-0.08434483731449581
1772793864385671200,2.352671142578125,-0.037376667714118954,-0.07319032389521599,-0.07214133543209172
1772793864395717000,2.362717041015625,0.01862988166809082,-0.037654315611720085,-0.06840142738455907
1772793864405762300,2.37276220703125,0.11890168923437594,0.003025485301017761,-0.10331470979298464
1772793864415808300,2.382808349609375,0.1853530602633953,-0.04495090236067772,-0.11477200555112212
1772793864425853000,2.39285302734375,0.17816461006402967,-0.0980073697656393,-0.11309321301816962
1772793864435898000,2.402898193359375,0.18520576074719428,-0.09291326149702071,-0.1588524086875841
1772793864445944000,2.412944091796875,0.22300562230944632,-0.07334697576165199,-0.18881838002009316
1772793864455989200,2.4229892578125,0.22267361387610435,-0.06180442200601101,-0.18097922909334302
1772793864466034200,2.4330341796875,0.15835808583199976,-0.10872983931005001,-0.14770333862840196
1772793864476080000,2.443080078125,0.07190905191302299,-0.13209551732838154,-0.16397387988716364
1772793864486125000,2.453125,0.05195581268668174,-0.09953063381016254,-0.18567646526517345
1772793864496171000,2.4631708984375,0.07870002722740173,-0.08402911329567432,-0.18454108629338442
1772793864506216000,2.4732158203125,0.105022216963768,-0.06613222207725047,-0.19274932626085356
1772793864516261000,2.48326123046875,0.11630348943471908,-0.08138882791996002,-0.1629413585016504
1772793864526307000,2.49330712890625,0.16923370011150837,-0.09370996483266353,-0.1466623508086428
1772793864536352300,2.503352294921875,0.2105857011973858,-0.09923077408075331,-0.1734150591830723
1772793864546397200,2.513397216796875,0.20760580860376357,-0.10467968713641167,-0.16089111144095658
1772793864556443100,2.523443115234375,0.18426877215802667,-0.09659633392393588,-0.14311291469875723
1772793864566488000,2.533488037109375,0.1697930875599384,-0.05964519814550876,-0.129491892434936
1772793864576534000,2.543533935546875,0.15243863265514374,-0.04806406594514846,-0.12786527761379257
1772793864586579200,2.5535791015625,0.1210603285729885,-0.08268646651506424,-0.15241299589038826
1772793864596624100,2.5636240234375,0.11941548397541045,-0.07038987952172755,-0.13739113038531503
1772793864606670000,2.573670166015625,0.12720073102414609,-0.04130991550981998,-0.11223683365085162
1772793864616715300,2.58371533203125,0.1337257488787174,-0.04558686217665672,-0.07034119067494757
1772793864626761200,2.59376123046875,0.11118132411539554,-0.052989831909537315,-0.05855271760053001
1772793864636806000,2.603805908203125,0.12162497671842575,-0.032194881162047384,-0.06441516162683256
1772793864646851000,2.61385107421875,0.10353110162317752,-0.04557224912941456,-0.059893542316812085
1772793864656897000,2.62389697265625,0.049338908186554904,-0.05232581504285335,-0.0592783649939578
1772793864666942200,2.633942138671875,0.00485328525006771,-0.01769581568837166,-0.061906229279516264
1772793864676987100,2.643987060546875,-0.010993103179335594,0.007379588857293128,-0.044790948858880436
1772793864687033000,2.654033203125,-0.03497136013805866,-0.01273088675737381,-0.05784043201217427
1772793864697078000,2.664078125,-0.03419979124367237,-0.007144611057639121,-0.052121606840798626
1772793864707124000,2.6741240234375,-0.003794716107845306,0.00220423204600811,-0.08824395451173186
1772793864717169200,2.684169189453125,-0.02725157954096794,-0.007725625815987586,-0.08090745587749407
1772793864727214000,2.694214111328125,-0.04300795159935951,-0.00005143792629241943,-0.09668060554075054
1772793864737260000,2.704260009765625,-0.04647065927386283,0.025732407149672506,-0.11315397589523345
1772793864747305200,2.71430517578125,-0.0888315451413393,0.03559153786301612,-0.1149323563451413
1772793864757350100,2.72435009765625,-0.0791413412541151,0.02521978145241737,-0.07868041834463364
1772793864767396000,2.73439599609375,-0.05911036061644554,0.020371172377467155,-0.02053308722419897
1772793864777441000,2.74444091796875,-0.038814591562747955,0.0019189853638410567,-0.04318381962291896
1772793864787487000,2.754487060546875,-0.012322890478372574,-0.0016156185030937193,-0.0891365285704378
1772793864797532200,2.7645322265625,0.018510639202594756,-0.03017301994562149,-0.14564824186265468
1772793864807577000,2.7745771484375,0.01814063684642315,-0.04654021737873554,-0.16948270643651484
1772793864817623000,2.784623046875,0.04127484419643879,-0.03849836522042751,-0.15540825958307833
1772793864827668200,2.794668212890625,0.08523965812921523,-0.02577098559439182,-0.11582905858969315
1772793864837714200,2.804714111328125,0.1317225923627615,-0.023256372424960134,-0.0688208446732955
1772793864847759000,2.814759033203125,0.13986322872042656,-0.039437107375264166,-0.03679077585125342
1772793864857804000,2.824803955078125,0.14154957437217236,-0.059279871964454646,-0.04635513856883626
1772793864867850000,2.83485009765625,0.1434983703523874,-0.05283259552121162,-0.0923774193209596
1772793864877895200,2.844895263671875,0.13506898018121719,-0.06744973441660404,-0.10358341633230447
1772793864887940000,2.854940185546875,0.13186638474762438,-0.05826105031073093,-0.12769180247671902
1772793864897986000,2.864986083984375,0.1366986272096634,-0.06395487803816795,-0.16643521023308858
1772793864908031000,2.875031005859375,0.14594459446072577,-0.06354454367160797,-0.14157635278124361
1772793864918077000,2.885076904296875,0.09976035091280937,-0.08140285644531249,-0.154618314781785
1772793864928122000,2.8951220703125,0.09479892911314963,-0.0907873553842306,-0.16926621414162218
1772793864938167000,2.9051669921875,0.09344692998230457,-0.11087152751386165,-0.1880888601691462
1772793864948213000,2.915212890625,0.08688274916112422,-0.11164894162714481,-0.1821463731765747
1772793864958258200,2.925258056640625,0.09394786524176597,-0.09475099831819533,-0.16679668222293256
1772793864968304000,2.93530419921875,0.08596621883809566,-0.09624445174634456,-0.14727226286791265
1772793864978349300,2.945349365234375,0.0592424625635147,-0.07853811466395855,-0.1024342280308716
1772793864988394000,2.95539404296875,0.057032969820499414,-0.06711480337381362,-0.0619227054902818
1772793864998440000,2.96543994140625,0.04157879557907581,-0.037976971694827076,-0.08789994511334225
1772793865008485000,2.975485107421875,0.057630351191759105,-0.042727381092309946,-0.13168171236310153
1772793865018530000,2.985530029296875,0.0790671069741249,-0.06276596051454544,-0.20163513669632374
1772793865028576300,2.995576171875,0.06459492950737476,-0.10877601653933525,-0.22096054461421444
1772793865038621200,3.00562109375,0.06488894401788711,-0.08145546341538429,-0.20169477619538081
1772793865048667100,3.015667236328125,0.06748012955486773,-0.04671791203320026,-0.16536456706058233
1772793865058712000,3.025712158203125,0.0587023643374443,-0.05864741927981376,-0.08136059733931907
1772793865068757000,3.035757080078125,0.05704115312695503,-0.06421966645419597,-0.038257930360944006
1772793865078803000,3.045802978515625,0.037788171124458314,-0.043240006789565084,-0.062344931224035095
1772793865088848100,3.05584814453125,0.001758241844177246,0.0021539631634950635,-0.09225783892874606
1772793865098894000,3.06589404296875,-0.002719195830821991,0.00947919148504734,-0.08612688929252325
1772793865108939300,3.075939208984375,-0.03615326339900493,-0.01530453663766384,-0.0705838174915174
1772793865118984200,3.085984130859375,-0.030765140619874,-0.010030980148911475,-0.05480941658609081
1772793865129030000,3.09602978515625,-0.04390636174380779,-0.0021866963893175124,-0.051546286604297345
1772793865139075000,3.106074951171875,-0.04422200356423855,0.0037590602725744247,-0.06959560560518875
1772793865149119700,3.11611962890625,-0.055284080326557156,-0.007778232786059379,-0.13192428894732147
1772793865159166000,3.126166015625,-0.04268354195058346,-0.023825112223625183,-0.16492942704632876
1772793865169211000,3.1362109375,-0.005250760135054588,-0.046024669072031975,-0.16595803944170473
1772793865179256800,3.1462568359375,0.024889526584744453,-0.05393851093649864,-0.17968456790661438
1772793865189302000,3.156302001953125,0.05410919132828712,-0.0452829107940197,-0.16003829400390385
1772793865199347000,3.166346923828125,0.08837269545793533,-0.04684299971759319,-0.1521371106916107
1772793865209393200,3.17639306640625,0.09561375262737273,-0.0668196198195219,-0.14023394346265122
1772793865219437800,3.186437744140625,0.09165946204364299,-0.06999941889941692,-0.15498046262506396
1772793865229483000,3.19648291015625,0.07688333319425582,-0.07078560084104538,-0.145834813943319
1772793865239529000,3.206529052734375,0.06666355247497559,-0.058037178426980966,-0.11332661078209057
1772793865249574000,3.216573974609375,0.06460545090138912,-0.059847442719340324,-0.11397508301977068
1772793865259619800,3.226619873046875,0.053508887347579,-0.0706014764457941,-0.12421438129027373
1772793865269665000,3.2366650390625,0.08820552219748497,-0.07736264114379883,-0.13161870273002424
1772793865279710000,3.2467099609375,0.11818448087573051,-0.04854512746036052,-0.11357281322865746
1772793865289756000,3.256755859375,0.1281850658863783,-0.04624970999956131,-0.08776141342548653
1772793865299800800,3.26680078125,0.1204068331003189,-0.05770400094985961,-0.07572155940588564
1772793865309846800,3.2768466796875,0.14534838213324547,-0.03653670975863933,-0.08677832980542444
1772793865319892000,3.28689208984375,0.17352175269424913,-0.03585924888849258,-0.08815629449458792
1772793865329937000,3.29693701171875,0.21173253314495086,-0.030996611288189885,-0.08054268681886606
1772793865339983000,3.306983154296875,0.22584932130277155,-0.04589782782196998,-0.07249213533087168
1772793865350028000,3.317028076171875,0.23321721972227094,-0.04882394440174102,-0.07050983893985394
1772793865360073000,3.327072998046875,0.24907646763324737,-0.052496495434641834,-0.08071721226871013
1772793865370119000,3.337118896484375,0.21686580438017844,-0.04049743008315563,-0.06433377152027096
1772793865380163800,3.347163818359375,0.14543547589480876,-0.028355741390585897,-0.058057700625201686
1772793865390209800,3.357209716796875,0.14279285243153572,-0.008355155891180037,-0.04526878180396743
1772793865400255000,3.3672548828125,0.1183896480590105,0.022912673553824422,-0.03995870639684144
1772793865410300000,3.3772998046875,0.08660393221974372,0.011796236255764961,-0.039328089476260354
1772793865420346000,3.38734619140625,0.0555956304937601,0.014192776003479957,-0.010501764581992756
1772793865430390800,3.397390869140625,0.055578094837069505,0.026498130825161934,-0.025808673556544818
1772793865440436000,3.40743603515625,0.06625555619597434,0.046045127338171,-0.021612934333179144
1772793865450482000,3.41748193359375,0.07385434076189995,0.029995909813046454,-0.02478064111648127
1772793865460526800,3.42752685546875,0.06343523807823657,-0.0002466682374477386,-0.03723876164734829
1772793865470573000,3.437572998046875,0.07199789924025535,0.006384732601046562,-0.04973925088206306
1772793865480618000,3.447617919921875,0.08772679876983165,0.02175122855901718,-0.06430700224435422
1772793865490663200,3.4576630859375,0.06190320620536804,-0.010426701468229294,-0.07131815051489974
1772793865500708900,3.467708984375,0.03422960186004639,-0.054445291414856906,-0.07860657679028808
1772793865510753800,3.47775390625,0.03111877636313438,-0.03552607141137123,-0.11320671072946861
1772793865520799000,3.487799072265625,0.008317746490240096,-0.03661269760429859,-0.11067430617501958
1772793865530845000,3.497844970703125,0.019125556230545043,-0.04870528645813465,-0.1134544018802233
1772793865540889900,3.507889892578125,-0.030387539479136465,-0.06036532911360264,-0.1367892555020284
1772793865550936000,3.51793603515625,-0.08772679876983165,-0.05650397751033306,-0.14927959323548712
1772793865560981000,3.52798095703125,-0.08924071046411991,-0.030668109986186024,-0.15446089573036878
1772793865571026000,3.53802587890625,-0.06578150894343852,-0.0293751475661993,-0.1437142781253904
1772793865581072000,3.54807177734375,-0.014328969603776932,-0.0496048656463623,-0.08627631683372892
1772793865591116800,3.55811669921875,0.036897944286465645,-0.10542670611143111,-0.10150023511638864
1772793865601163000,3.5681630859375,0.11093056422471999,-0.11963584872782229,-0.13564396705757825
1772793865611208000,3.5782080078125,0.22696868072152138,-0.0989092870414257,-0.18411376425940543
1772793865621253000,3.588253173828125,0.27179917157292366,-0.1053092172116041,-0.18380005866773425
1772793865631299000,3.598299072265625,0.2498807697534561,-0.13208616497814654,-0.1859802157184109
1772793865641343700,3.60834375,0.2280512152612209,-0.10734510695338248,-0.18052118312753737
1772793865651389000,3.618388916015625,0.21711188809573648,-0.07738017680048942,-0.15891453240467235
1772793865661435000,3.628434814453125,0.13622633352279662,-0.07934300130605697,-0.08920262520974502
1772793865671480000,3.63847998046875,0.086230422732234,-0.0695604429602623,-0.04858294785325415
1772793865681526000,3.648526123046875,0.05810498296618461,-0.037926118290424346,-0.07892811862854286
1772793865691571000,3.658571044921875,0.048802317091822624,-0.05214812038838863,-0.10138579669017345
1772793865701616000,3.6686162109375,0.01272387249469757,-0.07272738255858421,-0.12800653098169715
1772793865711662000,3.678662109375,0.018960136535763738,-0.045563481301069256,-0.1469319523971062
1772793865721706800,3.688706787109375,0.03264437849521637,-0.020844635108113286,-0.16254753687847404
1772793865731752000,3.698751953125,0.022197218760848045,-0.04076104945540428,-0.11699413858000188
1772793865741798000,3.7087978515625,0.020032149681448935,-0.020460604226589203,-0.100822463718988
1772793865751843000,3.718843017578125,0.04152560408711433,0.00634556963443756,-0.10921122048567049
1772793865761889000,3.728888916015625,0.03912964886128902,0.00765489866733551,-0.09401819966477341
1772793865771934000,3.738933837890625,0.0194236623942852,-0.01565700333714485,-0.07635186579921283
1772793865781979000,3.748978759765625,0.031401100435853,-0.004559855261445045,-0.09151681130309589
1772793865792024800,3.75902490234375,0.03785129948854446,0.006105331137776375,-0.07283151878649369
1772793865802070000,3.769070068359375,0.036296471261978144,0.02885024690926075,-0.038449521110020576
1772793865812115000,3.779114990234375,0.010219196197390555,0.019478022930026054,-0.040401440629083664
1772793865822161000,3.789160888671875,-0.015504443123936652,0.03410042252242565,-0.06730075439997017
1772793865832206000,3.7992060546875,-0.04202946195602417,0.02439560558795929,-0.07445153033691458
1772793865842252000,3.809251953125,-0.025032734447717666,0.0021750059515237806,-0.1036274381371215
1772793865852296700,3.819296630859375,0.03640343876779079,-0.011001286485791205,-0.11666336312252096
1772793865862342000,3.829341796875,0.07444704595804214,-0.05649520968198776,-0.1083493338261731
1772793865872387800,3.839387939453125,0.07687222727835177,-0.08495090431571006,-0.10142045701160095
1772793865882433000,3.84943310546875,0.12920739467144013,-0.050617842081189156,-0.12940805920953863
1772793865892478000,3.85947802734375,0.12513152353465556,-0.054524786391854284,-0.1321883558441419
1772793865902524000,3.86952392578125,0.09184943165779114,-0.08667641293406486,-0.10661875630705617
1772793865912569000,3.879569091796875,0.07065349889397621,-0.07866437139213085,-0.09027076589791104
1772793865922615000,3.889614990234375,0.10804302608966827,-0.0425596233099699,-0.0850539536982309
1772793865932660000,3.899659912109375,0.12014438277184962,-0.07937807261943816,-0.12410264627779834
1772793865942705000,3.909704833984375,0.06599544395506382,-0.10789981822669506,-0.1767703609603457
1772793865952750800,3.919750732421875,0.04283142598867416,-0.12887187910676,-0.22048046947969122
1772793865962796000,3.929796142578125,0.045563481301069256,-0.11441665277481078,-0.21630395098002625
1772793865972842000,3.939842041015625,0.020837036323547362,-0.12815876240134239,-0.18290899157952517
1772793865982887000,3.949886962890625,-0.011763503029942512,-0.12514905919134617,-0.17927163972416893
1772793865992931800,3.959931884765625,-0.03580664191842079,-0.13411153332591055,-0.24329273313265293
1772793866002977800,3.969977783203125,-0.079285133638978,-0.11540391024649142,-0.33655575791541487
1772793866013023000,3.98002294921875,-0.07006546987295151,-0.125203419727087,-0.40687706571295856
1772793866023068000,3.99006787109375,-0.12105272978842258,-0.14764672220349312,-0.46173203390724954
1772793866033112000,4.000112060546875,-0.14430734864771366,-0.12927461468875406,-0.47812524256445466
1772793866043158000,4.010157958984375,-0.15531506487429142,-0.10327332746982573,-0.4733290577964857
1772793866053203000,4.020202880859375,-0.09291443054080009,-0.09481529572606086,-0.4187630626114085
1772793866063249000,4.030248779296875,0.03131926737129688,-0.08762158482968807,-0.35738610876984894
1772793866073293800,4.0402939453125,0.19179566053152083,-0.0496615642696619,-0.3332687721339986
1772793866083339000,4.050339111328125,0.33454759643077847,-0.041755321189761156,-0.23785308109568432
1772793866093385000,4.060385009765625,0.44459670164585113,-0.053506549260020256,-0.1231814489128068
1772793866103430100,4.07043017578125,0.4935843121767044,-0.04341302526891231,-0.04971571930942591
1772793866113474800,4.080474853515625,0.48336686954498287,0.006697451812028884,0.0077507830901304255
1772793866123520800,4.090520751953125,0.46261108176410193,0.057874096819758414,0.0762460353711387
1772793866133566000,4.10056591796875,0.4833674540668726,0.0860083044141531,0.14808316825884393
1772793866143612000,4.11061181640625,0.5432558133184909,0.13596505223810673,0.2399031272269785
1772793866153656800,4.12065673828125,0.5359937133610249,0.14584464121758936,0.2943367282040417
1772793866163702000,4.130701904296875,0.49377545083463187,0.15703765088319777,0.3563832153376192
1772793866173748000,4.140748046875,0.46839317229688165,0.1967734489440918,0.3806908869137987
1772793866183793000,4.15079296875,0.41891339433491226,0.20776012238264083,0.44535621477626264
1772793866193837800,4.160837890625,0.35950609659850596,0.22808044135570524,0.48951731846611946
1772793866203883800,4.1708837890625,0.29334464842677116,0.2279606143683195,0.5614022588511929
1772793866213929000,4.180928955078125,0.2187058792889118,0.19822832392752168,0.5419925153844058
1772793866223975000,4.190974853515625,0.18807693226933478,0.18146072899997234,0.4404373900093138
1772793866234020000,4.20102001953125,0.20420739833712576,0.13052139987945555,0.3524549359779805
1772793866244065000,4.21106494140625,0.20627602130472658,0.09912205300927161,0.28457070086793973
1772793866254111000,4.221111083984375,0.1965472389727831,0.09288286635875702,0.22211923139635473
1772793866264156000,4.231156005859375,0.17782558736801146,0.07281096918880939,0.16003312463844194
1772793866274200800,4.241200927734375,0.09584756138324738,0.045668695241212844,0.09927801075596361
1772793866284247000,4.2512470703125,-0.0069242463052272794,0.05034837749004364,0.05546059680408798
1772793866294292000,4.2612919921875,-0.08757131594717502,0.060767480173707006,0.022346043513854965
1772793866304338000,4.271337890625,-0.179905900773406,0.040081250497698784,-0.024525515577942133
1772793866314383000,4.281383056640625,-0.261802093693614,0.015060791009664535,-0.06357708510118536
1772793866324427800,4.291427734375,-0.3332978886306286,-0.002234627184271812,-0.13811450362326577
1772793866334473700,4.3014736328125,-0.40551381453573704,-0.045321489238739014,-0.21663922908268868
1772793866344519000,4.311518798828125,-0.4488964446663856,-0.07409633282423018,-0.2894163873334415
1772793866354563800,4.321563720703125,-0.47829731119573116,-0.10709259349703788,-0.38719738273099064
1772793866364610000,4.331610107421875,-0.5002203891903162,-0.1333995856642723,-0.47686340593509374
1772793866374655000,4.341655029296875,-0.49728199765086173,-0.16436989346742628,-0.566208928480558
1772793866384701000,4.351700927734375,-0.45068975782394405,-0.2037140618622303,-0.5651259920820594
1772793866394745900,4.361745849609375,-0.3637222529888153,-0.26154315049648286,-0.526815185322985
1772793866404790800,4.371790771484375,-0.26101123557686806,-0.2801356227636337,-0.5017554167378694
1772793866414837800,4.381837646484375,-0.14520926592350006,-0.30400574317276474,-0.48326070575676855
1772793866424883000,4.391883056640625,-0.0570335543423891,-0.29738194111883637,-0.4476892973663285
1772793866434929000,4.401928955078125,0.040595045238733286,-0.2849398081749677,-0.4595793859180063
1772793866444973800,4.411973876953125,0.10688917987942695,-0.29065760129988194,-0.4380391332285479
1772793866455020000,4.42202001953125,0.15434651210308073,-0.2898077064722776,-0.3887836290091276
1772793866465065000,4.43206494140625,0.18410919768214223,-0.265392227140069,-0.34681386135108766
1772793866475110100,4.442110107421875,0.20794775390923023,-0.23752573057115076,-0.32266474133748557
1772793866485155800,4.45215576171875,0.1812584844261408,-0.20335516542196272,-0.3122619687341153
1772793866495200800,4.46220068359375,0.13952479054629802,-0.17868775715529917,-0.26230514784492553
1772793866505246000,4.472245849609375,0.09862988557815551,-0.1507493643939495,-0.23600076775988563
1772793866515292000,4.4822919921875,0.08487199386060237,-0.11575988407731055,-0.23675235331216826
1772793866525337000,4.492337158203125,0.06627542994022369,-0.1043774893194437,-0.214755716891028
1772793866535383000,4.502383056640625,0.02347439908981323,-0.07585749727785587,-0.19530847269175572
1772793866545428000,4.512427978515625,-0.012356792747974394,-0.020226795470714567,-0.157128178710863
1772793866555473000,4.522472900390625,-0.05293196424245834,0.008812252008914946,-0.09963957407735287
1772793866565518800,4.532518798828125,-0.05488660544157028,0.04074409832060337,-0.05471912165386602
1772793866575564000,4.54256396484375,-0.03439209894537926,0.07056582061052322,-0.017857709985505787
1772793866585609000,4.55260888671875,0.016703882041573522,0.10037877507209778,0.00949754912564531
1772793866595655000,4.562655029296875,0.04019640130996704,0.08047580472826957,0.02870722170937806
1772793866605700000,4.5727001953125,0.059496145063638685,0.0916460180401802,0.036099103792663664
1772793866615746000,4.58274609375,0.06199088448882103,0.10301146166324615,0.02824289213325828
1772793866625790700,4.592790771484375,0.12063245854973792,0.12343582553267478,0.001647986402735114
1772793866635836000,4.6028359375,0.11861936516165733,0.09485679678022861,0.022011158136837183
1772793866645881900,4.6128818359375,0.07012976728081703,0.08400456337630748,0.007713250391604379
1772793866655927000,4.622927001953125,0.04606967725753784,0.11726561246514319,0.03578999217771925
1772793866665972000,4.632971923828125,0.06774491797089577,0.12615794397294522,0.047277043753303584
1772793866676018000,4.643017822265625,0.11018237620592117,0.06583236234784126,0.07208256358271464
1772793866686063000,4.65306298828125,0.08462123396992682,0.037082653203606604,0.07641020839032717
1772793866696108800,4.66310888671875,0.05513444272279739,0.019230770170688628,0.007895867816358804
1772793866706154000,4.673154052734375,0.08849836766421794,0.03441664886474609,-0.042204937253938986
1772793866716199000,4.683198974609375,0.10922083769738673,0.007590601259469985,-0.07486344473920763
1772793866726244900,4.693244873046875,0.14079320304691792,-0.021297639572620392,-0.03499346237201244
1772793866736290000,4.7032900390625,0.16607435929775238,-0.03023264117836952,-0.02357634336063638
1772793866746335000,4.7133349609375,0.20619360371828077,-0.027223522490262983,-0.03333615101850591
1772793866756381000,4.723380859375,0.19150339958667753,-0.0464373415261507,-0.05765943115577101
1772793866766425900,4.73342578125,0.12622282590270043,-0.08500818746089935,-0.0445847450625617
1772793866776471800,4.743471923828125,0.1330950497597456,-0.09152268392145634,-0.03455009338553063
1772793866786517000,4.75351708984375,0.12900281201004982,-0.09645020345151424,-0.07913269215677865
1772793866796562000,4.76356201171875,0.0804132608860731,-0.13469897782504558,-0.1231702516653575
1772793866806608000,4.77360791015625,0.041323359513282774,-0.1358440562069416,-0.13243856774554588
1772793866816653000,4.783653076171875,0.016855273211002348,-0.12289105113148689,-0.19264153677113352
1772793866826697700,4.79369775390625,-0.02080196501016617,-0.1324409697651863,-0.21038247024286538
1772793866836744000,4.803743896484375,-0.035551205852627756,-0.12251871068775654,-0.2026427428362891
1772793866846788900,4.813788818359375,-0.014707739788293837,-0.12489128503799438,-0.1935661773353815
1772793866856834800,4.823834716796875,-0.0002922609448432922,-0.11386603315472602,-0.21981373093295842
1772793866866880000,4.8338798828125,0.017649638459086417,-0.1130564703375101,-0.21511077740639448
1772793866876925000,4.843925048828125,0.05925941369831562,-0.10904314304292201,-0.1950735131584108
1772793866886971000,4.853970947265625,0.08483049280643462,-0.0986217022716999,-0.16061001121094448
1772793866897016000,4.86401611328125,0.10217851797044276,-0.1180535479724407,-0.11973708061259239
1772793866907060700,4.874060791015625,0.10634323643445968,-0.08485738081336021,-0.10328272548583335
1772793866917107000,4.88410693359375,0.12223521757125853,-0.08904372658729552,-0.10695774247045628
1772793866927151900,4.89415185546875,0.12142273214459419,-0.07496785496175289,-0.12071700416118837
1772793866937197800,4.90419775390625,0.10643559089303016,-0.08210545175671577,-0.17348006897699086
1772793866947243000,4.914242919921875,0.08608779939115047,-0.08644085061252117,-0.17247253590226172
1772793866957288000,4.924287841796875,0.08492810796201229,-0.07570201445519924,-0.1639338401377201
1772793866967334100,4.934334228515625,0.08506079443097114,-0.04235445612668991,-0.1491139634781517
1772793866977378800,4.94437890625,0.06861059488952159,-0.02578793672919273,-0.11153964516692794
1772793866987424000,4.954424072265625,0.07356792503595352,-0.011774608945846556,-0.08748192063067108
1772793866997470000,4.964469970703125,0.09762743053734302,0.026111177334189415,-0.059951487615704534
1772793867007515000,4.974514892578125,0.13133973052501677,0.02593231363594532,-0.04148945506149903
1772793867017560800,4.984560791015625,0.1623871952176094,0.026993805387616157,-0.009231573399528861
1772793867027606000,4.99460595703125,0.23119009780883787,0.04657178156077862,0.005982663739332929
1772793867037651000,5.00465087890625,0.27233108649253845,0.06741232501566409,0.05264340222519822
1772793867047697000,5.01469677734375,0.282238732522726,0.05767302128970623,0.10143951790509745
1772793867057741800,5.024741943359375,0.27353870871663094,0.07758125233054161,0.11670005100425332
1772793867067787000,5.034787109375,0.2846504698395729,0.11727145768404006,0.12015766237853094
1772793867077833000,5.0448330078125,0.24882103156745433,0.13073124323785304,0.12974414102979934
1772793867087878000,5.0548779296875,0.17745500048995017,0.09220599001049995,0.14396223413762635
1772793867097924000,5.064924072265625,0.12296703897714614,0.104220252931118,0.13167522782338784
1772793867107969000,5.074968994140625,0.08510989426970482,0.1286374858289957,0.10784728432185947
1772793867118014000,5.085013916015625,0.024784897166490554,0.11602934866845607,0.0950913179221563
1772793867128059600,5.0950595703125,-0.038543957927823065,0.08167290555834769,0.05252608685530722
1772793867138104600,5.1051044921875,-0.08506430156230926,0.07299450906217098,-0.015807371593266725
1772793867148149800,5.115149658203125,-0.1334738199442625,0.06381868443787098,-0.07415551566556096
1772793867158195700,5.12519580078125,-0.17681144188940523,0.05680559080541134,-0.1251392319170758
1772793867168241000,5.135240966796875,-0.20234160446524618,0.03276186739504337,-0.14072053966950623
1772793867178286800,5.145286865234375,-0.2001110689342022,0.003620528584718704,-0.1539317207571119
1772793867188331800,5.155331787109375,-0.15951017847657203,-0.009815291571617125,-0.15424926227368413
1772793867198376700,5.165376708984375,-0.1453998200595379,-0.07393617382645606,-0.15051243209922685
1772793867208422700,5.175422607421875,-0.08554419403374194,-0.10379004482030868,-0.1469505931654945
1772793867218467800,5.1854677734375,-0.03388765655457973,-0.13920038089752196,-0.14465054519535042
1772793867228512800,5.1955126953125,-0.0014390928924083708,-0.1534989553630352,-0.15140146249397657
1772793867238558700,5.205558837890625,0.04223930531442165,-0.17393325610458849,-0.17306743305549024
1772793867248604000,5.21560400390625,0.07174889291524887,-0.17079086642563343,-0.19006810608655214
1772793867258649900,5.22564990234375,0.084714172950387,-0.1680038660556078,-0.19803585182903333
1772793867268694500,5.235694580078125,0.08943827886283397,-0.16558686804175377,-0.18407164215072988
1772793867278739700,5.24573974609375,0.08562076640129089,-0.16149638385772705,-0.18621795173073186
1772793867288785700,5.25578564453125,0.07864274408221245,-0.15209727187156677,-0.17366194661622866
1772793867298830800,5.265830810546875,0.0680921239733696,-0.13472002061307428,-0.16471348274070768
1772793867308875800,5.275875732421875,0.0725707306921482,-0.11340601442754268,-0.15617085971971972
1772793867318921700,5.285921630859375,0.07993453745841979,-0.09232114082276821,-0.15627316931672394
1772793867328966700,5.295966552734375,0.09367840065062046,-0.06047638827264309,-0.1363101941476576
1772793867339012600,5.3060126953125,0.12007657823264598,-0.04290039957165718,-0.14385860023321584
1772793867349057800,5.316057861328125,0.13764555267095566,-0.02998480389714241,-0.1309547954611946
1772793867359102700,5.326102783203125,0.14938684386909007,-0.024134324303269384,-0.09912920426926575
1772793867369148700,5.336148681640625,0.17254910826981065,-0.0009106851041316985,-0.10278919721469283
1772793867379193900,5.34619384765625,0.20904256340861319,0.0302946004986763,-0.061539779720455406
1772793867389238800,5.35623876953125,0.2067068139374256,0.049826983964443204,-0.01789216024437919
1772793867399284700,5.36628466796875,0.22132219926714897,0.06450432861447333,-0.006533822215534746
1772793867409329700,5.37632958984375,0.20802958697378635,0.08585048350393772,0.022068697010353206
1772793867419375600,5.386375732421875,0.1882026044756174,0.0805225664794445,0.054619332807511085
1772793867429420800,5.3964208984375,0.1623737512141466,0.06405775389075279,0.028303709809249265
1772793867439465700,5.4064658203125,0.14550211139023303,0.06955342869758606,0.033271762279095125
1772793867449511700,5.41651171875,0.1353553959071636,0.07851707187592982,0.005128969519445672
1772793867459556900,5.426556884765625,0.12618074032664298,0.06096914022564888,-0.010043876163102686
1772793867469601500,5.4366015625,0.10200783757865428,0.057141106370091434,-0.05333240740266628
1772793867479647700,5.446647705078125,0.08854103776216507,0.027545594051480292,-0.05710859233997762
1772793867489692700,5.456692626953125,0.08516016315221786,0.029316110855340957,-0.0694425430684816
1772793867499738600,5.466738525390625,0.10325228468179702,-0.002379588612914085,-0.08234369009253568
1772793867509783800,5.47678369140625,0.08478314653337002,-0.009950316128134728,-0.07343775931764393
1772793867519828700,5.486828857421875,0.0681359631150961,-0.03268003433048725,-0.10271737408749759
1772793867529874700,5.496874755859375,0.08318214107751846,-0.04781272153258324,-0.1278346815461293
1772793867539919600,5.506919677734375,0.06873042187690734,-0.07017652903199195,-0.11384978527282363
1772793867549964500,5.516964599609375,0.060277650830149646,-0.07572013463377952,-0.11075094247465021
1772793867560010800,5.5270107421875,0.049152445703744885,-0.12662146983146666,-0.15068127672695553
1772793867570055700,5.5370556640625,0.027390695750713345,-0.1478214942485094,-0.17486578771434724
1772793867580100900,5.547100830078125,-0.005063713130354881,-0.1552156961530447,-0.1918576929170638
1772793867590146800,5.557146728515625,-0.011102408772706985,-0.16195055736601352,-0.2131034744382836
1772793867600191700,5.567191650390625,-0.005730652606487274,-0.16472060660123825,-0.1876900883762166
1772793867610238000,5.577238037109375,-0.015015782824158668,-0.1719073032349348,-0.18745933009395374
1772793867620282600,5.58728271484375,-0.012402385455369948,-0.16792729368805884,-0.1752052122691646
1772793867630327800,5.597327880859375,-0.0103349315315485,-0.14800211151242254,-0.21081404832685366
1772793867640373800,5.607373779296875,-0.00027706337571144104,-0.13414251298606394,-0.1998360696514137
1772793867650418700,5.617418701171875,0.00905307502746582,-0.12680208709537982,-0.19761640257425606
1772793867660463900,5.6274638671875,0.0027028292179107666,-0.09814356336593627,-0.1896096765282564
1772793867670509800,5.637509765625,-0.004179331511259079,-0.08796119204759598,-0.16376257522404192
1772793867680554800,5.6475546875,-0.010649988830089569,-0.06037292789816856,-0.1534434988487512
1772793867690600700,5.6576005859375,-0.0148836808770895,-0.029577976661920545,-0.13715342177245765
1772793867700645600,5.667645751953125,-0.019491466933488844,-0.018664952981472013,-0.12035296575492248
1772793867710690800,5.67769091796875,-0.003896422916650772,-0.019342413851618764,-0.13362893744073806
1772793867720736800,5.68773681640625,0.011177227574586867,0.015151976424455642,-0.13035595278521067
1772793867730781700,5.69778173828125,0.010320318484306335,0.03450841880142688,-0.10257891546487807
1772793867740827000,5.707826904296875,0.015147884771227835,0.04181786503195763,-0.06934646228286437
1772793867750872600,5.71787255859375,0.025179449442028996,0.05472527740001678,-0.07171845211121253
1772793867760917800,5.727917724609375,0.07115618771910667,0.060575756993889805,-0.04529634566432796
1772793867770963700,5.737963623046875,0.1174614272981882,0.06362988386750221,-0.010419586740853264
1772793867781008600,5.748008544921875,0.15489537815749643,0.05721358708441257,-0.018661025725025683
1772793867791053800,5.7580537109375,0.15979133350551128,0.040599136891961096,-0.02177396098063327
1772793867801099800,5.768099853515625,0.15382394953370093,0.03968436013460159,-0.027762543004099277
1772793867811144700,5.778144775390625,0.15305530324876307,0.026008301481604573,-0.028875719277234747
1772793867821189600,5.788189697265625,0.14971125351786613,0.016478256592154503,-0.028686361584439872
1772793867831235600,5.798235595703125,0.1583043098181486,0.029787820020318028,-0.007514494682801887
1772793867841280800,5.80828076171875,0.13883856184780596,0.020844635108113286,0.01668959778789431
1772793867851326700,5.81832666015625,0.10830664546191691,0.004582651615142822,0.005034806696278974
1772793867861371600,5.82837158203125,0.06289923150539398,0.005901332998275757,-0.022455102512054143
1772793867871416800,5.838416748046875,0.04866553896963596,0.0003162263423204422,-0.03199884713329375
1772793867881462800,5.848462890625,0.012190788531303405,-0.020728899773955343,-0.044961031029047444
1772793867891507700,5.8585078125,0.026088380980491637,-0.030642975544929504,-0.062185996068967506
1772793867901552600,5.868552734375,0.032550270470976826,-0.042563714963197705,-0.09904151685265823
1772793867911598600,5.8785986328125,-0.002809212201833725,-0.03997545203566551,-0.1407170964702498
1772793867921643800,5.888643798828125,-0.0015244330883026121,-0.07683072622418403,-0.21578666737396268
1772793867931688700,5.898688720703125,0.05478314506709575,-0.12264964359104633,-0.3165576566340402
1772793867941735000,5.90873486328125,0.09728256262242793,-0.16607845095098017,-0.34701946692578495
1772793867951779800,5.91877978515625,0.09085749801099299,-0.17797288688421248,-0.3160100692212581
1772793867961825800,5.92882568359375,0.07990531136393547,-0.14104805459082126,-0.23909783872608095
1772793867971870700,5.93887060546875,0.03034779199063778,-0.0881125832170248,-0.15621161185521631
1772793867981915600,5.94891552734375,-0.007639116576313972,-0.06424772350490093,-0.09053018401907756
1772793867991961600,5.958961669921875,-0.05241173976063728,-0.07152443650960921,-0.05944536472447216
1772793868002006800,5.9690068359375,-0.10305354723930359,-0.07429331670105457,-0.03425166756138205
1772793868012051700,5.9790517578125,-0.14661679463386534,-0.05746142436563968,-0.07561994392862544
1772793868022098000,5.989097900390625,-0.13492752588391302,-0.02175122855901718,-0.12538392739314586
1772793868032142600,5.999142578125,-0.10636018756926059,-0.009422492861747742,-0.1745597539724782
1772793868042188500,6.0091884765625,-0.09007482320070266,0.0036111762344837187,-0.17747693832712247
1772793868052233700,6.019233642578125,-0.0825093563824892,0.021197101807594296,-0.15453699317388236
1772793868062278700,6.029278564453125,-0.06900222455561161,0.0757604666441679,-0.1562711782890372
1772793868072324900,6.039324951171875,-0.0442851319283247,0.0638742140173912,-0.14024375247061252
1772793868082369800,6.049369873046875,0.004259411010146141,0.009532382977008818,-0.09275132153411396
1772793868092414700,6.059414794921875,0.07576748090684414,0.014528291568160056,-0.06124781103655696
1772793868102460700,6.069460693359375,0.15367957262694834,0.008268646651506423,-0.07238363802167587
1772793868112505600,6.079505615234375,0.18384791639745235,-0.020174188500642776,-0.07295037765949965
1772793868122551600,6.089551513671875,0.15272387933731077,-0.0375882646381855,-0.09890662929345853
1772793868132596700,6.0995966796875,0.18553893822431564,-0.049643444091081616,-0.11763359639416449
1772793868142641700,6.1096416015625,0.15741408298015594,-0.06574176145493983,-0.0964671728526242
1772793868152687900,6.11968798828125,0.14996668958365916,-0.07899170365035534,-0.08449100431953556
1772793868162732800,6.12973291015625,0.14801029481887817,-0.06996785471737385,-0.08421555751217528
1772793868172777700,6.13977783203125,0.10489069953858851,-0.07972703218758105,-0.040419442076655106
1772793868182823700,6.14982373046875,0.0954582698047161,-0.05864625023603439,-0.05239758337112144
1772793868192868600,6.15986865234375,0.11948504208028315,-0.05006020819842815,-0.0634852375326911
1772793868202914800,6.169914794921875,0.153473236399889,-0.04023614879846572,-0.04934933368244674
1772793868212959700,6.179959716796875,0.16426467952728271,-0.044373979255557056,-0.04604885823179502
1772793868223005000,6.1900048828125,0.16683423775434494,-0.03663549395799637,-0.06395187323032878
1772793868233051000,6.20005078125,0.1712923862069845,-0.029102175843715668,-0.06386804000493139
1772793868243095600,6.210095458984375,0.16027707119584084,-0.030314474242925642,-0.0588858905110741
1772793868253140700,6.220140625,0.15114683927893638,-0.028282676154375075,-0.042301524929632434
1772793868263186700,6.230186767578125,0.11042553731203078,-0.012558452799916266,-0.037033361568627875
1772793868273232000,6.24023193359375,0.08098141616284847,0.0006511573851108551,-0.03514626461381558
1772793868283276800,6.25027685546875,0.060032736158370965,0.002190203520655632,-0.029917364684119818
1772793868293322800,6.26032275390625,0.03362228361666202,-0.007240472647547722,-0.027073688523680903
1772793868303367700,6.27036767578125,-0.014098667979240417,0.010972644913196564,-0.035685988380550406
1772793868313413600,6.28041357421875,-0.03007891192138195,0.023687749579548834,-0.07928741692760959
1772793868323458600,6.29045849609375,-0.03628361178040504,0.012047580668330192,-0.08602800462846644
1772793868333503700,6.300503662109375,-0.06762918263673783,0.021173136410117147,-0.0787820155555848
1772793868343549700,6.3105498046875,-0.11862228777110576,0.016422727012634277,-0.11158391356691717
1772793868353595000,6.320594970703125,-0.11462474256753921,0.024551672932505608,-0.0833380440252833
1772793868363639800,6.330639892578125,-0.07451485049724578,0.03056289604604244,-0.06949892203137278
1772793868373685800,6.340685791015625,-0.036461306434869764,0.023821605092287063,-0.0048071308536687864
1772793868383730700,6.350730712890625,-0.024596096596121785,0.02018354085087776,-0.03017469131289981
1772793868393776600,6.360776611328125,-0.02566168000102043,-0.02051554928421974,-0.07310343106305227
1772793868403821800,6.37082177734375,-0.07919336370229721,-0.04455810365080833,-0.12670805213637648
1772793868413866800,6.38086669921875,-0.1339654028534889,-0.013147066342830657,-0.1608409704226069
1772793868423912700,6.39091259765625,-0.16240356183052063,0.011850596791505814,-0.14969952654745428
1772793868433958000,6.4009580078125,-0.16200141077041624,0.025042671319842336,-0.09908092641443945
1772793868444002600,6.41100244140625,-0.13846388331651688,0.016534370693564414,-0.08938767205360346
1772793868454048500,6.421048583984375,-0.1069043774485588,-0.0024912322938442227,-0.12224437812524847
1772793868464093700,6.43109375,-0.09131693221628666,-0.021700375154614447,-0.12171401584190315
1772793868474139600,6.4411396484375,-0.054237201622128486,0.009789572608470916,-0.11901219127099029
1772793868484184800,6.451184814453125,-0.020033903247117995,0.007998013016581535,-0.0895133899256587
1772793868494229800,6.461229736328125,0.03427168743610382,0.003336450946331024,-0.058858792441594414
1772793868504275700,6.471275634765625,0.09039806380569934,0.0038882396101951595,-0.005220557934680255
1772793868514320600,6.481320556640625,0.10643909802436828,0.0072784665703773494,-0.0037840628539124736
1772793868524365600,6.491365478515625,0.10178279665112495,0.008459785309433936,-0.01923828904015245
1772793868534411800,6.501411865234375,0.0924041429311037,-0.011360767447948455,-0.04820510468392167
1772793868544456700,6.511456787109375,0.0781219350785017,-0.03997545203566551,-0.06785678084753453
1772793868554502000,6.521501953125,0.0385381127089262,-0.03312777809798717,-0.09346641100090927
1772793868564547800,6.5315478515625,0.009068857118487358,-0.022130583265423772,-0.11675488646402954
1772793868574592800,6.5415927734375,0.04185761252045631,-0.014514847564697266,-0.12688736335919237
1772793868584638700,6.551638671875,0.02869067243337631,-0.04363748167455196,-0.09306261597299016
1772793868594683600,6.56168359375,0.07103402264416217,-0.04923194068074226,-0.08616056323326192
1772793868604728600,6.571728515625,0.09527940610647201,-0.01113572652041912,-0.07617568724839947
1772793868614774800,6.58177490234375,0.08492401630878448,-0.026572949627041816,-0.09856548770559019
1772793868624819700,6.59181982421875,0.06259937177598476,-0.04994388834238052,-0.11699445824041031
1772793868634865000,6.601864990234375,0.05702887816727161,-0.046963411226868625,-0.14044570478349924
1772793868644910800,6.611910888671875,0.07660393173098563,-0.03859598037600517,-0.11060796294054016
1772793868654955500,6.62195556640625,0.09855915842950344,-0.025267712247371673,-0.08894809332625009
1772793868665001700,6.632001708984375,0.09914251127541064,-0.0008797054439783096,-0.07814908794690854
1772793868675046700,6.642046630859375,0.13963643422722816,0.001404021579027176,-0.08006411865483969
1772793868685091800,6.652091796875,0.16764438509345053,0.008377367722988128,-0.04571667170193977
1772793868695137800,6.6621376953125,0.20162848775982856,0.001723170530796051,-0.025017148719518444
1772793868705182700,6.6721826171875,0.18882044411301613,0.005917115089297294,-0.005987278265657369
1772793868715228000,6.682227783203125,0.1722042403548956,0.02135784532725811,-0.021890598213800693
1772793868725273900,6.69227392578125,0.15962240667939184,0.014914076015353201,-0.0579435818593949
1772793868735318800,6.70231884765625,0.1511024156153202,0.013654431343078612,-0.03157917411623057
1772793868745363700,6.71236376953125,0.12508359273970127,0.008771919998526573,0.005564597015822073
1772793868755409700,6.72240966796875,0.11220599098801612,0.008234744381904602,-0.01525769953796407
1772793868765454800,6.732454833984375,0.14268646944761276,0.018626959058642385,-0.0453163198732771
1772793868775500800,6.742500732421875,0.16900222944319246,0.00981470704972744,-0.053379666910762895
1772793868785545700,6.752545654296875,0.16716858427524567,-0.0008107318609952926,-0.04665418088091537
1772793868795590700,6.762590576171875,0.18864099589288233,0.005772738182544708,-0.027321998445654753
1772793868805636600,6.77263671875,0.17393033349514006,0.013784195202589035,0.012549883617681916
1772793868815681800,6.782681884765625,0.1718336534768343,0.017079729616641996,0.021532345660927238
1772793868825726700,6.792726806640625,0.13182605273723602,0.003177460992336273,-0.01079512949688942
1772793868835772700,6.802772705078125,0.10627367832958698,-0.028981179812550543,-0.10767790997116826
1772793868845817900,6.81281787109375,0.1118365731537342,-0.08557108204066753,-0.23292671234309673
1772793868855863800,6.82286376953125,0.11374152999222278,-0.0747539199501276,-0.31991540609672664
1772793868865908700,6.83290869140625,0.05686228942871093,0.009299743264913559,-0.24248936259420587
1772793868875953700,6.84295361328125,-0.016598668101429938,0.05168225644230842,-0.10053237646492197
1772793868885999600,6.85299951171875,-0.06659691697955131,0.01368073482811451,-0.003526526733400533
1772793868896044800,6.863044921875,-0.12141279527246951,-0.026033435922861097,-0.005538758180022705
1772793868906089700,6.87308984375,-0.11677812120914459,-0.006822539496421813,-0.08357324102064594
1772793868916135700,6.8831357421875,-0.07164952419400215,0.028749124622344968,-0.14160052824127486
1772793868926180900,6.893180908203125,-0.029932196927070616,0.009067688074707984,-0.10506797406794503
1772793868936226800,6.903226806640625,0.02535714409649372,-0.003088613665103912,-0.0757168010323774
1772793868946271700,6.913271728515625,0.025833529436588287,-0.007865911069512366,-0.045447805332415735
1772793868956316700,6.923316650390625,0.016404022312164306,-0.004078209224343299,-0.053625695827393786
1772793868966362600,6.933362548828125,0.03818213887810707,-0.02222176868021488,-0.08603880915027111
1772793868976407800,6.94340771484375,0.08931611378788948,-0.06899287220537662,-0.06344310629086103
1772793868986452700,6.95345263671875,0.12657470808029175,-0.08307049739658832,-0.08431099897697568
1772793868996499000,6.9634990234375,0.1281406422227621,-0.07256605451703071,-0.07914051927020772
1772793869006543600,6.973543701171875,0.14608546423614024,-0.042566637572646136,-0.07440566363488324
1772793869016588800,6.9835888671875,0.15173311473429202,-0.0246913736641407,-0.07256511836869176
1772793869026634800,6.993634765625,0.13006897993683814,-0.001070259580016136,-0.03396722459681332
1772793869036679700,7.0036796875,0.1305804365903139,-0.0009843348622322083,-0.0569890347806504
1772793869046725600,7.0137255859375,0.16241642131209372,-0.010987842482328414,-0.07196650402157101
1772793869056770800,7.023770751953125,0.1557066945403814,-0.013875965139269829,-0.06127817420877982
1772793869066815500,7.0338154296875,0.14839374117851256,0.0032832594543695448,-0.07442087490374688
1772793869076861700,7.04386181640625,0.16273323217630387,0.00552080924808979,-0.07467812846729066
1772793869086906600,7.05390673828125,0.1802642126917839,-0.0038210195928812026,-0.06682978502050974
1772793869096951800,7.063951904296875,0.20578560743927954,-0.01621463721990585,-0.09439201054638251
1772793869106997800,7.073997802734375,0.2222130106270313,-0.01637888787090778,-0.09795064374287613
1772793869117042700,7.084042724609375,0.19673077884614468,-0.039434184765815734,-0.12316872642855159
1772793869127087900,7.094087890625,0.15773673906326294,-0.03521393672227859,-0.14313608551179058
1772793869137133800,7.1041337890625,0.1582218922317028,0.002567220139503479,-0.14238059096937067
1772793869147178800,7.1141787109375,0.17157237219214438,0.032875849163532256,-0.09468273712126538
1772793869157224700,7.124224609375,0.17758301078379155,0.04387713564932346,-0.03240611960979877
1772793869167269600,7.13426953125,0.1541734936237335,0.015749357795715332,0.0005981462729512713
1772793869177314800,7.144314697265625,0.15002747986018658,0.00828968943953514,-0.05352338166381232
1772793869187360800,7.15436083984375,0.1443096867352724,0.010604396122694015,-0.09677653106274083
1772793869197405700,7.16440576171875,0.1216138708025217,0.013712299010157584,-0.09422493775063194
1772793869207450600,7.17445068359375,0.10314940882921218,-0.015693828216195107,-0.11129271206799894
1772793869217496600,7.18449658203125,0.07513853535354137,0.012044658058881759,-0.12418432407872751
1772793869227541800,7.194541748046875,0.02795651293992996,0.01063946743607521,-0.11530687961280345
1772793869237587700,7.204587646484375,-0.04806055881381035,-0.022635610178112983,-0.14721328095598146
1772793869247632600,7.214632568359375,-0.08733809171319007,-0.03812076407968998,-0.149942030066438
1772793869257677800,7.224677734375,-0.11582827313840388,-0.030536592561006545,-0.19289607778778298
1772793869267723800,7.234723876953125,-0.07273439682126044,-0.03213116827607155,-0.15136247305730358
1772793869277768700,7.244768798828125,-0.04344809658229351,-0.055256023275852204,-0.15333538056546822
1772793869287813600,7.254813720703125,-0.038323008653521534,-0.06758592801690101,-0.1535245647283271
1772793869297859600,7.264859619140625,-0.029361119040846824,-0.09877075535356998,-0.20796523476699366
1772793869307904800,7.27490478515625,-0.005453004708886146,-0.11638473797738551,-0.2118296916428022
1772793869317950700,7.28495068359375,-0.008220715856552124,-0.11740180606544016,-0.17648365297345445
1772793869327996000,7.294995849609375,-0.0007207154899835586,-0.10952595812380313,-0.16733793122647328
1772793869338040800,7.305040771484375,-0.05253682744503021,-0.1295084234446287,-0.10946308548804372
1772793869348086800,7.315086669921875,-0.11143968279063701,-0.10474398454427719,-0.0456661836237181
1772793869358131700,7.325131591796875,-0.14335750057697294,-0.003447510105371475,-0.005651411074528005
