time,seconds_elapsed,z,y,x
1772793862105369900,0.072369873046875,-1.4805232286453247,-1.9258651733398438,3.468498468399048
1772793862115414800,0.082414794921875,-1.4963124990463257,-1.8491452932357788,3.4406609535217285
1772793862125459200,0.092459228515625,-1.4783746004104614,-1.7068568468093872,3.325220823287964
1772793862135505200,0.102505126953125,-1.3817609548568726,-1.443852186203003,3.1211135387420654
1772793862145550300,0.11255029296875,-1.2863304615020752,-1.2203997373580933,2.8877034187316895
1772793862155596300,0.12259619140625,-1.1600006818771362,-1.0415849685668945,2.690802574157715
1772793862165641200,0.13264111328125,-0.9881344437599182,-0.9866995811462402,2.537445306777954
1772793862175686400,0.142686279296875,-0.7881630063056946,-0.9415696859359741,2.356778860092163
1772793862185732400,0.152732421875,-0.5872049927711487,-0.9006707072257996,2.1535255908966064
1772793862195777500,0.162777587890625,-0.44914859533309937,-0.7665795087814331,1.9463516473770142
1772793862205822200,0.172822265625,-0.36702725291252136,-0.5781384110450745,1.7462329864501953
1772793862215868200,0.1828681640625,-0.2777343988418579,-0.360710471868515,1.5785701274871826
1772793862225913300,0.192913330078125,-0.13890710473060608,-0.11166022717952728,1.455385684967041
1772793862235959300,0.202959228515625,-0.0014648174401372671,0.12182922661304474,1.3376308679580688
1772793862246004200,0.213004150390625,0.10229937732219696,0.30377885699272156,1.2107967138290405
1772793862256049400,0.22304931640625,0.17229950428009033,0.41880449652671814,1.0726878643035889
1772793862266095400,0.233095458984375,0.21294179558753967,0.4906381666660309,0.9286206960678101
1772793862276140300,0.243140380859375,0.2298073172569275,0.5154228806495667,0.7911717295646667
1772793862286186200,0.253186279296875,0.2258640080690384,0.4656830430030823,0.6744588613510132
1772793862296231200,0.263231201171875,0.20097731053829193,0.3131837844848633,0.579282820224762
1772793862306276400,0.2732763671875,0.14959308505058289,0.06593946367502213,0.5164730548858643
1772793862316322300,0.283322265625,0.05801577493548393,-0.1997031271457672,0.47321370244026184
1772793862326367500,0.293367431640625,-0.03954913094639778,-0.3901503086090088,0.44682496786117554
1772793862336412400,0.303412353515625,-0.1289093792438507,-0.48162856698036194,0.43182656168937683
1772793862346458000,0.3134580078125,-0.18831582367420197,-0.504980206489563,0.42695367336273193
1772793862356503300,0.32350341796875,-0.20996972918510437,-0.49985551834106445,0.42225638031959534
1772793862366549200,0.33354931640625,-0.20955875515937805,-0.4808370769023895,0.42093220353126526
1772793862376594400,0.343594482421875,-0.19563308358192444,-0.4307563602924347,0.4262033998966217
1772793862386639400,0.353639404296875,-0.1748111993074417,-0.3941017985343933,0.4225127100944519
1772793862396685300,0.363685302734375,-0.15676403045654297,-0.42095762491226196,0.4243399202823639
1772793862406730500,0.37373046875,-0.14990673959255219,-0.4806661307811737,0.44051244854927063
1772793862416776400,0.3837763671875,-0.15565037727355957,-0.5338348150253296,0.4672950804233551
1772793862426821000,0.393821044921875,-0.17886778712272644,-0.5684080719947815,0.4943903684616089
1772793862436866300,0.4038662109375,-0.2018655240535736,-0.5771567821502686,0.5141390562057495
1772793862446912300,0.413912353515625,-0.2161167711019516,-0.5646920800209045,0.5263697504997253
1772793862456957400,0.42395751953125,-0.20564229786396027,-0.5333272218704224,0.5347392559051514
1772793862467003400,0.43400341796875,-0.18612591922283173,-0.45929768681526184,0.532970666885376
1772793862477048300,0.44404833984375,-0.17369800806045532,-0.35622137784957886,0.5174100399017334
1772793862487093200,0.45409326171875,-0.1488792896270752,-0.2363748997449875,0.48908373713493347
1772793862497139200,0.46413916015625,-0.10045263916254044,-0.13011744618415833,0.42317822575569153
1772793862507184400,0.474184326171875,-0.03598632290959358,-0.058486323803663254,0.33590105175971985
1772793862517229300,0.484229248046875,-0.00007119670044630766,0.014602001756429672,0.25617825984954834
1772793862527275300,0.494275146484375,0.002779578324407339,0.11238742619752884,0.14932090044021606
1772793862537320400,0.504320556640625,0.006811870262026787,0.22415496408939362,0.009285501204431057
1772793862547366400,0.514366455078125,0.017631221562623978,0.34143903851509094,-0.15538521111011505
1772793862557411000,0.5244111328125,0.04305588826537132,0.4803897440433502,-0.31715816259384155
1772793862567456300,0.534456298828125,0.08051575720310211,0.613982081413269,-0.482170045375824
1772793862577502200,0.544502197265625,0.118348628282547,0.7103235125541687,-0.6427139043807983
1772793862587547400,0.55454736328125,0.15693144500255585,0.7802550196647644,-0.7980623245239258
1772793862597593300,0.56459326171875,0.1838805079460144,0.866733193397522,-0.9475434422492981
1772793862607638300,0.57463818359375,0.19324921071529388,0.9832043647766113,-1.1280035972595215
1772793862617683500,0.584683349609375,0.20536339282989502,1.0925698280334473,-1.3252270221710205
1772793862627729400,0.5947294921875,0.23914417624473572,1.177498459815979,-1.5223228931427002
1772793862637774300,0.6047744140625,0.30179744958877563,1.2140642404556274,-1.7089791297912598
1772793862647820300,0.6148203125,0.3712637722492218,1.2168089151382446,-1.8728370666503906
1772793862657865200,0.624865234375,0.42125052213668823,1.2235409021377563,-2.0221357345581055
1772793862667910400,0.634910400390625,0.45175543427467346,1.2491146326065063,-2.138611078262329
1772793862677956400,0.644956298828125,0.5057361125946045,1.3089560270309448,-2.2090344429016113
1772793862688001300,0.655001220703125,0.5720230937004089,1.3693890571594238,-2.2354679107666016
1772793862698047500,0.665047607421875,0.6386873722076416,1.4021997451782227,-2.2346208095550537
1772793862708092200,0.675092041015625,0.6978421807289124,1.391237735748291,-2.2150206565856934
1772793862718137300,0.685137451171875,0.7358856797218323,1.3463027477264404,-2.1900789737701416
1772793862728183300,0.695183349609375,0.7396786212921143,1.2963422536849976,-2.157693386077881
1772793862738228200,0.705228271484375,0.7318643927574158,1.256027340888977,-2.13045597076416
1772793862748273400,0.7152734375,0.7152091860771179,1.2028449773788452,-2.1007633209228516
1772793862758319400,0.7253193359375,0.6839220523834229,1.1178853511810303,-2.0690696239471436
1772793862768364500,0.735364501953125,0.6388055086135864,1.0187420845031738,-2.0104424953460693
1772793862778410200,0.74541015625,0.5843369364738464,0.936352014541626,-1.9237971305847168
1772793862788455200,0.755455078125,0.5182629823684692,0.8635650277137756,-1.8283427953720093
1772793862798500400,0.765500244140625,0.45044079422950745,0.7868058085441589,-1.733325481414795
1772793862808546300,0.77554638671875,0.3922448754310608,0.7267938852310181,-1.6603798866271973
1772793862818591200,0.78559130859375,0.3456350266933441,0.662686288356781,-1.6022948026657104
1772793862828637400,0.795637451171875,0.30909574031829834,0.599360466003418,-1.5439870357513428
1772793862838682400,0.805682373046875,0.278224915266037,0.5350645780563354,-1.4848906993865967
1772793862848727300,0.815727294921875,0.252993106842041,0.47875896096229553,-1.4072819948196411
1772793862858773200,0.825773193359375,0.22882281243801117,0.43115895986557007,-1.3047175407409668
1772793862868818200,0.835818115234375,0.20355241000652313,0.38932743668556213,-1.194583773612976
1772793862878864400,0.845864501953125,0.18281251192092896,0.33230704069137573,-1.0835741758346558
1772793862888909300,0.855909423828125,0.17641711235046387,0.27604156732559204,-0.9770763516426086
1772793862898954500,0.86595458984375,0.18573231995105743,0.2202369123697281,-0.8847437500953674
1772793862909000400,0.87600048828125,0.20593126118183136,0.18420107662677765,-0.7985687851905823
1772793862919045000,0.886045166015625,0.21887607872486115,0.19089040160179138,-0.7249574065208435
1772793862929090300,0.89609033203125,0.23030859231948853,0.2256661206483841,-0.6568582653999329
1772793862939136300,0.90613623046875,0.23918090760707855,0.26256102323532104,-0.6023462414741516
1772793862949181400,0.916181396484375,0.24810795485973358,0.27644088864326477,-0.5635800361633301
1772793862959227400,0.926227294921875,0.2559424340724945,0.272726833820343,-0.5351465344429016
1772793862969272300,0.936272216796875,0.26057982444763184,0.2724035382270813,-0.5029742121696472
1772793862979317500,0.9463173828125,0.2597227990627289,0.28013575077056885,-0.4724874198436737
1772793862989363200,0.95636328125,0.24832956492900848,0.2797822654247284,-0.43868494033813477
1772793862999408000,0.966408203125,0.22701388597488403,0.2618067264556885,-0.39861422777175903
1772793863009454300,0.976454345703125,0.20373566448688507,0.2362392693758011,-0.35329777002334595
1772793863019499300,0.986499267578125,0.17975442111492157,0.20508694648742676,-0.3134709894657135
1772793863029544400,0.99654443359375,0.16848497092723846,0.16345496475696564,-0.2622758448123932
1772793863039590400,1.00659033203125,0.1595279723405838,0.12092829495668411,-0.20887760818004608
1772793863049635300,1.01663525390625,0.15022875368595123,0.08956141024827957,-0.14176233112812042
1772793863059681500,1.026681640625,0.13456511497497559,0.06089647859334946,-0.07241600751876831
1772793863069726200,1.036726318359375,0.11325069516897202,0.025610605254769325,-0.009735718369483948
1772793863079771400,1.046771484375,0.09909093379974365,0.0026312521658837795,0.06370387971401215
1772793863089817300,1.0568173828125,0.0917908325791359,-0.016836252063512802,0.11652597039937973
1772793863099862300,1.0668623046875,0.08589459210634232,-0.022397197782993317,0.15403980016708374
1772793863109907500,1.076907470703125,0.08024857193231583,-0.007082334719598293,0.17787033319473267
1772793863119952100,1.0869521484375,0.0774487853050232,0.02299966663122177,0.184479221701622
1772793863129997300,1.096997314453125,0.06971828639507294,0.052877847105264664,0.18933306634426117
1772793863140043300,1.107043212890625,0.06291817128658295,0.05087674781680107,0.19878116250038147
1772793863150088200,1.117088134765625,0.04480979964137077,0.0016869385726749897,0.2228061854839325
1772793863160133400,1.12713330078125,0.017068181186914444,-0.06944768875837326,0.2545255124568939
1772793863170179300,1.137179443359375,-0.016773013398051262,-0.1448734551668167,0.31045597791671753
1772793863180224500,1.147224609375,-0.0597178190946579,-0.21730585396289825,0.3667192757129669
1772793863190270500,1.1572705078125,-0.11002275347709656,-0.2800186276435852,0.42833641171455383
1772793863200315100,1.167315185546875,-0.15706749260425568,-0.31328845024108887,0.49511995911598206
1772793863210360300,1.1773603515625,-0.1992775946855545,-0.3419618606567383,0.5527640581130981
1772793863220406300,1.18740625,-0.22533155977725983,-0.36975300312042236,0.6043050289154053
1772793863230451500,1.197451416015625,-0.23305073380470276,-0.38881006836891174,0.6385591626167297
1772793863240496400,1.207496337890625,-0.21994905173778534,-0.3900519013404846,0.662078320980072
1772793863250542300,1.217542236328125,-0.1937239170074463,-0.37581825256347656,0.6814048290252686
1772793863260587300,1.227587158203125,-0.16376282274723053,-0.3466976284980774,0.6910041570663452
1772793863270633200,1.23763330078125,-0.1377095878124237,-0.30472829937934875,0.6951953768730164
1772793863280678400,1.247678466796875,-0.12158786505460739,-0.272134393453598,0.6867545247077942
1772793863290723300,1.257723388671875,-0.11268485337495804,-0.2312292605638504,0.6613278388977051
1772793863300769300,1.267769287109375,-0.10095468908548355,-0.1930568516254425,0.6306657791137695
1772793863310814500,1.277814453125,-0.08312459290027618,-0.15325140953063965,0.5878168940544128
1772793863320860400,1.2878603515625,-0.05812230706214905,-0.120005302131176,0.5403228998184204
1772793863330905000,1.297905029296875,-0.03636535629630089,-0.08644530922174454,0.4940183758735657
1772793863340950300,1.3079501953125,-0.016614023596048355,-0.05539391189813614,0.4401799142360687
1772793863350996200,1.317996337890625,-0.001199300168082118,-0.023179102689027786,0.38885605335235596
1772793863361041400,1.32804150390625,0.0213419608771801,0.008189474232494831,0.33759605884552
1772793863371087400,1.33808740234375,0.03903722018003464,0.03016037493944168,0.2979717254638672
1772793863381132300,1.34813232421875,0.05560740828514099,0.050110913813114166,0.26058465242385864
1772793863391177500,1.358177490234375,0.07051745057106018,0.0702868103981018,0.22986257076263428
1772793863401223400,1.368223388671875,0.08232111483812332,0.08583514392375946,0.19093194603919983
1772793863411268400,1.378268310546875,0.09431765973567963,0.08973006904125214,0.1542843133211136
1772793863421313300,1.388313232421875,0.10446164011955261,0.09135805815458298,0.1166759580373764
1772793863431359200,1.398359130859375,0.108233742415905,0.09375011175870895,0.09287235885858536
1772793863441404400,1.408404296875,0.09684862196445465,0.10615956038236618,0.08406148105859756
1772793863451450400,1.418450439453125,0.0803007259964943,0.09740693122148514,0.08648093789815903
1772793863461495300,1.428495361328125,0.057918988168239594,0.06419491767883301,0.09409545361995697
1772793863471540200,1.438540283203125,0.033293016254901886,0.02947804518043995,0.10159027576446533
1772793863481586200,1.448586181640625,0.006379375234246254,0.003332728985697031,0.11596628278493881
1772793863491631400,1.45863134765625,-0.02274858020246029,-0.03727880120277405,0.12335262447595596
1772793863501677300,1.46867724609375,-0.04064023122191429,-0.07149509340524673,0.12190892547369003
1772793863511722200,1.47872216796875,-0.05020274221897125,-0.08010656386613846,0.12981271743774414
1772793863521767400,1.488767333984375,-0.05885002762079239,-0.08827847242355347,0.1400882601737976
1772793863531813400,1.4988134765625,-0.06932765990495682,-0.10296594351530075,0.15588942170143127
1772793863541858300,1.5088583984375,-0.08314333856105804,-0.12282779812812805,0.16367889940738678
1772793863551903200,1.5189033203125,-0.09091605246067047,-0.12473711371421814,0.17156410217285156
1772793863561949200,1.52894921875,-0.09198318421840668,-0.1185774877667427,0.1823938488960266
1772793863571994400,1.538994384765625,-0.09319347143173218,-0.12434545159339905,0.198663592338562
1772793863582040300,1.549040283203125,-0.09392557293176651,-0.13716378808021545,0.20227058231830597
1772793863592085200,1.559085205078125,-0.10428217798471451,-0.14124701917171478,0.20736539363861084
1772793863602130400,1.56913037109375,-0.11890745908021927,-0.1255735158920288,0.2107694447040558
1772793863612176400,1.57917626953125,-0.13723069429397583,-0.10909014195203781,0.19234688580036163
1772793863622221300,1.58922119140625,-0.1415143758058548,-0.09327895194292068,0.15780141949653625
1772793863632267300,1.599267333984375,-0.1370968371629715,-0.07714160531759262,0.1242806687951088
1772793863642312200,1.609312255859375,-0.12570889294147491,-0.052265286445617676,0.08884864300489426
1772793863652357400,1.619357421875,-0.1055908128619194,-0.03657720983028412,0.0567496083676815
1772793863662403300,1.6294033203125,-0.08457501232624054,-0.03322881460189819,0.02990494854748249
1772793863672448500,1.639448486328125,-0.06651870906352997,-0.02302619069814682,0.013415055349469185
1772793863682493200,1.6494931640625,-0.051441490650177,-0.008272279053926468,-0.006260378286242485
1772793863692539100,1.6595390625,-0.03639836981892586,0.009802231565117836,-0.029449477791786194
1772793863702584300,1.669584228515625,-0.023431969806551933,0.02414974570274353,-0.051536403596401215
1772793863712630300,1.67963037109375,-0.014725087210536003,0.036085277795791626,-0.06854572892189026
1772793863722675200,1.68967529296875,-0.010046180337667465,0.044365044683218,-0.07574079185724258
1772793863732720400,1.699720458984375,-0.008003190159797668,0.052234575152397156,-0.07085200399160385
1772793863742766300,1.709766357421875,-0.007508374750614166,0.06545902788639069,-0.05735722929239273
1772793863752811300,1.719811279296875,-0.003305396530777216,0.06772971153259277,-0.02793147601187229
1772793863762857200,1.729857177734375,-0.003040145616978407,0.055401142686605453,-0.0017403510864824057
1772793863772902100,1.739902099609375,-0.003915526904165745,0.0322183258831501,0.024990063160657883
1772793863782947300,1.749947265625,-0.0032598567195236683,0.0033603105694055557,0.042097143828868866
1772793863792993300,1.7599931640625,-0.0032540769316256046,-0.02785288728773594,0.03720888867974281
1772793863803038500,1.77003857421875,-0.002175496658310294,-0.0372471883893013,0.0288124717772007
1772793863813083400,1.78008349609375,0.0014242868637666106,-0.018191304057836533,0.019849980250000954
1772793863823129300,1.79012939453125,0.008692053146660328,-0.006357546895742416,0.004281140398234129
1772793863833174300,1.80017431640625,0.013462461531162262,-0.008439254015684128,-0.013575580902397633
1772793863843220200,1.81022021484375,0.01814696379005909,-0.008046703413128853,-0.03086748532950878
1772793863853265400,1.820265380859375,0.029339388012886047,-0.017898444086313248,-0.0421721488237381
1772793863863310300,1.830310302734375,0.03379831835627556,-0.0271231010556221,-0.05964222177863121
1772793863873356300,1.840356201171875,0.039250586181879044,-0.015103651210665703,-0.06562745571136475
1772793863883401500,1.8504013671875,0.04144449904561043,0.007418169640004635,-0.06465274095535278
1772793863893447400,1.860447509765625,0.04201382398605347,0.008167892694473267,-0.06463754177093506
1772793863903492000,1.8704921875,0.043092671781778336,-0.0025366826448589563,-0.06269688904285431
1772793863913537300,1.880537353515625,0.04378214105963707,-0.00714414706453681,-0.04834143444895744
1772793863923583200,1.890583251953125,0.037730373442173004,-0.011912270449101925,-0.02955549769103527
1772793863933628400,1.90062841796875,0.030807366594672203,-0.017695654183626175,-0.017576701939105988
1772793863943673300,1.91067333984375,0.02260403335094452,-0.0138750821352005,-0.0020094600040465593
1772793863953719300,1.92071923828125,0.017833257094025612,-0.010872802697122097,0.01973913423717022
1772793863963764500,1.930764404296875,0.010707171633839607,-0.0213848315179348,0.028666049242019653
1772793863973810200,1.94081005859375,0.004491438157856464,-0.03129122406244278,0.029707515612244606
1772793863983855400,1.95085546875,-0.007454437203705311,-0.04007060080766678,0.027842236682772636
1772793863993900300,1.960900390625,-0.02132546529173851,-0.05434475094079971,0.011199967935681343
1772793864003946200,1.9709462890625,-0.033390916883945465,-0.06812821328639984,-0.012365810573101044
1772793864013991400,1.980991455078125,-0.043118689209222794,-0.06662338227033615,-0.033901289105415344
1772793864024037400,1.991037353515625,-0.04615362733602524,-0.06706760078668594,-0.05014337599277496
1772793864034082300,2.001082275390625,-0.04186750203371048,-0.0642922893166542,-0.06112418696284294
1772793864044127200,2.011127197265625,-0.0353933610022068,-0.04937618970870972,-0.059458110481500626
1772793864054173200,2.021173095703125,-0.02718847244977951,-0.03207642212510109,-0.053185924887657166
1772793864064218400,2.03121826171875,-0.02013615518808365,-0.03242369741201401,-0.052465539425611496
1772793864074263300,2.04126318359375,-0.0170865710824728,-0.02340570278465748,-0.044464338570833206
1772793864084309200,2.051309326171875,-0.013662276789546013,-0.00885472260415554,-0.029882201924920082
1772793864094354400,2.0613544921875,-0.009408731944859028,-0.0020156814716756344,-0.00977904349565506
1772793864104400400,2.071400390625,-0.008171160705387592,-0.008644555695354939,0.009497182443737984
1772793864114445300,2.0814453125,-0.011463770642876625,-0.015587672591209412,0.017302757129073143
1772793864124491300,2.0914912109375,-0.01666652038693428,-0.017238298431038857,0.022486599162220955
1772793864134537200,2.101537109375,-0.0261724554002285,-0.003990147262811661,0.038411807268857956
1772793864144582100,2.11158203125,-0.032512374222278595,0.0012767864391207695,0.05492287129163742
1772793864154628000,2.121628173828125,-0.03575447201728821,-0.012622073292732239,0.05143260583281517
1772793864164673000,2.131673095703125,-0.02986116334795952,-0.024881934747099876,0.04565594345331192
1772793864174718200,2.14171826171875,-0.0187443308532238,-0.014538217335939407,0.03634579852223396
1772793864184764200,2.15176416015625,-0.013571672141551971,-0.00347651238553226,0.028950469568371773
1772793864194809000,2.16180908203125,-0.007303368300199509,0.002881980035454035,0.020547175779938698
1772793864204854000,2.17185400390625,-0.002721665892750025,0.010220587253570557,0.015164926648139954
1772793864214900000,2.18189990234375,0.004792885389178991,0.015981288626790047,0.014352482743561268
1772793864224945200,2.191945068359375,0.01346307247877121,0.014294974505901337,0.02174222283065319
1772793864234991000,2.2019912109375,0.014950214885175228,-0.0021343063563108444,0.022819405421614647
1772793864245036000,2.2120361328125,0.01836225762963295,-0.009721385315060616,0.01813890039920807
1772793864255081200,2.222081298828125,0.02363565005362034,-0.004144938662648201,0.012125352397561073
1772793864265127200,2.232127197265625,0.026100939139723778,-0.0012365002185106277,0.005346807651221752
1772793864275172000,2.242172119140625,0.03115314245223999,-0.00665219034999609,-0.0017348295077681541
1772793864285218000,2.252218017578125,0.03861585259437561,-0.010604588314890862,-0.021735435351729393
1772793864295263000,2.262262939453125,0.04742993041872978,0.0016919118352234364,-0.0349031463265419
1772793864305308200,2.27230810546875,0.053575173020362854,0.01890019327402115,-0.040946923196315765
1772793864315354000,2.28235400390625,0.04743869602680206,0.03724171966314316,-0.040440965443849564
1772793864325399000,2.29239892578125,0.04121195897459984,0.047863204032182693,-0.038759712129831314
1772793864335444200,2.3024443359375,0.04260909929871559,0.051850881427526474,-0.020901529118418694
1772793864345490200,2.312490234375,0.042207226157188416,0.039884764701128006,0.00416733929887414
1772793864355535000,2.32253515625,0.037521060556173325,0.016760217025876045,0.02673190087080002
1772793864365581000,2.3325810546875,0.033067990094423294,0.0016292021609842777,0.046807073056697845
1772793864375626000,2.3426259765625,0.03177892044186592,0.0043335603550076485,0.06248130276799202
1772793864385671200,2.352671142578125,0.03533210977911949,0.011757654137909412,0.07533930987119675
1772793864395717000,2.362717041015625,0.03895103186368942,0.005049560219049454,0.07137431204319
1772793864405762300,2.37276220703125,0.044330619275569916,-0.0037457956932485104,0.05955599993467331
1772793864415808300,2.382808349609375,0.045980580151081085,0.00522011099383235,0.04092639312148094
1772793864425853000,2.39285302734375,0.04196639731526375,0.016349194571375847,0.03266766667366028
1772793864435898000,2.402898193359375,0.04248647019267082,0.010507693514227867,0.012095453217625618
1772793864445944000,2.412944091796875,0.040143419057130814,0.0002276245504617691,-0.007110732141882181
1772793864455989200,2.4229892578125,0.04434606432914734,-0.0011105979792773724,-0.017309222370386124
1772793864466034200,2.4330341796875,0.03768869489431381,0.015339748002588749,-0.01533315610140562
1772793864476080000,2.443080078125,0.026462482288479805,0.02165931463241577,-0.0032479725778102875
1772793864486125000,2.453125,0.01739921234548092,0.011278312653303146,0.010300060734152794
1772793864496171000,2.4631708984375,0.013593534007668495,-0.0012661698274314404,0.020503917708992958
1772793864506216000,2.4732158203125,0.005654118489474058,-0.006154135335236788,0.036242399364709854
1772793864516261000,2.48326123046875,-0.0003273415204603225,-0.02294190414249897,0.04066990315914154
1772793864526307000,2.49330712890625,-0.005861389916390181,-0.04983450472354889,0.034213338047266006
1772793864536352300,2.503352294921875,-0.00708752078935504,-0.05694151669740677,0.023649221286177635
1772793864546397200,2.513397216796875,-0.005310127045959234,-0.05096910893917084,0.015108995139598846
1772793864556443100,2.523443115234375,-0.00022151286248117685,-0.04929433390498161,0.005159386433660984
1772793864566488000,2.533488037109375,-0.0010782517492771149,-0.04676832631230354,-0.0061539881862699986
1772793864576534000,2.543533935546875,-0.003912732936441898,-0.02908109501004219,-0.010869407095015049
1772793864586579200,2.5535791015625,-0.006920773070305586,-0.012061630375683308,-0.017082029953598976
1772793864596624100,2.5636240234375,-0.004285941831767559,-0.008478961884975433,-0.027946464717388153
1772793864606670000,2.573670166015625,0.0019272130448371172,-0.002076988574117422,-0.03393511474132538
1772793864616715300,2.58371533203125,0.007500799372792244,-0.0018250425346195698,-0.03643730282783508
1772793864626761200,2.59376123046875,0.008090688847005367,-0.012976231053471565,-0.04049675911664963
1772793864636806000,2.603805908203125,0.008971141651272774,-0.026617642492055893,-0.0389903225004673
1772793864646851000,2.61385107421875,0.006245396099984646,-0.021827414631843567,-0.039137061685323715
1772793864656897000,2.62389697265625,0.007134750485420227,-0.013707960024476051,-0.038297250866889954
1772793864666942200,2.633942138671875,0.009686058387160301,-0.009160878136754036,-0.03154107928276062
1772793864676987100,2.643987060546875,0.01302600372582674,-0.0016881125047802925,-0.02061358094215393
1772793864687033000,2.654033203125,0.016077717766165733,-0.00524076959118247,-0.017522184178233147
1772793864697078000,2.664078125,0.01723857969045639,-0.012509167194366455,-0.017358822748064995
1772793864707124000,2.6741240234375,0.016722992062568665,-0.012023672461509705,-0.013284451328217983
1772793864717169200,2.684169189453125,0.017009638249874115,-0.00356522249057889,-0.01173031609505415
1772793864727214000,2.694214111328125,0.016401905566453934,0.002937684301286936,-0.012598240748047829
1772793864737260000,2.704260009765625,0.024067513644695282,0.010300498455762863,-0.005995666608214378
1772793864747305200,2.71430517578125,0.03712206333875656,0.01287364587187767,0.0019221777329221368
1772793864757350100,2.72435009765625,0.04265230521559715,0.01092352531850338,0.007509730756282806
1772793864767396000,2.73439599609375,0.05065537244081497,0.0018069925718009472,0.023332370445132256
1772793864777441000,2.74444091796875,0.046034734696149826,-0.004709235858172178,0.02885712869465351
1772793864787487000,2.754487060546875,0.043430961668491364,-0.00933834258466959,0.026280520483851433
1772793864797532200,2.7645322265625,0.03417551890015602,0.0024224058724939823,0.024729710072278976
1772793864807577000,2.7745771484375,0.02881031483411789,0.014395711943507195,0.02943231910467148
1772793864817623000,2.784623046875,0.028395984321832657,0.014121362939476967,0.024631686508655548
1772793864827668200,2.794668212890625,0.03106766566634178,0.002805324736982584,0.019681403413414955
1772793864837714200,2.804714111328125,0.03785546496510506,-0.00016628438606858253,0.015957901254296303
1772793864847759000,2.814759033203125,0.0406067781150341,0.0024755713529884815,0.013089410029351711
1772793864857804000,2.824803955078125,0.043657995760440826,0.0034276782535016537,0.004453778732568026
1772793864867850000,2.83485009765625,0.04145795479416847,0.010168671607971191,0.0012574527645483613
1772793864877895200,2.844895263671875,0.03880094364285469,0.01203574426472187,0.0004652079660445452
1772793864887940000,2.854940185546875,0.031475652009248734,0.0028901821933686733,0.0026460704393684864
1772793864897986000,2.864986083984375,0.026009924709796906,-0.010173434391617775,0.0024307717103511095
1772793864908031000,2.875031005859375,0.020241783931851387,-0.019014596939086914,0.009694810025393963
1772793864918077000,2.885076904296875,0.009751657955348492,-0.024402648210525513,0.014554413966834545
1772793864928122000,2.8951220703125,-0.0005044417339377105,-0.02558269537985325,0.010540232062339783
1772793864938167000,2.9051669921875,-0.006304495502263308,-0.01721544936299324,0.0047865635715425014
1772793864948213000,2.915212890625,-0.005100480280816555,-0.009374039247632027,-0.005789914634078741
1772793864958258200,2.925258056640625,-0.005676877684891224,0.0008874027989804745,-0.015236593782901764
1772793864968304000,2.93530419921875,-0.004137037787586451,0.009492343291640282,-0.018134912475943565
1772793864978349300,2.945349365234375,-0.002149221021682024,0.011699064634740353,-0.013432101346552372
1772793864988394000,2.95539404296875,-0.0023958298843353987,0.0006336309015750885,-0.00011842662934213877
1772793864998440000,2.96543994140625,-0.01081033144146204,-0.016000276431441307,0.005152546800673008
1772793865008485000,2.975485107421875,-0.020274940878152847,-0.02336551435291767,0.009417333640158176
1772793865018530000,2.985530029296875,-0.03256667032837868,-0.018141740933060646,-0.001734472461976111
1772793865028576300,2.995576171875,-0.036466334015131,0.000054306816309690475,-0.008022728376090527
1772793865038621200,3.00562109375,-0.03798694536089897,0.009154816158115864,-0.009839024394750595
1772793865048667100,3.015667236328125,-0.03219670057296753,0.006409630179405212,-0.009514917619526386
1772793865058712000,3.025712158203125,-0.02832138165831566,-0.000926491804420948,-0.004391488619148731
1772793865068757000,3.035757080078125,-0.02400146797299385,-0.012728823348879814,-0.006924421060830355
1772793865078803000,3.045802978515625,-0.01797577552497387,-0.008498195558786392,-0.006300929933786392
1772793865088848100,3.05584814453125,-0.012345321476459503,0.002076417673379183,-0.003947228193283081
1772793865098894000,3.06589404296875,-0.004748987499624491,0.0051834736950695515,0.002385899657383561
1772793865108939300,3.075939208984375,-0.005001189187169075,0.0035978280939161777,0.016260702162981033
1772793865118984200,3.085984130859375,0.00018502847524359822,-0.008583400398492813,0.03489026799798012
1772793865129030000,3.09602978515625,0.0022535056341439486,-0.0166301429271698,0.04989025741815567
1772793865139075000,3.106074951171875,0.0056410240940749645,-0.02012387290596962,0.05788848176598549
1772793865149119700,3.11611962890625,0.0013967443956062198,-0.009872300550341606,0.058952149003744125
1772793865159166000,3.126166015625,-0.0010869195684790611,0.005179353523999453,0.0564570352435112
1772793865169211000,3.1362109375,-0.004444633144885302,0.013398934155702591,0.054860468953847885
1772793865179256800,3.1462568359375,-0.003954323008656502,0.010638762265443802,0.052274320274591446
1772793865189302000,3.156302001953125,-0.005416132044047117,0.001140066422522068,0.04617141932249069
1772793865199347000,3.166346923828125,-0.007679297588765621,-0.00042144255712628365,0.037960201501846313
1772793865209393200,3.17639306640625,-0.010927288793027401,0.013016334734857082,0.029125966131687164
1772793865219437800,3.186437744140625,-0.01263650506734848,0.028114061802625656,0.02453654073178768
1772793865229483000,3.19648291015625,-0.004790566395968199,0.034054242074489594,0.023536790162324905
1772793865239529000,3.206529052734375,-0.0022223573178052902,0.03110160492360592,0.023148616775870323
1772793865249574000,3.216573974609375,-0.004034638404846191,0.02484557405114174,0.029734879732131958
1772793865259619800,3.226619873046875,-0.0065232631750404835,0.01746555231511593,0.04188641160726547
1772793865269665000,3.2366650390625,-0.009934771806001663,0.0017523705027997494,0.047974664717912674
1772793865279710000,3.2467099609375,-0.011924664489924908,-0.010473739355802536,0.04847591742873192
1772793865289756000,3.256755859375,-0.01347489096224308,-0.011666569858789444,0.05462675541639328
1772793865299800800,3.26680078125,-0.01673402450978756,-0.015147728845477104,0.05545881390571594
1772793865309846800,3.2768466796875,-0.017369719222187996,-0.017263876274228096,0.050364453345537186
1772793865319892000,3.28689208984375,-0.012814115732908249,-0.017971212044358253,0.04367246478796005
1772793865329937000,3.29693701171875,-0.009356001392006874,-0.01205393485724926,0.029421089217066765
1772793865339983000,3.306983154296875,-0.007044898811727762,-0.008169082924723625,0.015464150346815586
1772793865350028000,3.317028076171875,-0.010502747260034084,-0.010321715846657753,-0.0012490489752963185
1772793865360073000,3.327072998046875,-0.007280022371560335,-0.015282358974218369,-0.012545977719128132
1772793865370119000,3.337118896484375,-0.006357237230986357,-0.007500602863729,-0.016623543575406075
1772793865380163800,3.347163818359375,-0.005177290644496679,-0.007041023578494787,-0.012607299722731113
1772793865390209800,3.357209716796875,-0.0072785248048603535,-0.016922416165471077,-0.01592879556119442
1772793865400255000,3.3672548828125,-0.001531955786049366,-0.021473757922649384,-0.01201128400862217
1772793865410300000,3.3772998046875,0.0011618315475061536,-0.018252132460474968,-0.006854872219264507
1772793865420346000,3.38734619140625,0.005357431247830391,-0.019017301499843597,0.00047332781832665205
1772793865430390800,3.397390869140625,0.010880027897655964,-0.025154821574687958,0.0024086469784379005
1772793865440436000,3.40743603515625,0.01586461253464222,-0.029963385313749313,-0.0038942359387874603
1772793865450482000,3.41748193359375,0.019145626574754715,-0.018059320747852325,-0.007147819735109806
1772793865460526800,3.42752685546875,0.026203056797385216,-0.010980414226651192,-0.011717557907104492
1772793865470573000,3.437572998046875,0.030607393011450768,-0.009893844835460186,-0.02517957054078579
1772793865480618000,3.447617919921875,0.03099008835852146,-0.00535821495577693,-0.03030082955956459
1772793865490663200,3.4576630859375,0.030733095481991768,-0.0003480101004242897,-0.03493712842464447
1772793865500708900,3.467708984375,0.028289346024394035,-0.0018324833363294601,-0.03824231028556824
1772793865510753800,3.47775390625,0.030919484794139862,-0.0029390270356088877,-0.04242294281721115
1772793865520799000,3.487799072265625,0.03373388946056366,0.000030201394110918045,-0.045984700322151184
1772793865530845000,3.497844970703125,0.03566494956612587,0.00577330868691206,-0.04048127681016922
1772793865540889900,3.507889892578125,0.029926270246505737,0.008074682205915451,-0.02515351213514805
1772793865550936000,3.51793603515625,0.030269019305706024,0.014501156285405159,-0.007476247847080231
1772793865560981000,3.52798095703125,0.029756736010313034,0.012629448436200619,0.020170774310827255
1772793865571026000,3.53802587890625,0.03131628409028053,-0.0014339056797325611,0.040929317474365234
1772793865581072000,3.54807177734375,0.020764892920851707,-0.009264174848794937,0.05186423659324646
1772793865591116800,3.55811669921875,0.013361040502786636,-0.019641980528831482,0.05488372594118118
1772793865601163000,3.5681630859375,0.004920773208141327,-0.029094887897372246,0.04124479740858078
1772793865611208000,3.5782080078125,-0.00423810351639986,-0.025223717093467712,0.012319139204919338
1772793865621253000,3.588253173828125,-0.0029304695781320333,0.0010374248959124088,-0.01667652279138565
1772793865631299000,3.598299072265625,-0.00720484321936965,0.018810562789440155,-0.043844494968652725
1772793865641343700,3.60834375,-0.005199727136641741,0.025552552193403244,-0.07044277340173721
1772793865651389000,3.618388916015625,0.000627801869995892,0.03021015226840973,-0.07658375054597855
1772793865661435000,3.628434814453125,0.012093585915863514,0.03017754852771759,-0.06703869253396988
1772793865671480000,3.63847998046875,0.013730631209909916,0.008353477343916893,-0.04948526620864868
1772793865681526000,3.648526123046875,0.009653676301240921,-0.009138545021414757,-0.03426314517855644
1772793865691571000,3.658571044921875,0.0018111992394551635,-0.011073064990341663,-0.01607508771121502
1772793865701616000,3.6686162109375,-0.007279834244400263,-0.01296769268810749,-0.0017271768301725388
1772793865711662000,3.678662109375,-0.01233637798577547,-0.016966428607702255,0.004846037365496159
1772793865721706800,3.688706787109375,-0.014728107489645481,-0.016479114070534706,0.008756336756050587
1772793865731752000,3.698751953125,-0.012548043392598629,-0.01818247139453888,0.01597083918750286
1772793865741798000,3.7087978515625,-0.011100193485617638,-0.020241808146238327,0.012552713043987751
1772793865751843000,3.718843017578125,-0.0056518991477787495,-0.015815898776054382,0.007810422219336033
1772793865761889000,3.728888916015625,-0.004204037599265575,-0.0050528645515441895,0.010096418671309948
1772793865771934000,3.738933837890625,-0.0042320010252296925,-0.00013720151036977768,0.005068637430667877
1772793865781979000,3.748978759765625,-0.006428976077586412,0.0026321103796362877,0.002000404754653573
1772793865792024800,3.75902490234375,0.0006816636305302382,0.00030503980815410614,0.005724302493035793
1772793865802070000,3.769070068359375,0.004809986799955368,-0.007865452207624912,0.010784083977341652
1772793865812115000,3.779114990234375,0.011572019197046757,-0.009490513242781162,0.02003430761396885
1772793865822161000,3.789160888671875,0.015774540603160858,0.004272927064448595,0.02943284809589386
1772793865832206000,3.7992060546875,0.01717110350728035,0.010600065812468529,0.04026499018073082
1772793865842252000,3.809251953125,0.010503468103706837,0.0054423329420387745,0.036610715091228485
1772793865852296700,3.819296630859375,0.007788375951349735,0.003226316999644041,0.028440671041607857
1772793865862342000,3.829341796875,0.009140808135271072,0.009721698239445686,0.030347242951393127
1772793865872387800,3.839387939453125,0.004979352466762066,0.007681983523070812,0.018878871574997902
1772793865882433000,3.84943310546875,-0.0014025373384356499,0.002021349500864744,0.009387591853737831
1772793865892478000,3.85947802734375,-0.0017183881718665361,0.00941268727183342,0.0060378676280379295
1772793865902524000,3.86952392578125,0.004606364294886589,0.012847197242081165,0.011280455626547337
1772793865912569000,3.879569091796875,0.006289748474955559,0.0027136029675602913,0.009585886262357235
1772793865922615000,3.889614990234375,0.008066532202064991,-0.004125281237065792,-0.0028601549565792084
1772793865932660000,3.899659912109375,0.007467054761946201,0.011566597037017345,-0.0025637452490627766
1772793865942705000,3.909704833984375,-0.0008989224443212152,0.02903788536787033,-0.012007023207843304
1772793865952750800,3.919750732421875,-0.0048196278512477875,0.031773217022418976,-0.017209507524967194
1772793865962796000,3.929796142578125,-0.0010263094445690513,0.031867511570453644,-0.017782002687454224
1772793865972842000,3.939842041015625,-0.0046692476607859135,0.030674410983920097,-0.013751308433711529
1772793865982887000,3.949886962890625,-0.01233542338013649,0.031921304762363434,-0.012396025471389294
1772793865992931800,3.959931884765625,-0.02389274165034294,0.03266938775777817,-0.00763695640489459
1772793866002977800,3.969977783203125,-0.03231312707066536,0.042873553931713104,-0.014469030313193798
1772793866013023000,3.98002294921875,-0.03951563313603401,0.06606152653694153,-0.016007648780941963
1772793866023068000,3.99006787109375,-0.04335165023803711,0.09961704909801483,-0.009508727118372917
1772793866033112000,4.000112060546875,-0.050967756658792496,0.13000957667827606,0.00931156612932682
1772793866043158000,4.010157958984375,-0.061714790761470795,0.13370132446289062,0.03860105201601982
1772793866053203000,4.020202880859375,-0.07578639686107635,0.12255945801734924,0.0706133171916008
1772793866063249000,4.030248779296875,-0.09319540113210678,0.10485417395830154,0.0882495790719986
1772793866073293800,4.0402939453125,-0.1038198173046112,0.07726915180683136,0.09302861988544464
1772793866083339000,4.050339111328125,-0.10384932905435562,0.04856209456920624,0.08905063569545746
1772793866093385000,4.060385009765625,-0.10197179764509201,0.013999324291944504,0.07201546430587769
1772793866103430100,4.07043017578125,-0.0974067971110344,-0.010853631421923637,0.06261905282735825
1772793866113474800,4.080474853515625,-0.08612751215696335,-0.01713283360004425,0.06251465529203415
1772793866123520800,4.090520751953125,-0.07496961206197739,-0.01728818193078041,0.056913215667009354
1772793866133566000,4.10056591796875,-0.05932806432247162,-0.02961675263941288,0.04829362779855728
1772793866143612000,4.11061181640625,-0.04512786865234375,-0.05546152591705322,0.03825341537594795
1772793866153656800,4.12065673828125,-0.031143609434366226,-0.07680302858352661,0.02544015273451805
1772793866163702000,4.130701904296875,-0.016718076542019844,-0.08531219512224197,0.015265122056007385
1772793866173748000,4.140748046875,0.0036037061363458633,-0.08414040505886078,-0.0008744326187297702
1772793866183793000,4.15079296875,0.03555890917778015,-0.08430957049131393,-0.014636185951530933
1772793866193837800,4.160837890625,0.07057441771030426,-0.07890042662620544,-0.026456095278263092
1772793866203883800,4.1708837890625,0.10102658718824387,-0.07479392737150192,-0.03180600702762604
1772793866213929000,4.180928955078125,0.12188073992729187,-0.06981168687343597,-0.04104477912187576
1772793866223975000,4.190974853515625,0.13034144043922424,-0.06252652406692505,-0.059769127517938614
1772793866234020000,4.20102001953125,0.1399754285812378,-0.05539671331644058,-0.0868992879986763
1772793866244065000,4.21106494140625,0.14796845614910126,-0.05426936596632004,-0.11558029055595398
1772793866254111000,4.221111083984375,0.1484755277633667,-0.04912414029240608,-0.1480194628238678
1772793866264156000,4.231156005859375,0.15479467809200287,-0.03663798049092293,-0.1703108698129654
1772793866274200800,4.241200927734375,0.1575172394514084,-0.030181676149368286,-0.18700383603572845
1772793866284247000,4.2512470703125,0.16697074472904205,-0.031707681715488434,-0.1929539442062378
1772793866294292000,4.2612919921875,0.1753767430782318,-0.03301263228058815,-0.19214648008346558
1772793866304338000,4.271337890625,0.1812126189470291,-0.02528521977365017,-0.17774206399917603
1772793866314383000,4.281383056640625,0.1855091005563736,-0.01974717527627945,-0.16365528106689453
1772793866324427800,4.291427734375,0.18679314851760864,-0.013803740963339806,-0.14327478408813477
1772793866334473700,4.3014736328125,0.1841275840997696,-0.0006282846443355083,-0.1186639815568924
1772793866344519000,4.311518798828125,0.17934906482696533,0.00975767895579338,-0.08702844381332397
1772793866354563800,4.321563720703125,0.165908083319664,0.018864091485738754,-0.047943364828825
1772793866364610000,4.331610107421875,0.14460550248622894,0.023327942937612534,-0.010349828749895096
1772793866374655000,4.341655029296875,0.12160830944776535,0.022482655942440033,0.032622139900922775
1772793866384701000,4.351700927734375,0.09933476895093918,0.014804382808506489,0.06955541670322418
1772793866394745900,4.361745849609375,0.0773429200053215,-0.007443399168550968,0.10051093250513077
1772793866404790800,4.371790771484375,0.05058242380619049,-0.02805297262966633,0.12467154860496521
1772793866414837800,4.381837646484375,0.029434259980916977,-0.041696880012750626,0.12982237339019775
1772793866424883000,4.391883056640625,0.009516602382063866,-0.03932847082614899,0.12615132331848145
1772793866434929000,4.401928955078125,-0.004828781355172396,-0.030436178669333458,0.10540901124477386
1772793866444973800,4.411973876953125,-0.012850543484091759,-0.020323580130934715,0.08063232153654099
1772793866455020000,4.42202001953125,-0.017199750989675522,-0.007189667783677578,0.057629793882369995
1772793866465065000,4.43206494140625,-0.027124755084514618,-0.003692615544423461,0.035166967660188675
1772793866475110100,4.442110107421875,-0.03497042879462242,-0.0029658388812094927,0.019087597727775574
1772793866485155800,4.45215576171875,-0.03974100202322006,0.0004789559170603752,0.016878535971045494
1772793866495200800,4.46220068359375,-0.05243708938360214,-0.008573394268751144,0.016445772722363472
1772793866505246000,4.472245849609375,-0.06719813495874405,-0.022966178134083748,0.02262028120458126
1772793866515292000,4.4822919921875,-0.08453185111284256,-0.038464710116386414,0.03181378170847893
1772793866525337000,4.492337158203125,-0.09697168320417404,-0.0422079972922802,0.042176809161901474
1772793866535383000,4.502383056640625,-0.10113473981618881,-0.04142475873231888,0.05031596124172211
1772793866545428000,4.512427978515625,-0.10275284945964813,-0.0339762344956398,0.05668628588318825
1772793866555473000,4.522472900390625,-0.09765050560235977,-0.024011217057704926,0.06563131511211395
1772793866565518800,4.532518798828125,-0.09431411325931549,-0.013767298310995102,0.06816526502370834
1772793866575564000,4.54256396484375,-0.08759389817714691,-0.011940370313823223,0.06375453621149063
1772793866585609000,4.55260888671875,-0.08004900068044662,-0.006989468354731798,0.05569079518318176
1772793866595655000,4.562655029296875,-0.07140730321407318,0.00501686055213213,0.04868534952402115
1772793866605700000,4.5727001953125,-0.0656183511018753,0.01005595363676548,0.04283101111650467
1772793866615746000,4.58274609375,-0.05849253386259079,0.007901988923549652,0.030637729912996292
1772793866625790700,4.592790771484375,-0.050425704568624496,0.013131553307175636,0.013132196851074696
1772793866635836000,4.6028359375,-0.038322173058986664,0.030024515464901924,0.00777258537709713
1772793866645881900,4.6128818359375,-0.03119371086359024,0.05098899081349373,0.007041502743959427
1772793866655927000,4.622927001953125,-0.020333606749773026,0.04335504025220871,0.009127023629844189
1772793866665972000,4.632971923828125,-0.00565806869417429,0.02792906016111374,0.012568069621920586
1772793866676018000,4.643017822265625,-0.00011070375330746174,0.023461073637008667,0.018344733864068985
1772793866686063000,4.65306298828125,-0.0009633820154704154,0.023842493072152138,0.02786007523536682
1772793866696108800,4.66310888671875,-0.0036169555969536304,0.021607033908367157,0.031741634011268616
1772793866706154000,4.673154052734375,-0.005951293278485537,0.024365650489926338,0.024861598387360573
1772793866716199000,4.683198974609375,-0.003221020568162203,0.0322030708193779,0.022096438333392143
1772793866726244900,4.693244873046875,0.004133499693125486,0.029893783852458,0.01992662623524666
1772793866736290000,4.7032900390625,0.006368158385157585,0.013480456545948982,0.008368240669369698
1772793866746335000,4.7133349609375,0.009402895346283913,0.014517547562718391,-0.005045434460043907
1772793866756381000,4.723380859375,0.01378299668431282,0.026593385264277458,-0.013546244241297245
1772793866766425900,4.73342578125,0.016857093200087547,0.03300770744681358,-0.017084363847970963
1772793866776471800,4.743471923828125,0.019676849246025085,0.03435420244932175,-0.027616366744041443
1772793866786517000,4.75351708984375,0.02076522819697857,0.04002677649259567,-0.03367077559232712
1772793866796562000,4.76356201171875,0.016102032735943794,0.04532060772180557,-0.030226510018110275
1772793866806608000,4.77360791015625,0.013918285258114338,0.038238853216171265,-0.023076899349689484
1772793866816653000,4.783653076171875,0.006685672327876091,0.03304515779018402,-0.006676620803773403
1772793866826697700,4.79369775390625,-0.003096129046753049,0.02147628925740719,0.012421018444001675
1772793866836744000,4.803743896484375,-0.01049385778605938,0.006795080844312906,0.025257721543312073
1772793866846788900,4.813788818359375,-0.01735600456595421,0.0040138717740774155,0.03034094162285328
1772793866856834800,4.823834716796875,-0.021501479670405388,0.0046983035281300545,0.03788194805383682
1772793866866880000,4.8338798828125,-0.022222205996513367,0.010733405128121376,0.03770055994391441
1772793866876925000,4.843925048828125,-0.023822499439120293,0.00871526263654232,0.03137022629380226
1772793866886971000,4.853970947265625,-0.018152641132473946,0.00476942490786314,0.02784857526421547
1772793866897016000,4.86401611328125,-0.01595446839928627,-0.004561492241919041,0.023601632565259933
1772793866907060700,4.874060791015625,-0.01222646702080965,-0.006299556232988834,0.018936797976493835
1772793866917107000,4.88410693359375,-0.01219584047794342,-0.006694769486784935,0.012952142395079136
1772793866927151900,4.89415185546875,-0.013128990307450294,-0.002444701036438346,0.0014199011493474245
1772793866937197800,4.90419775390625,-0.014839272014796734,0.011311590671539307,-0.0025287677999585867
1772793866947243000,4.914242919921875,-0.01698346994817257,0.02136983349919319,-0.0025917983148247004
1772793866957288000,4.924287841796875,-0.021167030557990074,0.011616803705692291,0.0001200985861942172
1772793866967334100,4.934334228515625,-0.026138031855225563,0.004765513818711042,0.012911505997180939
1772793866977378800,4.94437890625,-0.031494978815317154,0.0018464229069650173,0.028523489832878113
1772793866987424000,4.954424072265625,-0.0359078049659729,-0.010482121258974075,0.036379747092723846
1772793866997470000,4.964469970703125,-0.04210125282406807,-0.012355122715234756,0.03882346302270889
1772793867007515000,4.974514892578125,-0.045412372797727585,0.00038427719846367836,0.03685629740357399
1772793867017560800,4.984560791015625,-0.043601423501968384,0.0008170409128069878,0.025922158733010292
1772793867027606000,4.99460595703125,-0.040302298963069916,-0.0025009915698319674,0.009593785740435123
1772793867037651000,5.00465087890625,-0.03790305554866791,0.00284610316157341,-0.00911358930170536
1772793867047697000,5.01469677734375,-0.028148408979177475,0.0049477992579340935,-0.023357460275292397
1772793867057741800,5.024741943359375,-0.02318081445991993,-0.009047645144164562,-0.03921631723642349
1772793867067787000,5.034787109375,-0.013207308948040009,-0.014747636392712593,-0.05638086050748825
1772793867077833000,5.0448330078125,0.0019362238235771656,-0.0070582907646894455,-0.06531629711389542
1772793867087878000,5.0548779296875,0.016011884436011314,-0.006298001855611801,-0.07565683871507645
1772793867097924000,5.064924072265625,0.031112540513277054,-0.008207222446799278,-0.07530397176742554
1772793867107969000,5.074968994140625,0.04195079579949379,-0.007989739067852497,-0.0704696848988533
1772793867118014000,5.085013916015625,0.049740277230739594,-0.01797366328537464,-0.06384214758872986
1772793867128059600,5.0950595703125,0.053796492516994476,-0.02574835531413555,-0.04910270497202873
1772793867138104600,5.1051044921875,0.056317705661058426,-0.02358187362551689,-0.03736056387424469
1772793867148149800,5.115149658203125,0.05889715999364853,-0.01654658652842045,-0.021547691896557808
1772793867158195700,5.12519580078125,0.05987054482102394,-0.001146324910223484,-0.006838253233581781
1772793867168241000,5.135240966796875,0.058408223092556,0.008887330070137978,0.010768216103315353
1772793867178286800,5.145286865234375,0.05781540274620056,0.010297207161784172,0.02741776593029499
1772793867188331800,5.155331787109375,0.051196083426475525,0.005616674665361643,0.04585063457489014
1772793867198376700,5.165376708984375,0.04390248656272888,-0.0062692794017493725,0.05986951291561127
1772793867208422700,5.175422607421875,0.033513255417346954,-0.017835360020399094,0.06284286826848984
1772793867218467800,5.1854677734375,0.02626813016831875,-0.023382458835840225,0.06554597616195679
1772793867228512800,5.1955126953125,0.02303217723965645,-0.012298690155148506,0.05547894164919853
1772793867238558700,5.205558837890625,0.018322110176086426,0.0033479132689535618,0.03710978850722313
1772793867248604000,5.21560400390625,0.016906118020415306,0.01890273578464985,0.022900912910699844
1772793867258649900,5.22564990234375,0.012785408645868301,0.034572239965200424,0.009281774051487446
1772793867268694500,5.235694580078125,0.009753324091434479,0.042328011244535446,0.007868411019444466
1772793867278739700,5.24573974609375,0.004626206588000059,0.04481487348675728,0.006185292266309261
1772793867288785700,5.25578564453125,-0.0026919152587652206,0.034070421010255814,0.01418378483504057
1772793867298830800,5.265830810546875,-0.005643763113766909,0.023379959166049957,0.022784730419516563
1772793867308875800,5.275875732421875,-0.010205501690506935,0.014982114546000957,0.0360385961830616
1772793867318921700,5.285921630859375,-0.015627965331077576,0.007139904424548149,0.045097868889570236
1772793867328966700,5.295966552734375,-0.023023083806037903,-0.0010548662394285202,0.050990402698516846
1772793867339012600,5.3060126953125,-0.023532280698418617,0.0004183943383395672,0.047560516744852066
1772793867349057800,5.316057861328125,-0.029416948556900024,0.003879718016833067,0.04836996644735336
1772793867359102700,5.326102783203125,-0.030805520713329315,0.0040520248003304005,0.0413069948554039
1772793867369148700,5.336148681640625,-0.028393391519784927,0.004588512238115072,0.034331440925598145
1772793867379193900,5.34619384765625,-0.028267424553632736,0.002359712030738592,0.028003238141536713
1772793867389238800,5.35623876953125,-0.021917764097452164,-0.004828117322176695,0.01931631937623024
1772793867399284700,5.36628466796875,-0.01223770622164011,-0.007667579688131809,0.0006765887374058366
1772793867409329700,5.37632958984375,0.00024603004567325115,-0.002294203732162714,-0.011355907656252384
1772793867419375600,5.386375732421875,0.013263827189803123,0.008741136640310287,-0.020367246121168137
1772793867429420800,5.3964208984375,0.025012757629156113,0.010371635667979717,-0.027031803503632545
1772793867439465700,5.4064658203125,0.034346871078014374,0.01243771705776453,-0.0264485701918602
1772793867449511700,5.41651171875,0.036605581641197205,0.006657788064330816,-0.02310122549533844
1772793867459556900,5.426556884765625,0.04086211323738098,-0.004743470810353756,-0.013824903406202793
1772793867469601500,5.4366015625,0.036209698766469955,-0.013220733031630516,-0.009607519023120403
1772793867479647700,5.446647705078125,0.035362280905246735,-0.023515183478593826,-0.0031970241107046604
1772793867489692700,5.456692626953125,0.03623902425169945,-0.02996533177793026,-0.0034194637555629015
1772793867499738600,5.466738525390625,0.04113497957587242,-0.02798793464899063,-0.007430450525134802
1772793867509783800,5.47678369140625,0.03977782279253006,-0.019818518310785294,-0.008007713593542576
1772793867519828700,5.486828857421875,0.042157355695962906,-0.012989640235900879,-0.013436833396553993
1772793867529874700,5.496874755859375,0.042447831481695175,-0.003930253442376852,-0.01763799414038658
1772793867539919600,5.506919677734375,0.04360524192452431,0.002707941457629204,-0.02652709372341633
1772793867549964500,5.516964599609375,0.04324410855770111,0.003340611234307289,-0.03065408207476139
1772793867560010800,5.5270107421875,0.03716384246945381,0.004510804079473019,-0.028048977255821228
1772793867570055700,5.5370556640625,0.027453502640128136,0.0002600201405584812,-0.021578539162874222
1772793867580100900,5.547100830078125,0.016485806554555893,-0.003994113299995661,-0.0072611188516020775
1772793867590146800,5.557146728515625,0.00902169942855835,-0.016602106392383575,0.001986041199415922
1772793867600191700,5.567191650390625,0.00006229337304830551,-0.02674395591020584,0.011951589956879616
1772793867610238000,5.577238037109375,-0.006475060246884823,-0.028715258464217186,0.01725350320339203
1772793867620282600,5.58728271484375,-0.01329008862376213,-0.02435166761279106,0.015350675210356712
1772793867630327800,5.597327880859375,-0.01652122288942337,-0.01621471345424652,0.01273014210164547
1772793867640373800,5.607373779296875,-0.017699403688311577,-0.007497389335185289,0.006329501047730446
1772793867650418700,5.617418701171875,-0.018697991967201233,-0.0023163920268416405,-0.0004766708007082343
1772793867660463900,5.6274638671875,-0.018846862018108368,0.004535122308880091,-0.0020844212267547846
1772793867670509800,5.637509765625,-0.019811715930700302,0.008421571925282478,-0.0011851823655888438
1772793867680554800,5.6475546875,-0.0215960331261158,0.005760274827480316,-0.0003284434787929058
1772793867690600700,5.6576005859375,-0.0271688811480999,0.005749817471951246,0.004877522587776184
1772793867700645600,5.667645751953125,-0.028595803305506706,0.005126637872308493,0.014810048043727875
1772793867710690800,5.67769091796875,-0.02905914932489395,0.008729755878448486,0.023291239514946938
1772793867720736800,5.68773681640625,-0.03135239705443382,0.0026188655756413937,0.028651917353272438
1772793867730781700,5.69778173828125,-0.02836954966187477,0.001989210955798626,0.0363026037812233
1772793867740827000,5.707826904296875,-0.027322394773364067,0.004610559903085232,0.03982383385300636
1772793867750872600,5.71787255859375,-0.02201027236878872,0.006268391385674477,0.042645808309316635
1772793867760917800,5.727917724609375,-0.018420331180095673,0.001358321402221918,0.03956719487905502
1772793867770963700,5.737963623046875,-0.015574326738715172,-0.009962468408048153,0.03519939258694649
1772793867781008600,5.748008544921875,-0.008441582322120667,-0.008932624012231827,0.02870713733136654
1772793867791053800,5.7580537109375,-0.0075774407014250755,-0.0037631189916282892,0.018690476194024086
1772793867801099800,5.768099853515625,-0.0033949464559555054,0.0049645924009382725,0.010210173204541206
1772793867811144700,5.778144775390625,-0.0002861949906218797,0.009871326386928558,0.001515574287623167
1772793867821189600,5.788189697265625,0.004422539845108986,0.004319168161600828,-0.003530050627887249
1772793867831235600,5.798235595703125,0.006186914164572954,-0.008208369836211205,-0.01137488428503275
1772793867841280800,5.80828076171875,0.006662820931524038,-0.016089195385575294,-0.00674710888415575
1772793867851326700,5.81832666015625,0.01052611880004406,-0.01266329176723957,-0.009047434665262699
1772793867861371600,5.82837158203125,0.012221220880746841,-0.008391846902668476,-0.0047392393462359905
1772793867871416800,5.838416748046875,0.011555387638509274,0.006594432983547449,-0.002673514885827899
1772793867881462800,5.848462890625,0.01769503951072693,0.013421446084976196,-0.0059073916636407375
1772793867891507700,5.8585078125,0.013938802294433117,0.001884940080344677,-0.0074051059782505035
1772793867901552600,5.868552734375,0.005918959155678749,-0.00483448151499033,-0.004752065055072308
1772793867911598600,5.8785986328125,-0.012326166965067387,-0.011361243203282356,0.002102621365338564
1772793867921643800,5.888643798828125,-0.041415609419345856,-0.023001654073596,0.0010727773187682033
1772793867931688700,5.898688720703125,-0.06737127900123596,-0.04024799168109894,-0.003125762101262808
1772793867941735000,5.90873486328125,-0.09214559942483902,-0.04754451662302017,-0.012292361818253994
1772793867951779800,5.91877978515625,-0.10375803709030151,-0.04025588184595108,-0.013517526909708977
1772793867961825800,5.92882568359375,-0.09620770812034607,-0.026461506262421608,-0.014725537039339542
1772793867971870700,5.93887060546875,-0.08056944608688354,-0.017277048900723457,-0.013360047712922096
1772793867981915600,5.94891552734375,-0.06261201947927475,-0.004205456003546715,-0.010477975010871887
1772793867991961600,5.958961669921875,-0.04792536422610283,0.0116560785099864,-0.00024519721046090126
1772793868002006800,5.9690068359375,-0.03692810609936714,0.0273897685110569,0.016910620033740997
1772793868012051700,5.9790517578125,-0.029179062694311142,0.037413232028484344,0.03176768869161606
1772793868022098000,5.989097900390625,-0.031794555485248566,0.026157114654779434,0.05909198522567749
1772793868032142600,5.999142578125,-0.03549141809344292,0.010619058273732662,0.08193391561508179
1772793868042188500,6.0091884765625,-0.04181962087750435,-0.004031256772577763,0.10636309534311295
1772793868052233700,6.019233642578125,-0.04108109325170517,-0.011664647608995438,0.1236426830291748
1772793868062278700,6.029278564453125,-0.039420079439878464,-0.0078270323574543,0.13111896812915802
1772793868072324900,6.039324951171875,-0.03557925671339035,-0.0000821962021291256,0.12629348039627075
1772793868082369800,6.049369873046875,-0.027736250311136246,0.0006240741349756718,0.1193961575627327
1772793868092414700,6.059414794921875,-0.026553604751825333,-0.002084682695567608,0.1014881283044815
1772793868102460700,6.069460693359375,-0.02509951964020729,0.0003672894090414047,0.08119137585163116
1772793868112505600,6.079505615234375,-0.021853923797607422,0.009772242978215218,0.062142323702573776
1772793868122551600,6.089551513671875,-0.023068325594067574,0.02025151625275612,0.04568452015519142
1772793868132596700,6.0995966796875,-0.027856411412358284,0.014533007517457008,0.037255771458148956
1772793868142641700,6.1096416015625,-0.035559073090553284,0.006295585073530674,0.03650955483317375
1772793868152687900,6.11968798828125,-0.04636028781533241,-0.005479288287460804,0.042384952306747437
1772793868162732800,6.12973291015625,-0.04806950315833092,-0.012188322842121124,0.05631035566329956
1772793868172777700,6.13977783203125,-0.04773084819316864,-0.005087355151772499,0.06117188557982445
1772793868182823700,6.14982373046875,-0.0440564826130867,-0.006713747512549162,0.06151836737990379
1772793868192868600,6.15986865234375,-0.04250568524003029,-0.012618381530046463,0.06454886496067047
1772793868202914800,6.169914794921875,-0.044397592544555664,-0.01902834326028824,0.062173858284950256
1772793868212959700,6.179959716796875,-0.04462847858667374,-0.026295745745301247,0.05656113848090172
1772793868223005000,6.1900048828125,-0.04057754576206207,-0.024950051680207253,0.04380326345562935
1772793868233051000,6.20005078125,-0.04105876758694649,-0.02341810241341591,0.030145131051540375
1772793868243095600,6.210095458984375,-0.03655589371919632,-0.020989298820495605,0.014785614795982838
1772793868253140700,6.220140625,-0.028297729790210724,-0.013469360768795013,0.001495708362199366
1772793868263186700,6.230186767578125,-0.02213863655924797,-0.0066996049135923386,-0.006549168843775988
1772793868273232000,6.24023193359375,-0.016874058172106743,-0.0032203246373683214,-0.012731341645121574
1772793868283276800,6.25027685546875,-0.013300095684826374,0.0021720435470342636,-0.012911636382341385
1772793868293322800,6.26032275390625,-0.01297084242105484,0.0033635273575782776,-0.008182749152183533
1772793868303367700,6.27036767578125,-0.01803670823574066,0.005449848249554634,-0.002175722736865282
1772793868313413600,6.28041357421875,-0.0185406431555748,0.0017131105996668339,0.004819467663764954
1772793868323458600,6.29045849609375,-0.02137158252298832,-0.010616792365908623,0.018078014254570007
1772793868333503700,6.300503662109375,-0.028168557211756706,-0.011145386844873428,0.03354114666581154
1772793868343549700,6.3105498046875,-0.0331161767244339,0.001243105623871088,0.05131695047020912
1772793868353595000,6.320594970703125,-0.027089634910225868,0.007825528271496296,0.05599561333656311
1772793868363639800,6.330639892578125,-0.01800665631890297,0.013556649908423424,0.05917782336473465
1772793868373685800,6.340685791015625,-0.00884214323014021,0.017248716205358505,0.056961897760629654
1772793868383730700,6.350730712890625,-0.012119961902499199,0.02342378720641136,0.05356636643409729
1772793868393776600,6.360776611328125,-0.014598120003938675,0.028220687061548233,0.05395474284887314
1772793868403821800,6.37082177734375,-0.0223242174834013,0.05522460862994194,0.0793602392077446
1772793868413866800,6.38086669921875,-0.03282426297664642,0.042076315730810165,0.1048022136092186
1772793868423912700,6.39091259765625,-0.032296691089868546,0.021030951291322708,0.1265232115983963
1772793868433958000,6.4009580078125,-0.0273938849568367,0.00028610508888959885,0.14681434631347656
1772793868444002600,6.41100244140625,-0.031269583851099014,-0.0065941717475652695,0.1581844538450241
1772793868454048500,6.421048583984375,-0.03582943603396416,0.004601588938385248,0.17287354171276093
1772793868464093700,6.43109375,-0.04245191812515259,0.022310545668005943,0.1692870706319809
1772793868474139600,6.4411396484375,-0.041307397186756134,0.03268476203083992,0.1619071066379547
1772793868484184800,6.451184814453125,-0.031451039016246796,0.033021919429302216,0.1514510065317154
1772793868494229800,6.461229736328125,-0.017398113384842873,0.02726137638092041,0.13095895946025848
1772793868504275700,6.471275634765625,-0.00697103887796402,0.018021805211901665,0.11156821995973587
1772793868514320600,6.481320556640625,0.00443149683997035,0.02098514512181282,0.09003286063671112
1772793868524365600,6.491365478515625,0.014364555478096008,0.029575970023870468,0.06177991256117821
1772793868534411800,6.501411865234375,0.01793265901505947,0.04049413278698921,0.04000244289636612
1772793868544456700,6.511456787109375,0.020173707976937294,0.05418224632740021,0.03437385335564613
1772793868554502000,6.521501953125,0.018807006999850273,0.058748263865709305,0.03585556894540787
1772793868564547800,6.5315478515625,0.00783132016658783,0.0434902161359787,0.051074471324682236
1772793868574592800,6.5415927734375,-0.00040077633457258344,0.019584085792303085,0.06233698129653931
1772793868584638700,6.551638671875,-0.006796922534704208,0.0033773910254240036,0.0738176703453064
1772793868594683600,6.56168359375,-0.005070161074399948,-0.007538135629147291,0.07815175503492355
1772793868604728600,6.571728515625,0.0014705621870234609,-0.00512611074373126,0.07803564518690109
1772793868614774800,6.58177490234375,0.002276977989822626,0.009161846712231636,0.08267742395401001
1772793868624819700,6.59181982421875,-0.0014413273893296719,0.012589601799845695,0.08526228368282318
1772793868634865000,6.601864990234375,-0.008781829848885536,0.013413023203611374,0.09115246683359146
1772793868644910800,6.611910888671875,-0.0050717806443572044,0.013678006827831268,0.09235142171382904
1772793868654955500,6.62195556640625,-0.010992893017828465,0.012825345620512962,0.0982208102941513
1772793868665001700,6.632001708984375,-0.010802743025124073,0.0025146515108644962,0.10460706800222397
1772793868675046700,6.642046630859375,-0.009521390311419964,-0.01152295432984829,0.10717564076185226
1772793868685091800,6.652091796875,-0.011288929730653763,-0.029845235869288445,0.10244294255971909
1772793868695137800,6.6621376953125,-0.006273867096751928,-0.04576129466295242,0.0998491570353508
1772793868705182700,6.6721826171875,-0.00475080544129014,-0.04142273962497711,0.09531432390213013
1772793868715228000,6.682227783203125,-0.004253359045833349,-0.030624182894825935,0.08226703107357025
1772793868725273900,6.69227392578125,0.004995266906917095,-0.017998401075601578,0.0760650634765625
1772793868735318800,6.70231884765625,0.013338982127606869,-0.011224091053009033,0.0683591440320015
1772793868745363700,6.71236376953125,0.013860695995390415,-0.00663067027926445,0.06678308546543121
1772793868755409700,6.72240966796875,0.012984398752450943,-0.0011054249480366707,0.05979190394282341
1772793868765454800,6.732454833984375,0.009176078252494335,0.005180966574698687,0.05294305458664894
1772793868775500800,6.742500732421875,0.007657373324036598,0.012746026739478111,0.04168514162302017
1772793868785545700,6.752545654296875,0.014722472988069057,0.012965206056833267,0.03257579728960991
1772793868795590700,6.762590576171875,0.024086669087409973,0.009264377877116203,0.019169555976986885
1772793868805636600,6.77263671875,0.03753030672669411,0.012238062918186188,0.004474232904613018
1772793868815681800,6.782681884765625,0.04607284069061279,0.028584560379385948,-0.004935160744935274
1772793868825726700,6.792726806640625,0.04749656841158867,0.05519912764430046,-0.023961849510669708
1772793868835772700,6.802772705078125,0.039555639028549194,0.08610136806964874,-0.04342511296272278
1772793868845817900,6.81281787109375,0.027180196717381477,0.0949672982096672,-0.05319145694375038
1772793868855863800,6.82286376953125,0.014628175646066666,0.061750393360853195,-0.03461979702115059
1772793868865908700,6.83290869140625,0.00827493891119957,0.020159270614385605,-0.0025651901960372925
1772793868875953700,6.84295361328125,0.0031366036273539066,-0.007989303208887577,0.03154171630740166
1772793868885999600,6.85299951171875,0.006131594534963369,-0.010522502474486828,0.05747930705547333
1772793868896044800,6.863044921875,0.003381891641765833,0.008382044732570648,0.07210953533649445
1772793868906089700,6.87308984375,0.004791236482560635,0.0330602303147316,0.07357534021139145
1772793868916135700,6.8831357421875,0.01729055866599083,0.043941229581832886,0.0721045583486557
1772793868926180900,6.893180908203125,0.026457957923412323,0.033411093056201935,0.07261189073324203
1772793868936226800,6.903226806640625,0.03433450311422348,0.02513672038912773,0.07271943986415863
1772793868946271700,6.913271728515625,0.038207538425922394,0.01946685090661049,0.07544013112783432
1772793868956316700,6.923316650390625,0.038127601146698,0.008640973828732967,0.08472142368555069
1772793868966362600,6.933362548828125,0.03596671298146248,-0.004926234018057585,0.0804278776049614
1772793868976407800,6.94340771484375,0.02596437744796276,-0.019581371918320656,0.074948750436306
1772793868986452700,6.95345263671875,0.023630384355783463,-0.02315613254904747,0.05698173865675926
1772793868996499000,6.9634990234375,0.026753580197691917,-0.014443418011069298,0.04066450521349907
1772793869006543600,6.973543701171875,0.03267352283000946,-0.0023609225172549486,0.018132565543055534
1772793869016588800,6.9835888671875,0.03297343850135803,0.0040891133248806,0.010779401287436485
1772793869026634800,6.993634765625,0.0377090722322464,0.013755854219198227,0.002544107846915722
1772793869036679700,7.0036796875,0.038170330226421356,0.01880781352519989,-0.0060506039299070835
1772793869046725600,7.0137255859375,0.036117564886808395,0.020352713763713837,-0.009089536964893341
1772793869056770800,7.023770751953125,0.04000665247440338,0.021099884063005447,-0.013768156059086323
1772793869066815500,7.0338154296875,0.042983800172805786,0.016500338912010193,-0.018309645354747772
1772793869076861700,7.04386181640625,0.04350708797574043,0.00980202667415142,-0.01684788055717945
1772793869086906600,7.05390673828125,0.042923323810100555,-0.0007315739057958126,-0.02050413377583027
1772793869096951800,7.063951904296875,0.038079313933849335,-0.009481767192482948,-0.020130176097154617
1772793869106997800,7.073997802734375,0.031184121966362,-0.0062859742902219296,-0.023230362683534622
1772793869117042700,7.084042724609375,0.024656958878040314,0.002177564427256584,-0.024555489420890808
1772793869127087900,7.094087890625,0.02138553187251091,0.002748279832303524,-0.024608220905065536
1772793869137133800,7.1041337890625,0.02093632146716118,-0.006990309804677963,-0.01725003868341446
1772793869147178800,7.1141787109375,0.021644720807671547,-0.02556319534778595,-0.014865178614854813
1772793869157224700,7.124224609375,0.023590223863720894,-0.03589833527803421,-0.01848960667848587
1772793869167269600,7.13426953125,0.03239702805876732,-0.026609761640429497,-0.02672942541539669
1772793869177314800,7.144314697265625,0.03103320673108101,-0.015905115753412247,-0.03744683042168617
1772793869187360800,7.15436083984375,0.035283878445625305,-0.0023802518844604492,-0.05147609859704971
1772793869197405700,7.16440576171875,0.041667837649583817,0.00767027772963047,-0.05540354922413826
1772793869207450600,7.17445068359375,0.037261370569467545,0.0030606118962168694,-0.050389613956213
1772793869217496600,7.18449658203125,0.033358924090862274,-0.012521498836576939,-0.039907634258270264
1772793869227541800,7.194541748046875,0.027593445032835007,-0.006797567009925842,-0.02912423014640808
1772793869237587700,7.204587646484375,0.017085187137126923,0.0003022802993655205,-0.006554117426276207
1772793869247632600,7.214632568359375,0.005406160373240709,-0.013920331373810768,0.01665186882019043
1772793869257677800,7.224677734375,0.0010520520154386759,-0.029472842812538147,0.02603396214544773
1772793869267723800,7.234723876953125,0.00224221870303154,-0.03554990887641907,0.02765236608684063
1772793869277768700,7.244768798828125,0.004586630966514349,-0.028781723231077194,0.009290335699915886
1772793869287813600,7.254813720703125,0.006229535210877657,0.011721227318048477,-0.021992219612002373
1772793869297859600,7.264859619140625,0.0041520241647958755,0.06277555227279663,-0.05475651100277901
1772793869307904800,7.27490478515625,0.007028770633041859,0.09506398439407349,-0.08647875487804413
1772793869317950700,7.28495068359375,-0.007827406749129295,0.08989132195711136,-0.09293905645608902
1772793869327996000,7.294995849609375,-0.0237408597022295,0.05963115766644478,-0.06894929707050323
1772793869338040800,7.305040771484375,-0.03138243407011032,0.026141932234168053,-0.034814585000276566
1772793869348086800,7.315086669921875,-0.027449745684862137,-0.008449599146842957,0.009674851782619953
1772793869358131700,7.325131591796875,-0.020482247695326805,-0.03399895504117012,0.06030942499637604
