time,seconds_elapsed,z,y,x
1772794417095543800,0.064543701171875,-0.4391162244081497,1.9344724174387753,0.6776410490192473
1772794417105588700,0.074588623046875,-0.7796767975181341,1.927862205518782,0.5869340653948486
1772794417115633000,0.0846328125,-0.8853764753520488,1.6908504158191382,0.3019900194361806
1772794417125677800,0.094677734375,-0.849541776382923,1.2676396165512502,0.4424789057742804
1772794417135722800,0.10472265625,-0.8615285667747259,0.963800754377991,0.6059203592851757
1772794417145767700,0.114767578125,-0.7233639586657286,0.8845057569321244,0.5717089506689459
1772794417155811800,0.124811767578125,-0.48777241102755065,0.91291337464042,0.38262466798797246
1772794417165856800,0.134856689453125,-0.08812310461103916,0.9811550631523132,0.0062060880985111
1772794417175901700,0.144901611328125,0.2852349917292595,0.8763760072946548,-0.38736342348027974
1772794417185946600,0.154946533203125,0.5705559081763029,0.5223544065218418,-0.20350746990684418
1772794417195990800,0.16499072265625,0.724836369305849,0.1760675099206157,0.022148301585204897
1772794417206036000,0.175035888671875,0.7814227644026279,-0.27165572624793277,0.22691263968534767
1772794417216080600,0.18508056640625,0.6208838274002075,-0.8158721464931964,0.319711407957226
1772794417226125800,0.195125732421875,0.5109615634351968,-1.436943897680938,0.3568663957446813
1772794417236170800,0.205170654296875,0.41331542819738387,-1.9167324703477322,0.3586962415203452
1772794417246215000,0.21521484375,0.17357669775187967,-1.9640628151908515,-0.07974062232151627
1772794417256259600,0.225259521484375,-0.12321604530215263,-1.3226836045116186,-1.130460731543973
1772794417266304800,0.2353046875,-0.49877895821034907,-1.0018839629262686,-1.7507983963035045
1772794417276349700,0.245349609375,-0.7848749506831169,-1.383070414804667,-2.115537863510847
1772794417286393600,0.2553935546875,-0.925156697076559,-1.9150380875200033,-2.211003439839184
1772794417296438800,0.265438720703125,-0.8446709554761648,-1.9680647443085908,-2.3303484889268873
1772794417306483700,0.275483642578125,-0.8742898486703634,-1.820018209132552,-2.548271401144564
1772794417316529000,0.28552880859375,-0.7404957107305526,-1.5161657568253575,-2.5322525787577033
1772794417326573800,0.29557373046875,-0.6886281608492135,-1.2521058012023567,-2.2022293278835714
1772794417336617700,0.30561767578125,-0.5639028800278901,-0.5379726122185587,-1.3891348294101655
1772794417346662700,0.31566259765625,-0.41934652505517006,0.24489757451340555,-0.4120511073499918
1772794417356707800,0.325707763671875,-0.25685353137552736,0.41252285304758696,0.14296981643363832
1772794417366752800,0.335752685546875,-0.08010463332831859,0.33017818570751695,0.30794304608907547
1772794417376796700,0.345796630859375,0.05902385137677192,0.2625421897375025,0.4133509379021823
1772794417386841900,0.355841796875,0.19083587558865547,0.33066819771416484,0.5404072920195758
1772794417396886800,0.36588671875,0.31869711634814735,0.3656828855372965,0.622906930725649
1772794417406931700,0.375931640625,0.5067138428628445,0.31609698031973094,0.6924750455357134
1772794417416976600,0.3859765625,0.7501590266108512,0.22776061655050142,0.7220121056653559
1772794417427020800,0.396020751953125,0.9839046541213988,0.11844950675377622,0.6673319825813174
1772794417437065700,0.406065673828125,1.165052079388499,0.06735922485524788,0.5642461405076086
1772794417447110700,0.416110595703125,1.2501970449715851,0.10406767445160076,0.45416185438130047
1772794417457155600,0.426155517578125,1.103790678218007,0.1610553255593404,0.49246564687769856
1772794417467199700,0.43619970703125,0.8793705129355192,0.0757304185657762,0.6474433330237865
1772794417477245000,0.446244873046875,0.6509995642006396,-0.06960282079726457,0.6858272780843079
1772794417487289600,0.45628955078125,0.4609223980247974,0.02742649771645665,0.3268523292204365
1772794417497334800,0.466334716796875,0.35815643555521964,0.07638818835476413,-0.0661047495484352
1772794417507379700,0.476379638671875,0.27335107719004154,0.1302226361285895,-0.43628059912342576
1772794417517423900,0.486423828125,0.2976777091950178,0.13029403913067653,-0.6278115808367729
1772794417527468800,0.49646875,0.4050269078016281,0.16276760936994106,-0.8073297974668443
1772794417537513700,0.506513671875,0.6796580879300832,-0.026743538687285035,-0.7917066963993012
1772794417547559000,0.516558837890625,1.1269137796521187,0.05841141856685281,-0.3809193253748119
1772794417557602600,0.5266025390625,1.479962662935257,0.06659634615739342,0.21402583171389997
1772794417567647700,0.536647705078125,1.0601368299305438,-0.4147254776583984,0.4949612265530973
1772794417577692700,0.546692626953125,0.33520167642533777,-0.28814139896156266,-0.23857195168845355
1772794417587737900,0.55673779296875,-0.09029635699689388,0.17329192599374799,-0.6377296751957386
1772794417597782800,0.56678271484375,-0.2978612490683794,0.2414856654443778,-0.5281545441679656
1772794417607826700,0.57682666015625,-0.35735447152256966,-0.1296110435688868,-0.19379187585003674
1772794417617872000,0.586871826171875,-0.539441807988286,-0.31804698187634345,0.06575038315281272
1772794417627916800,0.596916748046875,-0.576751255685091,-0.1868335446121171,-0.0633732787579298
1772794417637962000,0.6069619140625,-0.6373784506052732,-0.23510288733839987,-0.0504486960593611
1772794417648005600,0.617005615234375,-0.7457751124382018,-0.2999030936269089,-0.010827464288845658
1772794417658050800,0.62705078125,-0.6876654532968998,-0.28265071085710075,0.022661621402204034
1772794417668095700,0.637095703125,-0.7041571538925171,-0.2561537856083363,-0.0557042785000056
1772794417678140700,0.647140625,-0.6220078629940747,-0.23248477726187555,0.020966142595931887
1772794417688185600,0.657185546875,-0.49281741945743557,-0.3720475251983851,0.7873974548980593
1772794417698229800,0.667229736328125,-0.4002466877877712,-0.3292137245895341,0.36016974813900887
1772794417708274700,0.677274658203125,-0.21202537861168383,0.11136687328275292,-0.10534385013356805
1772794417718319600,0.687319580078125,-0.21142624367475507,0.14486169459484516,-0.21029314799159765
1772794417728364800,0.69736474609375,-0.33919103832244873,-0.02781304934863001,0.15128697840198874
1772794417738408700,0.70740869140625,-0.2912520600616932,-0.04872472181096673,0.23420637689009308
1772794417748453600,0.71745361328125,-0.10400573339760302,-0.11268818501438944,0.3194583099789917
1772794417758498600,0.72749853515625,0.149482120937109,-0.20477091397140174,0.3162953159034252
1772794417768543700,0.737543701171875,0.434947414290905,-0.15798578192088752,0.18298925374150274
1772794417778588700,0.747588623046875,0.5227963781356811,-0.1057702588520944,0.21669906951114534
1772794417788632600,0.757632568359375,0.3528682660192251,-0.07298274555914104,0.26209274720326065
1772794417798677800,0.767677734375,0.13264087625145912,-0.0263119058043696,0.24494492078647015
1772794417808722700,0.77772265625,-0.02956862431168556,0.07730599731942639,0.2005567668750882
1772794417818768000,0.787767822265625,-0.06958265479207039,0.10626995200254022,0.17040742006599902
1772794417828812500,0.7978125,-0.061276598739624016,0.12873862638222053,0.14174275885671375
1772794417838856700,0.807856689453125,-0.05500584790706634,0.12730452019218355,0.11722060427963733
1772794417848901600,0.817901611328125,-0.10511340237855911,0.024953878791537133,-0.00039002223089337345
1772794417858946800,0.82794677734375,-0.14318623566329478,-0.10776435527876019,-0.13610424151308834
1772794417868991500,0.837991455078125,-0.019056582647562027,-0.18636698654629288,-0.24459018906466662
1772794417879035600,0.84803564453125,0.1548322497934103,-0.2142260304611176,-0.2595831024698913
1772794417889080800,0.858080810546875,0.33041970284581185,-0.172340233025793,-0.2641395236652344
1772794417899125800,0.868125732421875,0.4526309550195932,-0.06762836065283044,-0.21615108023956417
1772794417909170700,0.878170654296875,0.45645606626570223,-0.01230193902188912,-0.14700235988534985
1772794417919215600,0.888215576171875,0.38755204138755794,-0.04439734186483547,-0.19145561492219565
1772794417929259800,0.898259765625,0.2837269252538681,-0.03277021509828046,-0.2491793434858322
1772794417939304700,0.9083046875,0.13128887712061404,0.08858409145260229,-0.23390176792033016
1772794417949349600,0.918349609375,-0.0275146143913269,0.1472367166304961,-0.14428784022964536
1772794417959394800,0.928394775390625,-0.09050269322395324,0.09405903399866074,-0.07853606883734464
1772794417969438700,0.938438720703125,-0.16078969689309597,0.01784057618761435,-0.14296901271604
1772794417979483600,0.948483642578125,-0.24507190816700458,-0.11290543536110781,-0.15246544759683311
1772794417989528600,0.958528564453125,-0.26321605214476584,-0.21395192622747272,-0.18961597840487956
1772794417999573800,0.96857373046875,-0.22120587941110134,-0.19538374815136192,-0.227581990314275
1772794418009618700,0.97861865234375,-0.1307505324602127,-0.128366751729371,-0.12310242885984479
1772794418019662600,0.98866259765625,-0.05573007052838802,-0.07053425642848014,-0.027809432619437573
1772794418029707800,0.998707763671875,-0.06093523795604706,-0.0465499441883061,0.004147036676853895
1772794418039752700,1.008752685546875,-0.07745148847103119,-0.0409224368624622,0.027302579075843093
1772794418049798000,1.0187978515625,-0.05252805961668491,-0.04948934037475847,0.031321386263147
1772794418059842800,1.0288427734375,0.00045709611773490905,-0.0003151760295499116,0.0008566898945719003
1772794418069886700,1.03888671875,0.07205927403867245,0.020445587037259245,-0.01681815607100725
1772794418079931600,1.048931640625,0.1706347990810871,0.030139188457967245,0.055742053227126595
1772794418089976800,1.058976806640625,0.23720482805371282,0.020316279835475144,0.10957147776596247
1772794418100021500,1.069021484375,0.27940730848908424,0.04642139960492495,0.1264003013614565
1772794418110066700,1.079066650390625,0.27111469644010067,0.047520634117675944,0.12490472904145716
1772794418120110800,1.08911083984375,0.25945640735030173,0.04909246827797033,0.14379516134187578
1772794418130155800,1.09915576171875,0.23851064995527266,0.08760624113008379,0.18899148983098565
1772794418140200700,1.10920068359375,0.18461480911672115,0.09863947539040818,0.2180002883028239
1772794418150245600,1.11924560546875,0.11589140150249004,0.09673524007112719,0.18846103621609508
1772794418160289800,1.129289794921875,0.06976853275299072,0.1313840628570877,0.14921601734682916
1772794418170334700,1.139334716796875,-0.0021264906346797944,0.12512613497348501,0.11840608773715794
1772794418180379600,1.149379638671875,-0.1293394966185093,0.12483545406437478,0.05841580248102545
1772794418190424600,1.159424560546875,-0.23973522331416605,0.11071958835516124,0.021286752852424977
1772794418200469800,1.1694697265625,-0.2771644979983568,0.06634097402368207,0.024320348394662142
1772794418210514000,1.179513916015625,-0.21272212870419024,0.04114640464433469,0.06156506029218435
1772794418220558600,1.18955859375,-0.16211013184189796,0.07417579126860946,0.10289302291534841
1772794418230603800,1.199603759765625,-0.13936696963608264,0.09753973398758098,0.09676431090198456
1772794418240648700,1.209648681640625,-0.11866495786905289,0.1262149896561168,0.1259155135191977
1772794418250694000,1.21969384765625,-0.11869593752920626,0.13970784636246972,0.17754815866611898
1772794418260737500,1.229737548828125,-0.1600859325379133,0.12069479232938028,0.23809753910973666
1772794418270782700,1.23978271484375,-0.20542788004279136,0.05464058565809391,0.2236246309906244
1772794418280827600,1.24982763671875,-0.1767915681451559,-0.008089107099827379,0.17432970807626844
1772794418290872800,1.259872802734375,-0.11506722563803196,-0.0426020102801267,0.13564780298247933
1772794418300917500,1.26991748046875,-0.03553308567404747,-0.07354589586723595,0.019179039983451364
1772794418310961700,1.279961669921875,-0.0076554831892251965,-0.09773659000024199,-0.012324205652624367
1772794418321006800,1.2900068359375,-0.02225625547170639,-0.07077011101096868,-0.07955255240350961
1772794418331051800,1.3000517578125,-0.05345744942128658,-0.032345249418169256,-0.10704773144200444
1772794418341096700,1.3100966796875,-0.09455576800704002,0.012927487041708081,-0.13706680293492973
1772794418351140900,1.320140869140625,-0.1009790790528059,0.03120915806032717,-0.15250022664926946
1772794418361185800,1.330185791015625,-0.06913257293701172,-0.005196326534077525,-0.21252010332606733
1772794418371230700,1.340230712890625,0.05152092840075492,-0.05923985048132017,-0.26013430661186576
1772794418381275600,1.350275634765625,0.15575930151045322,-0.07120689499303698,-0.2496553634997457
1772794418391320800,1.36032080078125,0.2776297774225473,-0.07281381873302162,-0.2175049060013145
1772794418401364700,1.37036474609375,0.3638742286801338,-0.045058235192671416,-0.19536292455904183
1772794418411409700,1.38040966796875,0.32433073832094667,0.01815875702500343,-0.10692162084430455
1772794418421454600,1.39045458984375,0.21095687259733675,0.05264536585342139,-0.01679236404262483
1772794418431499800,1.400499755859375,0.12321136912703513,0.059107693735323846,-0.003559080721065402
1772794418441544700,1.410544677734375,0.09389116661846637,0.016052688123844562,0.007811331338062882
1772794418451588600,1.420588623046875,0.09212649503350258,-0.07412424374446272,-0.01480111716017127
1772794418461633800,1.4306337890625,0.06906476839780808,-0.11027407307736575,-0.01832980274297297
1772794418471678700,1.4406787109375,0.04797755670547485,-0.13001732281483708,-0.0017857143729925154
1772794418481724000,1.450723876953125,-0.01950257284939289,-0.08807762150149792,0.005104556597396731
1772794418491768600,1.4607685546875,-0.05760229414105415,-0.023436405166983604,0.024869579775258898
1772794418501812700,1.470812744140625,-0.10232289487719536,-0.007016162372380495,0.03439692125096917
1772794418511857700,1.480857666015625,-0.08795710039436817,0.030447599103301762,0.053047699576616286
1772794418521902800,1.49090283203125,-0.032307109364867206,0.04651683650314808,0.061567033053562044
1772794418531947500,1.500947509765625,0.04084872773885727,0.06323474707007408,0.0740336428515613
1772794418541992700,1.51099267578125,0.0684229633629322,0.0796024194272235,0.033601240828633305
1772794418552036900,1.521036865234375,0.12354922277927398,0.0998193510910496,-0.009992401704192161
1772794418562081800,1.531081787109375,0.21595044310092926,0.09167005650289356,-0.007306669751554727
1772794418572126700,1.541126708984375,0.25610885048806664,0.08172101901639252,0.013402356278151274
1772794418582171600,1.551171630859375,0.29181846177279946,0.1279670757541433,0.009177066733315586
1772794418592216800,1.561216796875,0.226762344494462,0.12982337114531545,-0.023118717519938943
1772794418602260700,1.5712607421875,0.09021452393233775,0.09852105490881949,-0.03981390479840338
1772794418612305700,1.5813056640625,-0.07745265751481056,0.11431918374970555,-0.12261822553947567
1772794418622350600,1.5913505859375,-0.20272621986865996,0.109804555869475,-0.14903773817047475
1772794418632395800,1.601395751953125,-0.258152339014411,0.11833419154472648,-0.12869096958190201
1772794418642439700,1.611439697265625,-0.2548778473883867,0.1101852988153696,-0.1269767860751599
1772794418652484400,1.621484375,-0.1581388901233673,0.09635364774186164,-0.15713000534176824
1772794418662529300,1.631529296875,-0.02797171050906181,0.01484283741004765,-0.20250417461581527
1772794418672574200,1.64157421875,0.12554653407633304,-0.011432736705616117,-0.18540873597338794
1772794418682619400,1.651619384765625,0.2393488543450832,-0.04213083997126668,-0.14673523338176309
1772794418692663600,1.66166357421875,0.3142471512019634,-0.04088007272519171,-0.115623836607486
1772794418702708200,1.671708251953125,0.3593775017827749,0.0049805648915469646,-0.057538800450786944
1772794418712753400,1.68175341796875,0.31420740371346473,0.05496668494045734,0.021315686685964463
1772794418722798300,1.69179833984375,0.265754046189785,0.07755589869357644,0.18548486994951963
1772794418732843500,1.701843505859375,0.1661643756687641,0.06837693226411938,0.26322123977653683
1772794418742887200,1.71188720703125,0.02437105566859245,0.05387121785394847,0.2854532375898212
1772794418752932400,1.721932373046875,-0.06659048723876476,0.06352393927499651,0.2639789993412793
1772794418762977300,1.731977294921875,-0.14921967060863972,0.06898797683455049,0.27285752151943743
1772794418773022500,1.7420224609375,-0.1619073027461767,0.05215411173775792,0.20749898722842333
1772794418783067100,1.752067138671875,-0.07037994264960289,0.01963935097157955,0.12370076007917523
1772794418793111300,1.762111328125,0.048043607679009434,-0.01949007869400084,0.06069120006710291
1772794418803156500,1.772156494140625,0.15341712229847906,0.014843568062409758,-0.015416545644775032
1772794418813201400,1.782201416015625,0.2211982806265354,0.017290742018818854,-0.016678893730789422
1772794418823246300,1.792246337890625,0.24513269844353197,0.010359554516151547,-0.04020940692201257
1772794418833291300,1.802291259765625,0.28387305572628974,0.023934417816996574,-0.047090983129292725
1772794418843335400,1.81233544921875,0.2888151883035898,0.0371291957590729,-0.038284576339274644
1772794418853380400,1.82238037109375,0.29143150828182696,0.0713298637855798,-0.08836904219612479
1772794418863425300,1.83242529296875,0.24494974309206008,0.09355236311815679,-0.14453436233662068
1772794418873470200,1.84247021484375,0.18169103062450884,0.10998933785185218,-0.1622435489632189
1772794418883515400,1.852515380859375,0.0913753844052553,0.076483447156474,-0.1393078598599881
1772794418893559600,1.8625595703125,0.007838438540697098,-0.009098740800097585,-0.15184351630620657
1772794418903604200,1.872604248046875,0.0013864859223365782,-0.038645299410447476,-0.16148776215985416
1772794418913649400,1.8826494140625,0.02047989344894886,-0.044929713442176576,-0.1821774989672005
1772794418923694300,1.8926943359375,0.0674509034603834,-0.01538447000607848,-0.07460815480388701
1772794418933739500,1.902739501953125,0.08370178103744984,-0.03598893968276679,0.006352949223294854
1772794418943783200,1.912783203125,0.10547346786260604,-0.012603607115894555,0.05223696771562099
1772794418953828400,1.922828369140625,0.12424188121855258,-0.03741429631076753,0.2143933498520404
1772794418963873300,1.932873291015625,0.09345043711364269,-0.044063452001661056,0.24772512608952818
1772794418973918500,1.94291845703125,0.026745383584499356,-0.037744478113204236,0.25890008864179254
1772794418983962400,1.95296240234375,-0.04878185882568359,-0.0064813979085534806,0.3369713164463639
1772794418994007300,1.96300732421875,-0.07426292156279087,0.010116503007896243,0.3911634368177503
1772794419004052500,1.973052490234375,-0.076692779058218,0.05680679638180881,0.4062872831262648
1772794419014097400,1.983097412109375,-0.07104629760384559,0.05698576967790722,0.37373562441579994
1772794419024142300,1.993142333984375,-0.07307341951727866,0.0815609330838546,0.3200074682943523
1772794419034186200,2.003186279296875,-0.13107844924032688,0.08472104108259082,0.27746932616382836
1772794419044231400,2.0132314453125,-0.2437415363460779,0.09454995932076125,0.1682145131316036
1772794419054276400,2.0232763671875,-0.32441432495117184,0.06648359279818833,-0.03965469564869999
1772794419064321300,2.0333212890625,-0.3352876011431217,0.04376819538213313,-0.14274156063571572
1772794419074366200,2.0433662109375,-0.19684125348329543,-0.0594131794879213,-0.27117475606426594
1772794419084410400,2.053410400390625,0.046051557078957556,-0.07094378707744181,-0.3760385675959289
1772794419094455300,2.063455322265625,0.2277911030203104,-0.057305649282038205,-0.41042401760481295
1772794419104500200,2.073500244140625,0.26361177346408365,-0.13016104213446378,-0.3901088862635195
1772794419114545400,2.08354541015625,0.3156143479019403,-0.15783669230639932,-0.3827333890594542
1772794419124590300,2.09359033203125,0.34020810641050336,-0.17545867557357997,-0.3332339565489441
1772794419134634200,2.10363427734375,0.2904062568873167,-0.1532741701638326,-0.3062872782386839
1772794419144679400,2.113679443359375,0.16788462359011172,-0.15498144900575278,-0.242771522270143
1772794419154724400,2.123724365234375,-0.002004325559735298,-0.17662454101517797,-0.14191300085708497
1772794419164769500,2.13376953125,-0.12832535113990307,-0.21141057118158788,-0.036326501074060796
1772794419174814200,2.143814208984375,-0.2111345672518015,-0.22028032553140073,0.07274148414917289
1772794419184858400,2.1538583984375,-0.2296247481882572,-0.16867880617510525,0.17959698095470666
1772794419194903300,2.1639033203125,-0.18702888452112673,-0.09381583635993301,0.2950414424072951
1772794419204948500,2.173948486328125,-0.12379764458239077,-0.02834737542103976,0.3508321570817381
1772794419214993200,2.1839931640625,-0.03126139970421791,0.007309373165294527,0.37273726102821525
1772794419225038300,2.194038330078125,0.02523556354343891,0.032716055491939185,0.38426943952031434
1772794419235082500,2.20408251953125,0.0845008224606514,0.006933890916407108,0.35433410078808664
1772794419245127400,2.21412744140625,0.10345862090885638,-0.009177651255205274,0.26712358097732064
1772794419255172400,2.22417236328125,0.14134440718889235,-0.03572711040880531,0.23564159732498227
1772794419265217300,2.23421728515625,0.1459089386254549,-0.06870879456698895,0.15377879521772264
1772794419275262500,2.244262451171875,0.1114092876523733,-0.11711250426266341,0.06077537121921777
1772794419285306400,2.254306396484375,0.03347556862235069,-0.12186240220349281,-0.06387969391010702
1772794419295351300,2.264351318359375,0.03476970008611679,-0.1081573366517201,-0.1763013734754175
1772794419305396200,2.274396240234375,0.054873745959997174,-0.09651329528298229,-0.2616516523722559
1772794419315441400,2.28444140625,0.12392039417922496,-0.10952632344998418,-0.29035664559192953
1772794419325486300,2.294486328125,0.12585925328731537,-0.14942450899835674,-0.29460495068617165
1772794419335530200,2.3045302734375,0.06480418834388256,-0.1566861340317875,-0.3529920385293662
1772794419345575400,2.314575439453125,0.010565233156085013,-0.13284955056607722,-0.31396855345629154
1772794419355620400,2.324620361328125,-0.08445581427514552,-0.07758855885416269,-0.22161438714675605
1772794419365665500,2.33466552734375,-0.17498890263736247,-0.021161920896358787,-0.11793430550694466
1772794419375710200,2.344710205078125,-0.19399054022729395,-0.012611315498314797,-0.05035860662311315
1772794419385754400,2.35475439453125,-0.10488485431969165,-0.020239472289197147,-0.012733444040641188
1772794419395799300,2.36479931640625,-0.002492401337623596,-0.023498401019908487,0.051542701841145754
1772794419405844500,2.374844482421875,0.0670639499694109,-0.02374313302859664,0.12130955409370361
1772794419415889200,2.38488916015625,0.11287526855170726,-0.0072588485544547434,0.24976985672488808
1772794419425934300,2.394934326171875,0.11127718570530414,-0.05281242951601743,0.2942469310287386
1772794419435978500,2.404978515625,0.08893266742825508,-0.0999341365771368,0.29197029133364555
1772794419446023200,2.415023193359375,0.05653145003914833,-0.06581186754908412,0.3139461224287748
1772794419456068400,2.425068359375,0.04081716355681419,-0.05484996322561055,0.3149086838506162
1772794419466113300,2.43511328125,0.050635962259769435,0.013381861479394137,0.3327168008070439
1772794419476158500,2.445158447265625,0.13875088356435297,0.059728930906206366,0.32534714882187543
1772794419486202000,2.4552021484375,0.21782792741060256,0.06095584235265851,0.2181494144499302
1772794419496247300,2.465247314453125,0.29940906303226944,0.013265980014763772,0.11962496200762689
1772794419506292200,2.475292236328125,0.3251391320943832,-0.017186989383399486,0.0019253420393913984
1772794419516337400,2.48533740234375,0.2869499789535999,-0.05101217516101896,-0.07553535265140235
1772794419526382300,2.49538232421875,0.1903641664236784,-0.10843162354845554,-0.186787769241631
1772794419536426200,2.50542626953125,0.10277882195115089,-0.14715028045605869,-0.2544971775077283
1772794419546471400,2.515471435546875,0.01867372080981731,-0.15493914423398672,-0.29136808765679595
1772794419556516400,2.525516357421875,-0.04047229564189911,-0.11017306038830428,-0.32315431495271624
1772794419566561300,2.535561279296875,-0.10797639059424399,-0.036777386646717786,-0.2623901957798749
1772794419576606200,2.545606201171875,-0.13764555267095566,0.008625935656577348,-0.20575981541089713
1772794419586650400,2.555650390625,-0.12353694781959056,-0.005355279955454171,-0.1860404580056667
1772794419596695300,2.5656953125,-0.11712006651461124,0.001791523059271276,-0.18048326226994393
1772794419606740200,2.575740234375,-0.11146890888512134,0.04211918606609106,-0.0885769858583808
1772794419616785400,2.585785400390625,-0.08153145126104354,0.05542082191612571,-0.01953457542285323
1772794419626830300,2.595830322265625,-0.0699953272461891,0.08894468665961176,0.015366495957970619
1772794419636874500,2.60587451171875,-0.08311842819154262,0.10019315283950418,0.05026683668643236
1772794419646921000,2.6159208984375,-0.1382102008163929,0.0687652009293437,0.05768997242450714
1772794419656966000,2.6259658203125,-0.16368191120326517,0.046437304993532595,0.04591624026149511
1772794419667010800,2.6360107421875,-0.0545978516280651,0.001932940823957324,0.041287849808484316
1772794419677055700,2.6460556640625,0.07283844171762466,-0.019616956476680932,0.05601495188437402
1772794419687100000,2.656099853515625,0.19131226092875003,-0.04488423033263534,0.10337313458248973
1772794419697145000,2.66614501953125,0.22343173876702785,-0.04254793287217617,0.14071359847206621
1772794419707189800,2.676189697265625,0.22988602947294712,-0.020998473962955174,0.17719656874947248
1772794419717235000,2.68623486328125,0.21514321837127207,-0.02719130072109401,0.204641734633781
1772794419727279900,2.69627978515625,0.16710779399871825,-0.035233956597000356,0.20136388200689107
1772794419737323800,2.70632373046875,0.13479600845873355,-0.09040632017739117,0.1659996135611087
1772794419747368700,2.71636865234375,0.11772913832366466,-0.109272567884624,0.1304695966269821
1772794419757414000,2.726413818359375,0.06004267303049564,-0.09485299738794564,0.11302344485074281
1772794419767458800,2.736458740234375,-0.01584697295129299,-0.08803809320870787,0.09073138741329312
1772794419777504000,2.74650390625,-0.06657704323530196,-0.08181121805049478,0.05093900032695382
1772794419787548000,2.7565478515625,-0.09428279628455638,-0.0737190239444375,-0.032705972489342094
1772794419797592800,2.7665927734375,-0.10267886870801449,-0.061906384543143206,-0.07901833592895417
1772794419807638000,2.776637939453125,-0.13725333848297594,-0.030697409145906566,-0.13461663330383597
1772794419817683000,2.786682861328125,-0.1337871236771345,-0.029512473677657542,-0.15143796771261842
1772794419827728000,2.796727783203125,-0.11322948881685733,-0.011474493488110601,-0.14403141778316347
1772794419837771800,2.806771728515625,-0.11633213100731372,0.011143909826874732,-0.13921108495462686
1772794419847817000,2.81681689453125,-0.1602870080679655,0.026878837238438424,-0.0606513429807499
1772794419857862000,2.82686181640625,-0.20438100133836268,0.07702277819756417,-0.027663338679634032
1772794419867906800,2.83690673828125,-0.19486264688670635,0.0897342296021059,0.02083404064886272
1772794419877951700,2.84695166015625,-0.15371815107166767,0.06353723714798688,0.07732311285100876
1772794419887996000,2.856995849609375,-0.06875497179627418,0.025244221773929893,0.06553235648795962
1772794419898040800,2.867040771484375,0.05410685324072838,-0.004478350990451872,0.09521941954754293
1772794419908085800,2.877085693359375,0.13846271427273749,0.027000162063166498,0.10828940206617116
1772794419918131000,2.887130859375,0.22069150014817712,0.0747863243823871,0.06667845778316259
1772794419928175900,2.89717578125,0.3084364190965891,0.12520425997730344,0.042342765688896174
1772794419938219800,2.9072197265625,0.3585854746222496,0.09265059197284281,-0.013917173932492732
1772794419948265000,2.917264892578125,0.3630097208052873,0.06235040198359638,-0.11184789826534688
1772794419958310000,2.927309814453125,0.22353227653205393,0.012697861270606518,-0.1904939302831888
1772794419968354800,2.937354736328125,0.009297989699244499,0.030649222622625528,-0.22003296317420898
1772794419978400000,2.94739990234375,-0.14185995549559594,0.07251089026369154,-0.20971987814828752
1772794419988444000,2.95744384765625,-0.1924994248867035,0.09664313220772891,-0.17458192927166818
1772794419998488800,2.96748876953125,-0.14018705384731292,0.1336608669489622,-0.1595263258937746
1772794420008534000,2.977533935546875,-0.006226327168941497,0.12130487791858613,-0.13416991244964302
1772794420018578700,2.98757861328125,0.12641338003873825,0.1256252618683502,-0.08559080965444445
1772794420028624000,2.997623779296875,0.19022914186716078,0.13384787742104381,0.01101684938110411
1772794420038668000,3.00766796875,0.17398644759654996,0.12693130296561866,0.07850735419951378
1772794420048713000,3.017712890625,0.1678770248055458,0.10257544486615806,0.08024528390802442
1772794420058758000,3.0277578125,0.10199965427219868,0.09943159388247877,-0.0033235183995217084
1772794420068802800,3.037802734375,0.017826164069771767,0.06905216464456171,-0.06411131070889532
1772794420078848000,3.047847900390625,-0.03551555001735687,0.06927395416907965,-0.1572692676819861
1772794420088892000,3.057891845703125,-0.06281856748461723,0.059563986135460434,-0.2081765211638063
1772794420098936800,3.067936767578125,-0.0639478637754917,0.025523257911019025,-0.258441750415042
1772794420108981800,3.077981689453125,-0.03827800046801567,0.02384827390350401,-0.273686373559013
1772794420119027000,3.08802685546875,-0.029479192462563513,-0.016418416163697838,-0.200316528378427
1772794420129071900,3.09807177734375,-0.008825111490488051,-0.007586071214824915,-0.17074059754312038
1772794420139115800,3.10811572265625,0.01412029528915882,-0.0013777911592274903,-0.12235599440671503
1772794420149161000,3.118160888671875,0.05042494985759258,-0.009662366032227874,-0.062162660859152674
1772794420159206000,3.128205810546875,0.05631693050563335,-0.00829286777731031,-0.022496420903131364
1772794420169251000,3.1382509765625,0.036869302713871,0.03128547469954938,0.04477152720578015
1772794420179295700,3.148295654296875,0.019599603483080864,0.08071198810432106,0.15581300445906818
1772794420189341000,3.1583408203125,0.02992985883951187,0.06099456692785024,0.216942595943436
1772794420199384800,3.168384765625,0.06801555160582065,0.05960461040679365,0.226103515259549
1772794420209430000,3.178429931640625,0.08417524376809596,0.04485452931411564,0.23073409766964614
1772794420219474700,3.188474609375,0.06456394984722137,0.006858560657873749,0.2102874489031732
1772794420229520000,3.198519775390625,-0.0005108721315860748,-0.009518975506164132,0.1919311965446919
1772794420239564800,3.208564697265625,-0.06373159067630768,-0.027923998909816145,0.219969542549178
1772794420249609000,3.21860888671875,-0.03742810564041137,-0.03145067519862205,0.14181107485257088
1772794420259654000,3.22865380859375,0.0196545485407114,-0.02324661821592599,0.09945859148725866
1772794420269698800,3.23869873046875,0.06952478712499141,-0.032881657849811015,0.07588540819808841
1772794420279744000,3.248743896484375,0.11651508635878562,-0.0453632460212335,-0.009854235342517495
1772794420289789000,3.258788818359375,0.16446750862300394,-0.029876009760424493,-0.11617175281383096
1772794420299832800,3.268832763671875,0.1998451114743948,-0.02377966564670205,-0.151751819434762
1772794420309877800,3.278877685546875,0.1918617115050554,-0.04221892011351883,-0.14206015424281357
1772794420319923000,3.2889228515625,0.14927052401304244,-0.09087039402518421,-0.15311156348064542
1772794420329967900,3.2989677734375,0.07472118672430515,-0.05642828192561865,-0.21840170871056616
1772794420340012800,3.3090126953125,-0.051741293153166765,-0.07983410929124801,-0.2112765330057591
1772794420350057000,3.319056884765625,-0.15421733276546,-0.07626436104569584,-0.18363814610429108
1772794420360102000,3.329101806640625,-0.17561609462499617,-0.05827657667342573,-0.16493476080857217
1772794420370147000,3.33914697265625,-0.11497954735457896,-0.03545033929403871,-0.14113281026482583
1772794420380191700,3.349191650390625,-0.10759586684405803,0.012816994138248263,-0.10934541392512619
1772794420390237000,3.35923681640625,-0.11801380048394203,0.0392638331675902,-0.12022417000979184
1772794420400280800,3.36928076171875,-0.09754852008223533,0.030649551416188477,-0.11159838048368692
1772794420410325800,3.37932568359375,-0.04601765480935573,0.0536972495265305,-0.12284304727129637
1772794420420371000,3.389370849609375,0.029138416200876233,0.04529496655799448,-0.15377528808638452
1772794420430416000,3.399415771484375,0.07991758632361888,0.0024082667181268332,-0.1751840598832816
1772794420440460800,3.409460693359375,0.10487141031622886,0.03212795340567827,-0.17471512719728052
1772794420450506000,3.419506103515625,0.10106325020492077,0.052216472916863856,-0.13891221160590647
1772794420460550000,3.4295498046875,0.10356032771766185,0.031007023084349928,-0.13500373292528092
1772794420470594800,3.4395947265625,0.10761574058830738,0.0121792807566002,-0.12320092079825698
1772794420480640000,3.449639892578125,0.13213058864176272,0.05050097423586994,-0.09623042322099208
1772794420490685000,3.459684814453125,0.09094517629444598,0.15307806306984276,-0.0349905762951821
1772794420500729900,3.469729736328125,-0.03905073840618133,0.34058515956196933,0.017342545271292326
1772794420510774000,3.47977392578125,-0.2691734992444515,0.30995471470505,0.05465060472860932
1772794420520819000,3.48981884765625,-0.3795335701048374,0.3770440913766622,-0.07331559424269944
1772794420530863900,3.49986376953125,-0.42055823893249034,0.3471530667101964,-0.2928792594047263
1772794420540908800,3.50990869140625,-0.5901566807031631,0.33857696154471484,-0.2451856342071667
1772794420550954000,3.5199541015625,-0.6087333708792925,0.38207711710780856,-0.3940312473390251
1772794420560998000,3.529997802734375,-0.36123452782630916,0.7286971363872289,-0.22358731292122974
1772794420571042800,3.540042724609375,-0.08511866209805011,1.035307143774256,0.1443873185487464
1772794420581087700,3.550087646484375,0.11697568960785865,1.109631074809283,0.17373530411338434
1772794420591133000,3.5601328125,-0.028179800301790237,1.162696383107826,0.29525393438050523
1772794420601177900,3.570177734375,-0.0981166753590107,1.137474628894031,0.3339341407075524
1772794420611221800,3.5802216796875,-0.07065759054720401,0.9442202939867973,0.3812032568827271
1772794420621267000,3.590266845703125,-0.08960720568895339,0.7400012052118777,0.29703422365970905
1772794420631312000,3.600311767578125,-0.06614157442748546,0.4912228437423706,0.07426050127684139
1772794420641357000,3.610357177734375,0.01332476099729538,0.2621723152454942,-0.22976222043018787
1772794420651400000,3.62039990234375,0.1362619893580675,0.1578161609750241,-0.4974926812594756
1772794420661444900,3.63044482421875,0.04380348589122295,-0.15746018714420495,-0.31045210630055514
1772794420671489000,3.640489013671875,0.01851005468070507,-0.4019995228044688,-0.3409431426867843
1772794420681534000,3.650533935546875,0.17948913666605948,-0.4097494062788784,-0.28830751277608796
1772794420691579000,3.660578857421875,0.25953064163029194,-0.6386085769221186,-0.4509990429688245
1772794420701623800,3.670623779296875,0.3174316264569759,-0.6651045157901943,-0.4286092973105609
1772794420711669000,3.6806689453125,0.43442134459018705,-0.603060878200829,-0.1870277702762745
1772794420721713200,3.690713134765625,0.5199678767114877,-0.7026493066128343,-0.05656582723278552
1772794420731757800,3.7007578125,0.5326175149261951,-0.7884705640222877,0.05097063757423311
1772794420741803000,3.710802978515625,0.6008715514630079,-0.8557314248032868,-0.0634910416523926
1772794420751848000,3.720847900390625,0.724631202122569,-0.9037124886400997,-0.5735278366591781
1772794420761893000,3.73089306640625,0.7335241181522607,-0.8622514011565595,-0.3405364250494167
1772794420771936800,3.740936767578125,0.782000856551528,-0.500127815536037,0.19713640050496906
1772794420781982000,3.75098193359375,0.7823147448062896,-0.1841810938745737,0.34302736508231607
1772794420792027000,3.76102685546875,0.6234048703104257,-0.0043399289004504675,0.4331861767720431
1772794420802072000,3.771072021484375,0.46805181151330466,0.14061645824052393,0.43845973326079546
1772794420812116700,3.78111669921875,0.25282266842424866,0.09981631888374685,0.4360979725655168
1772794420822161000,3.791160888671875,-0.04440086726248264,0.0021284633960574864,0.3459641126539558
1772794420832206000,3.8012060546875,-0.3249877409249544,-0.10497633199542761,0.15219839415848255
1772794420842251000,3.8112509765625,-0.5370464372843503,-0.1269173840381205,-0.026095541373640296
1772794420852296000,3.8212958984375,-0.6128992583870887,-0.0794336752641946,-0.1006477282065898
1772794420862340900,3.8313408203125,-0.6026993514120579,-0.02765190397016704,-0.06112199269980192
1772794420872386000,3.841385986328125,-0.5105921456009149,0.06876154766753316,0.05421995822638273
1772794420882430000,3.851429931640625,-0.36504853315651414,0.11698679552376269,0.10689513469617813
1772794420892475000,3.861474853515625,-0.13653554560244083,0.1521562355171889,0.09729965988770127
1772794420902520000,3.87152001953125,0.08419628655612468,0.18383103832788764,0.06948131330944597
1772794420912565000,3.88156494140625,0.27829087167978284,0.21253910028748213,0.15421532347146422
1772794420922610000,3.89160986328125,0.3990174382537603,0.16897380706630646,0.2556800671493634
1772794420932653800,3.90165380859375,0.4763964460104704,0.15456987253017723,0.3023768998619169
1772794420942699000,3.911698974609375,0.49914837604463097,0.14302213114276527,0.2448905967833474
1772794420952744000,3.921743896484375,0.46956163155436514,0.07688201802000402,0.15687011229656636
1772794420962789000,3.9317890625,0.3716822720825672,-0.041747064818069335,0.08111994785070419
1772794420972833800,3.941833740234375,0.30196693082153797,-0.12900237361863254,0.009235665052756666
1772794420982879000,3.95187890625,0.22936054429411887,-0.14204327617324888,-0.011546462745778262
1772794420992923100,3.961923095703125,0.16627601934969424,-0.1316417091462761,-0.0686794588746503
1772794421002968000,3.971968017578125,0.1166992107540369,-0.11644377468824386,-0.05646196499951184
1772794421013013000,3.982012939453125,0.056817281243205064,-0.0684695059183985,-0.06033274201825261
1772794421023058000,3.992057861328125,0.05637246008515358,-0.0651657151326537,-0.09245941678229719
1772794421033102000,4.00210205078125,0.08030980051159858,-0.10639562420882284,-0.08899232519362121
1772794421043146800,4.012146728515625,0.11747837843298911,-0.1504468743160367,-0.1209827332921326
1772794421053192000,4.02219189453125,0.17150515217483042,-0.1373779147107154,-0.0924959494004026
1772794421063236000,4.032236083984375,0.018873627296090125,-0.2309417490709573,0.1406048774005845
1772794421073281000,4.042281005859375,-0.11951952887177467,-0.19499642933420835,0.24917992800772187
1772794421083326000,4.052325927734375,-0.1459177064538002,-0.22709621609132735,0.3415580231821164
1772794421093371000,4.062370849609375,-0.15676526368260382,-0.2932534995445981,0.4645881905233487
1772794421103416000,4.072416015625,-0.08558218795657158,-0.21810561184082178,0.4634217770924791
1772794421113461000,4.0824609375,0.021770517781376838,-0.22920093328561633,0.5472467095855623
1772794421123505000,4.0925048828125,0.09047989687025547,-0.19696027675308286,0.5929069292593747
1772794421133549800,4.1025498046875,0.10114975944459438,-0.11773257238976657,0.6270708454720676
1772794421143595000,4.112594970703125,0.06213058522045612,-0.13337277072258294,0.6248825416475534
1772794421153640000,4.122639892578125,-0.06217676244974136,-0.16340422677304595,0.5511256699107587
1772794421163684900,4.132684814453125,-0.19997896698713302,-0.23216730881053954,0.33391876047533003
1772794421173729000,4.14272900390625,-0.26584698517024513,-0.2788212887620553,0.15390949065899476
1772794421183774000,4.15277392578125,-0.30871289795041085,-0.2667274577992037,-0.03571213203538209
1772794421193819100,4.162819091796875,-0.3457786000192165,-0.19938439862746743,-0.1741776593197137
1772794421203863800,4.17286376953125,-0.37361937762498854,-0.1267000149603933,-0.2732969541163184
1772794421213909000,4.182908935546875,-0.370061977404356,-0.060836124963127076,-0.4548923971455544
1772794421223954000,4.192953857421875,-0.3838064251184463,-0.016338007871247825,-0.4651480528958142
1772794421233998000,4.202998046875,-0.3651888184100389,0.00874152486026287,-0.5633194541167468
1772794421244042800,4.213042724609375,-0.24115619602799415,0.07109305935502051,-0.6044571183321997
1772794421254088000,4.223087890625,-0.11055062499642372,0.10303824007231742,-0.5607769300270825
1772794421264132900,4.2331328125,0.016658873856067655,0.15408245433941484,-0.41261064092889427
1772794421274178000,4.243177978515625,0.11161211674809456,0.20799732867199927,-0.07422450751485303
1772794421284222000,4.253221923828125,0.1970774003267288,0.2951870979556814,0.2284802725945599
1772794421294267000,4.263266845703125,0.2316904485464096,0.31032858951874076,0.40883667534813284
1772794421304312000,4.27331201171875,0.20764029539525508,0.25720457330290225,0.530585534174554
1772794421314357000,4.28335693359375,0.15757131936848162,0.15269461671020834,0.6640673547621816
1772794421324402000,4.29340185546875,0.15822832197248934,0.10072163369301707,0.6180689891751855
1772794421334446000,4.303446044921875,0.15451777701675892,-0.006641776102036237,0.4906233434792608
1772794421344491000,4.313490966796875,0.15750409935116766,-0.04824325843695551,0.30129973561707885
1772794421354536000,4.323535888671875,0.10626023432612418,-0.07248593848552555,0.1279928312499076
1772794421364580900,4.333580810546875,-0.023740356549620627,-0.0731202908663079,-0.019038352871127425
1772794421374626000,4.3436259765625,-0.13581716820001602,-0.04633603657614439,-0.2046267197277397
1772794421384671000,4.3536708984375,-0.1365542503029108,-0.0332710955588147,-0.3914826953673735
1772794421394715100,4.363715087890625,-0.06047989540398121,-0.018531207066588104,-0.47348055856376886
1772794421404759800,4.373759765625,-0.006356675550341606,-0.03498272178228944,-0.607779431155324
1772794421414805000,4.383804931640625,0.009451134434342383,-0.018739442989788947,-0.6905034532018005
1772794421424850000,4.393849853515625,0.008123100700974464,0.0009338285177014768,-0.6701543465256691
1772794421434895000,4.40389501953125,-0.06349135217964649,-0.028009540035109966,-0.5597239138428122
1772794421444939000,4.41393896484375,-0.15391104329526423,-0.09475308067742734,-0.4646939159201458
1772794421454984000,4.42398388671875,-0.15377192708551882,-0.15103707702783867,-0.38172172779887914
1772794421465029000,4.434029052734375,-0.09207096545398234,-0.1322512558793649,-0.2821687725590542
1772794421475074000,4.444073974609375,-0.04881283848583698,-0.09590670769196002,-0.13371270673405378
1772794421485119000,4.454118896484375,0.013148819908499717,-0.08554532654490321,-0.0021329934407025575
1772794421495164000,4.464163818359375,0.07958733145594596,-0.07403535988461225,0.09712715286500752
1772794421505208000,4.4742080078125,0.11461889734864235,-0.02473024436980486,0.16542097342293707
1772794421515253000,4.4842529296875,0.1327718091547489,0.013924443923495709,0.2017037814857438
1772794421525298000,4.4942978515625,0.16578326739668844,0.004472250043228269,0.24010350863728672
1772794421535342800,4.5043427734375,0.16682371636033058,0.00905800693091005,0.17498806238714604
1772794421545388000,4.514387939453125,0.1519090558230877,0.005473499507643282,0.09344050024151801
1772794421555433000,4.524432861328125,0.13971885181367397,0.024323892058618367,0.026118228129483757
1772794421565476900,4.534476806640625,0.09028291299343108,0.056133536762744185,-0.03824428086150437
1772794421575522000,4.54452197265625,0.002546177351474762,0.08352452477440238,-0.08219265511613338
1772794421585567000,4.55456689453125,-0.06570669014155864,0.057875156265683465,-0.1246355201786384
1772794421595612200,4.564612060546875,-0.10593348658978939,0.06194836052134633,-0.16417360371034592
1772794421605656800,4.57465673828125,-0.07024316452741622,0.07744739681780338,-0.19942074858248232
1772794421615701000,4.584700927734375,-0.0060620765179395675,0.09159067112375051,-0.22636505227256565
1772794421625746000,4.594745849609375,0.02432838557064533,0.09859517959095537,-0.2241611124875024
1772794421635791000,4.604791015625,0.05264671756029129,0.0817559076666832,-0.16866262222528455
1772794421645835800,4.614835693359375,0.06900339359939098,0.07716138295065611,-0.11398922114297746
1772794421655881700,4.6248818359375,0.07473930690288544,0.06347673913240433,-0.11128858388215303
1772794421665926700,4.6349267578125,0.013607085070014,0.05185940310750156,-0.1420832428574562
1772794421675970600,4.644970458984375,-0.027081483671069145,0.08131634720563888,-0.14009857184626162
1772794421686015500,4.655015380859375,-0.016395254483819007,0.16551248763129114,-0.14038871389925478
1772794421696060700,4.665060791015625,-0.028832126730680464,0.20149923535697162,-0.05714534415379166
1772794421706105300,4.675105224609375,-0.08175240053534508,0.20944588351249693,-0.008033814982324838
1772794421716150500,4.685150634765625,-0.0798211402118206,0.27286870050057765,0.06719670950360596
1772794421726195500,4.695195556640625,-0.056200026127696034,0.28697745148241516,0.19268559510856867
1772794421736239600,4.705239501953125,-0.0190881468296051,0.26472152480427175,0.23023407572563737
1772794421746284500,4.715284423828125,0.009803601133823394,0.2359260037569329,0.20327431873809546
1772794421756329500,4.72532958984375,0.0664233139783144,0.15944745197128504,0.14903163722325116
1772794421766374700,4.735374755859375,0.15274726021289825,0.0840803320262581,0.07152038138899952
1772794421776419600,4.745419677734375,0.2328974862486124,0.03817066763602197,0.008102423239126801
1772794421786463500,4.75546337890625,0.2805798593997955,0.02013816733919084,-0.04467493496350944
1772794421796508700,4.7655087890625,0.2682201440423727,0.02219597665183246,-0.06702464087232947
1772794421806553600,4.7755537109375,0.22270459353625774,0.05819028662946075,-0.089096223959513
1772794421816598500,4.7855986328125,0.1071960538715124,0.0902762275243178,-0.08107150559909641
1772794421826643700,4.795643798828125,-0.010719546934962272,0.11471600104756653,-0.08893738013599067
1772794421836688600,4.805688720703125,-0.05489537326991558,0.1390698133204132,-0.09522369386386126
1772794421846732500,4.815732666015625,-0.07156301495432853,0.12022946723941713,-0.09757584648057818
1772794421856777700,4.82577783203125,-0.0632382542014122,0.09143372699636966,-0.12631638593766836
1772794421866822400,4.835822509765625,-0.007212415596842765,0.08470993516668676,-0.10008508935514837
1772794421876867600,4.84586767578125,0.06104921972453594,0.04702986405920237,-0.027997904396243393
1772794421886912500,4.85591259765625,0.04351648564338684,0.0020033026464283464,0.03587711333874613
1772794421896956700,4.865956787109375,0.017373159605264664,-0.004893763390928506,0.09158259741514921
1772794421907001600,4.876001708984375,0.001166121169924736,-0.01477985517643392,0.1646055288542062
1772794421917046500,4.886046630859375,0.016101824495196343,-0.008988193097710609,0.232194854404591
1772794421927091700,4.896091796875,0.10225333677232265,0.009143456724658609,0.3119042778702453
1772794421937136600,4.90613671875,0.174534729129076,0.05071812411788851,0.41946120094340295
1772794421947181800,4.916181884765625,0.22165771483182906,0.11272603280674666,0.5510146107517182
1772794421957225500,4.9262255859375,0.23417115944623945,0.16426584857106208,0.691560999430716
1772794421967270700,4.936270751953125,0.23639935688972472,0.16431535026859492,0.7559556571256368
1772794421977315600,4.946315673828125,0.20851883179545402,0.14073314342275262,0.6689324035152793
1772794421987360500,4.956360595703125,0.17741291491389274,0.0473851437702775,0.5266181649135425
1772794421997405400,4.966405517578125,0.14078618878424168,-0.056910585549846286,0.35534667536411435
1772794422007450600,4.97645068359375,0.11457564272880554,-0.19885942490529268,0.13633205891959368
1772794422017494800,4.986494873046875,0.09340250631868839,-0.26278719574082643,-0.1359546769745648
1772794422027539500,4.99653955078125,0.01904547673165798,-0.3125582847995683,-0.34068737782742825
1772794422037584600,5.006584716796875,-0.06167173553705215,-0.3167342187773436,-0.5346436139263212
1772794422047629600,5.016629638671875,-0.11663199073672294,-0.23403865564037113,-0.7082713842783123
1772794422057674800,5.0266748046875,-0.16694938856661318,-0.16227562460191547,-0.7162034193865955
1772794422067718400,5.036718505859375,-0.24273206704258918,-0.06975477822227404,-0.6961144980166107
1772794422077763600,5.046763671875,-0.26739421461224555,0.030741631880123167,-0.6194979259997606
1772794422087808500,5.05680859375,-0.2624929985672235,0.022499252181034535,-0.5745253963291644
1772794422097853700,5.066853759765625,-0.2734802565276623,0.06466256964979693,-0.5566133075416088
1772794422107898400,5.0768984375,-0.23192367278039455,0.10120499676316976,-0.4863253540243953
1772794422117943600,5.086943603515625,-0.11637597014904022,0.10903517893217503,-0.3665604720894247
1772794422127987700,5.09698779296875,0.05855564934313297,0.1305626817379147,-0.2356436796842143
1772794422138032600,5.10703271484375,0.1535854646027088,0.06505461944099515,-0.132403779559955
1772794422148077600,5.11707763671875,0.15705109488666058,-0.019639533634670078,-0.04490074307601899
1772794422158122500,5.12712255859375,0.11756664123833178,-0.08915840247552842,0.027524441665597258
1772794422168167700,5.137167724609375,0.08915478574633598,-0.1369996925154701,0.12190982154179364
1772794422178212600,5.147212646484375,0.10504852044880389,-0.14030662510637193,0.22581910882759837
1772794422188256500,5.157256591796875,0.1166466037839651,-0.08260287988483905,0.319940832798928
1772794422198301400,5.167301513671875,0.16933599144220352,0.015418810667097568,0.38287893500998615
1772794422208346600,5.1773466796875,0.20015256998836992,0.08983140636626631,0.39681477711033075
1772794422218391600,5.1873916015625,0.15701719261705874,0.13327968561165035,0.3175583215765655
1772794422228436500,5.1974365234375,0.05721007995307445,0.15572057693526148,0.19317231917958705
1772794422238481400,5.2074814453125,-0.08265256424546241,0.15294526700302957,0.040865971134603024
1772794422248525600,5.217525634765625,-0.12234978386163711,0.1291464582644403,-0.09724164609014987
1772794422258570800,5.22757080078125,-0.03644727790951729,0.07456007787846028,-0.18256602336075156
1772794422268615400,5.237615478515625,0.08379179740846157,0.02039718360155821,-0.222509911214374
1772794422278660600,5.24766064453125,0.18136136027872563,0.005010667768865823,-0.2255749248081818
1772794422288705500,5.25770556640625,0.1880155574709177,0.03367496365197003,-0.1431897427946329
1772794422298750700,5.267750732421875,0.10777823767364024,0.08517229198142885,-0.012997465271688997
1772794422308794600,5.277794677734375,0.06016542262732982,0.18450893758945167,0.10850520024131984
1772794422318839600,5.287839599609375,0.011651274827122688,0.21370153166297823,0.2512770098848268
1772794422328884500,5.297884521484375,-0.043912206962704654,0.18923516239374874,0.38951716744806614
1772794422338929700,5.3079296875,-0.06897066037356853,0.1473273905886337,0.4296866076858714
1772794422348974600,5.317974609375,-0.07805646862685679,0.11214600442908704,0.42174580474924295
1772794422359018500,5.3280185546875,-0.10021744703054428,0.09712227576049044,0.3555455589370802
1772794422369063700,5.338063720703125,-0.11465806031525135,0.0889757211186923,0.20942758067082612
1772794422379108600,5.348108642578125,-0.12347615754306315,0.06345607993686571,0.012509645222127436
1772794422389153500,5.358153564453125,-0.04179682224392891,0.042269755251612515,-0.19278784990664571
1772794422399198500,5.368198486328125,0.03226327022314072,0.018929394337628035,-0.3300075053157285
1772794422409243600,5.37824365234375,0.13640636626482008,0.04343004946894943,-0.4554789648618549
1772794422419287800,5.388287841796875,0.21046938134133814,0.08929260504813864,-0.5431572117822244
1772794422429332500,5.39833251953125,0.18562427842020987,0.11639177050637081,-0.5607019650947302
1772794422439377700,5.408377685546875,0.12278349910378455,0.09865280979601666,-0.5566028226802126
1772794422449422600,5.418422607421875,0.10872516313493251,0.015361253527272491,-0.5903934120684862
1772794422459467800,5.4284677734375,0.09915186362564563,-0.06393151542888954,-0.6322488326318562
1772794422469512700,5.4385126953125,0.057681789118051524,-0.09803102463586255,-0.6305623408496379
1772794422479556600,5.448556640625,-0.0052139352560043335,-0.12253346986547112,-0.5713833354437723
1772794422489601500,5.4586015625,-0.05680909793674945,-0.14104312268737704,-0.5155916343886405
1772794422499646700,5.468646728515625,-0.08130933294296264,-0.14245766566041856,-0.46118013564553106
1772794422509691400,5.47869140625,-0.07869301296472549,-0.16215497563062234,-0.4263118705557659
1772794422519736600,5.488736572265625,-0.11284662697911262,-0.1854819838726893,-0.33735333803389217
1772794422529781500,5.498781494140625,-0.07919628631174563,-0.19615999322086572,-0.2347493611929938
1772794422539825700,5.50882568359375,0.017587094616889953,-0.16377435699338092,-0.0017261662054806946
1772794422549870600,5.51887060546875,0.10585749874413013,-0.07885169239146635,0.28752810763511805
1772794422559915500,5.52891552734375,0.13157061667144299,0.022334398741833864,0.627647695511952
1772794422569960700,5.538960693359375,0.11057634395956993,0.09511712821684777,0.9696738841950893
1772794422580005600,5.549005615234375,0.16221768386960028,0.23942451339717952,1.247068099296093
1772794422590049500,5.559049560546875,0.17155366749167442,0.2979856426330283,1.443794932619482
1772794422600094500,5.569094482421875,0.1896755996376276,0.2788458934803493,1.3500699163481593
1772794422610139600,5.5791396484375,0.2513192781239748,0.1715437854184769,1.031487877747044
1772794422620184600,5.5891845703125,0.3134843501359224,0.10769613061444833,0.7334003456421196
1772794422630229500,5.5992294921875,0.31976912949383257,0.07940457703387364,0.4685239956023171
1772794422640274400,5.6092744140625,0.268482594370842,0.0832259619529359,0.208461987041682
1772794422650318600,5.619318603515625,0.12680968587994576,0.10130843887133523,-0.13278751818053425
1772794422660363800,5.62936376953125,0.005432546442747116,0.07045198497250675,-0.49435968046337364
1772794422670408400,5.639408447265625,-0.07327507956922054,0.03698743093451485,-0.7562691069889813
1772794422680453600,5.64945361328125,-0.08690437647104263,-0.01936984984781593,-0.9715064333844929
1772794422690498600,5.65949853515625,-0.0664449412882328,-0.06992600660333409,-1.0835653440520168
1772794422700543700,5.669543701171875,-0.021646599140763282,-0.10611160136936232,-1.097435902363807
1772794422710587400,5.67958740234375,0.013504209217429161,-0.14868128941562025,-1.0121653376396744
1772794422720632600,5.689632568359375,-0.012630348992347716,-0.17823818675689398,-0.8373523760911077
1772794422730677500,5.699677490234375,-0.08839724537730216,-0.1974870771061629,-0.5972295782314613
1772794422740722700,5.70972265625,-0.13661562510132788,-0.1267962144770194,-0.36105157247483727
1772794422750767400,5.719767333984375,-0.18588614422678945,-0.04590509781297296,-0.1379704737763852
1772794422760812500,5.7298125,-0.23528876529932022,0.0035543588801752774,0.0549076847622171
1772794422770856700,5.739856689453125,-0.22837679395377636,0.008366855462128297,0.17741017496753483
1772794422780901600,5.749901611328125,-0.20161913540959356,-0.041576685820380224,0.2422799393609166
1772794422790946600,5.759946533203125,-0.12176701553761958,-0.06839407519516534,0.28474351841788736
1772794422800991500,5.769991455078125,0.013144143733382223,-0.09362948347497731,0.2567498883379623
1772794422811036700,5.78003662109375,0.1188601881802082,-0.10594935087920165,0.22431422068998216
1772794422821081600,5.79008154296875,0.1946212393462658,-0.10587888859203085,0.2585415209950879
1772794422831125500,5.80012548828125,0.1678723486304283,-0.06762395847234874,0.2419356559678912
1772794422841170400,5.81017041015625,0.08889759611487388,-0.053484510958148164,0.24708211547825484
1772794422851215600,5.820215576171875,-0.012072130587697029,-0.04854406801443547,0.20848880198337136
1772794422861260500,5.830260498046875,-0.08580138366520404,-0.06534737357618287,0.09810374281220137
1772794422871305700,5.8403056640625,-0.14486089087724685,-0.07005303964964114,0.014005181009508668
1772794422881350400,5.850350341796875,-0.12190963887870311,-0.06361599233946763,-0.05295823119487613
1772794422891394600,5.86039453125,-0.0595914221316576,-0.04756482031927444,-0.1010209454331547
1772794422901439700,5.870439697265625,0.023981764090061187,-0.06070805987035855,-0.09729757752846926
1772794422911484400,5.880484375,0.0556482374638319,-0.06877306457539088,-0.12276899565439671
1772794422921529600,5.890529541015625,0.06905132439434528,-0.05913807060727849,-0.11398757717516272
1772794422931574500,5.900574462890625,0.05428922407031059,-0.04130163173866458,-0.116312476458773
1772794422941619700,5.91061962890625,0.022412322816252706,0.00320802052738145,-0.0866557354722172
1772794422951663600,5.92066357421875,-0.031096564531326292,0.06392600813671015,-0.02668145150281489
1772794422961708500,5.93070849609375,-0.06851297973394394,0.13173315942254848,0.06154094876423478
1772794422971753500,5.94075341796875,-0.12319850964546203,0.14036538782259447,0.09245214679129421
1772794422981798700,5.950798583984375,-0.1432154617577791,0.0720158367557451,0.0756396532760933
1772794422991843600,5.960843505859375,-0.128733931940794,0.02491347371591255,0.05470299250297248
1772794423001887500,5.970887451171875,-0.09700257663726806,-0.0076671918933279804,0.03186093649994582
1772794423011932700,5.9809326171875,-0.04009001832604408,-0.0032478228148072955,0.04640212408229708
1772794423021977600,5.9909775390625,-0.026333880174160003,0.0161251688381657,0.04610398138593882
1772794423032022500,6.0010224609375,-0.010059621721506118,0.04437154983645305,0.042765703808702524
1772794423042067500,6.0110673828125,0.023300796088576315,0.04555027475962415,0.04084105588905513
1772794423052112600,6.021112548828125,0.0906874021410942,0.0946920346725732,0.0028497634079307317
1772794423062156800,6.03115673828125,0.14018179315030574,0.10946111272666603,-0.0265802561506629
1772794423072201500,6.041201416015625,0.1804816548347473,0.10312094991970806,-0.05728862508200109
1772794423082246700,6.05124658203125,0.1554857452660799,0.0713882977082394,-0.08503613491374999
1772794423092291600,6.06129150390625,0.14628244811296462,0.026140805287472903,-0.12078611474148929
1772794423102336800,6.071336669921875,0.15333119758069513,0.021768179693818092,-0.1441125567279756
1772794423112381700,6.081381591796875,0.16229250267148018,-0.004115819554682821,-0.10164689531177282
1772794423122425600,6.091425537109375,0.16966975344121454,-0.0008371814765036105,-0.08029927911758422
1772794423132470500,6.101470458984375,0.19112053774893284,0.018443985440861434,-0.06776241709496826
1772794423142515700,6.111515625,0.1450847627609968,0.02598848253628239,-0.031667423221841455
1772794423152560400,6.121560302734375,0.052929626154899594,0.039775454217847436,-0.012814692583307623
1772794423162605600,6.13160546875,-0.03160685214102268,0.055219216663111,0.012439575660601257
1772794423172650500,6.141650390625,-0.1312818628579378,0.036137426509056235,0.01412427734453231
1772794423182694700,6.151694580078125,-0.152143449100852,0.023951789076905695,-0.002218443234451115
1772794423192739600,6.161739501953125,-0.13330255503058433,-0.002143715764116496,0.006334463718533516
1772794423202784500,6.171784423828125,-0.078169865873456,0.029694022523332385,-0.007281023853644728
1772794423212829700,6.18182958984375,-0.04028583315908909,0.061311341259442265,0.013817951341718435
1772794423222874600,6.19187451171875,-0.00006488192975521087,0.08649329318581149,0.06543119766842574
1772794423232919800,6.201919921875,-0.012685878571867941,0.06712481331117451,0.08206537547465413
1772794423242963500,6.21196337890625,-0.006884498816728591,0.052265097831562156,0.09635715487319975
1772794423253008600,6.222008544921875,0.04098550586104393,0.05879259990416467,0.0734597884863615
1772794423263053600,6.232053466796875,0.09607494039833545,0.05852337277503684,0.035741906119138
1772794423273098500,6.242098388671875,0.15182430014908313,0.042494631782360376,0.01152505463156849
1772794423283143400,6.252143310546875,0.17970599428713321,0.06275381341902539,0.02944689762815833
1772794423293188600,6.262188720703125,0.20995967825353146,0.056268798781279473,0.05086067439373582
1772794423303232800,6.272232666015625,0.27992870201468467,0.1109154214545153,0.18691837335135786
1772794423313277400,6.28227734375,0.31042437804341316,0.025520773692987858,0.0447698832379654
1772794423323322600,6.292322509765625,0.11217968750298023,-0.0395578659444116,-0.1650262750169262
1772794423333367600,6.302367431640625,0.05783727194070816,-0.035385950554627926,-0.01901354722343385
1772794423343412700,6.312412841796875,-0.02315115848481655,-0.016931425453443078,0.009355418974906205
1772794423353457700,6.322457763671875,-0.06317512583732604,0.06061871935278177,-0.03674794135652482
1772794423363501600,6.33250146484375,-0.037814474609494206,0.03736291318340227,-0.01675239735841751
1772794423373546500,6.34254638671875,-0.03977671459317207,-0.019194566346146164,-0.04893613607194274
1772794423383591700,6.352591796875,-0.030433716708421706,-0.03495084707299247,-0.09478062627147883
1772794423393636600,6.36263671875,0.032987492844462396,-0.056774154487531626,-0.09306626010164618
1772794423403681500,6.372681640625,0.0633294396162033,-0.09733758074529468,-0.08907291614916175
1772794423413726500,6.3827265625,0.09988368503153323,-0.051218821915332224,-0.05862886070981621
1772794423423770600,6.3927705078125,0.09354454513788223,-0.011684629107452929,-0.015513247484900057
1772794423433815600,6.402815673828125,0.036242110726237294,0.012571147884707897,0.03685688162371516
1772794423443860500,6.412860595703125,-0.05419160891473293,-0.0042599407331086695,0.052016493365354834
1772794423453905700,6.42290576171875,-0.10188391893804073,-0.003640566725749522,0.000057977264933288094
1772794423463950600,6.43295068359375,-0.12209668588340282,0.0256844398221001,-0.054375112255476414
1772794423473995800,6.442995849609375,-0.06241816999018192,0.024856738559994845,-0.03146262136474252
1772794423484039400,6.453039306640625,0.025420856982469556,-0.00042788828955963253,-0.03039831660147756
1772794423494084600,6.463084716796875,0.10400339531004428,-0.01613605555836111,-0.021543065701052546
1772794423504129500,6.473129638671875,0.1327723936766386,-0.03826104933321476,-0.020076646410301328
1772794423514174700,6.4831748046875,0.12520108163952826,-0.009916943581495433,-0.03610909546371549
1772794423524219400,6.493219482421875,0.08919161062538623,0.04103477009655908,-0.0057262686923146245
1772794423534264600,6.5032646484375,0.027582418930530546,0.06705752022862434,-0.0005122603710740805
1772794423544308700,6.513308837890625,-0.03593757482171058,0.08558173129884526,-0.03532145221736282
1772794423554353400,6.523353515625,-0.06708148562610149,0.09395981140788644,-0.07803706980664282
1772794423564398600,6.533398681640625,0.015991349858045577,0.04676666481206193,-0.10140296702068298
1772794423574443500,6.543443603515625,0.04768003506362438,0.0286977049623616,-0.12223865163736045
1772794423584488700,6.55348876953125,0.018652678021788598,0.05087411839719862,-0.12570479337796567
1772794423594533600,6.56353369140625,-0.021719664376974104,-0.011161080157384276,-0.10995017488524317
1772794423604577500,6.57357763671875,0.010837035834789276,0.003077763477526605,-0.07712006455957889
1772794423614622700,6.583622802734375,0.13902677789628504,-0.03737801942098885,-0.09795304576251655
1772794423624667600,6.593667724609375,0.2480810268551111,-0.01603955464763567,-0.09073003570642321
1772794423634712600,6.603712646484375,0.2862608276456594,0.023915238192491233,-0.07205372108072042
1772794423644757500,6.613757568359375,0.27283143723011016,0.014175295145716518,-0.011041764626652002
1772794423654802700,6.623802734375,0.11458733316659926,0.022088260227348656,0.059772404721751805
1772794423664846300,6.633846435546875,-0.048452773001790045,0.10855806293971836,0.09607782647516577
1772794423674891500,6.6438916015625,-0.13649170646071435,0.1715936889748089,0.1884860975921154
1772794423684936400,6.6539365234375,-0.1706961738795042,0.08659688142444938,0.3069176485640928
1772794423694981600,6.663981689453125,-0.207129423263669,0.0011291866930201648,0.2772062913134694
1772794423705026300,6.6740263671875,-0.11652969940602778,0.02533770874366164,0.09568568535242229
1772794423715071500,6.684071533203125,-0.07657821276783942,-0.02765798665108159,0.049901729701086875
1772794423725116400,6.694116455078125,0.02916121255457401,-0.035466632841713724,0.03623418314810842
1772794423735160600,6.70416064453125,0.1427455061584711,-0.04196680851597338,0.03186371297892183
1772794423745205500,6.71420556640625,0.19307167181670665,0.0008422229778021574,0.060596032596938305
1772794423755250400,6.72425048828125,0.17021043618917464,-0.02107606924381107,0.10597327061090618
1772794423765295600,6.734295654296875,0.0303992299169302,-0.018240407426469027,0.07443791280351579
1772794423775340500,6.744340576171875,-0.1002297219902277,0.007237111646682024,0.006022182898968458
1772794423785385700,6.7543857421875,-0.18662439537346362,0.01465705078067258,-0.0211390514774248
1772794423795429400,6.764429443359375,-0.19059563709199429,0.012063289694115518,-0.03841013894770294
1772794423805474600,6.774474609375,-0.11853694757521152,-0.005673022401425987,-0.06982402579989284
1772794423815519500,6.78451953125,-0.005907762739062309,-0.02556649426454678,-0.07965239604879171
1772794423825564700,6.794564697265625,0.08850655097067356,-0.018817860254552215,-0.10235204790644348
1772794423835609300,6.804609375,0.11053893455862998,-0.017870715597551316,-0.06783508047237992
1772794423845654500,6.814654541015625,0.09480535885393619,-0.02485116733573377,-0.03086012542694807
1772794423855698700,6.82469873046875,0.1032575453788042,-0.009837686066515743,-0.04315083066876978
1772794423865743400,6.834743408203125,0.12452537433505058,-0.003178867498133331,-0.07200845716688782
1772794423875788500,6.84478857421875,0.14097908100783824,0.009195771433785558,-0.029302593786641955
1772794423885833500,6.85483349609375,0.12812544465363024,0.03660215794397518,0.017615772722102702
1772794423895878700,6.864878662109375,0.13221300622820853,-0.009200831201393157,0.07606394310276955
1772794423905923600,6.874923583984375,0.15426877069175243,-0.049588499033451076,0.10708272969014943
1772794423915967500,6.884967529296875,0.19120353985726832,-0.08354567716028541,0.09985522612202911
1772794423926012400,6.895012451171875,0.16261983492970467,-0.14313048688806593,0.10106701306458563
1772794423936057600,6.9050576171875,0.1723123769044876,-0.17831611083131282,0.04646733480561524
1772794423946102500,6.9151025390625,0.15909809054434298,-0.18514864199878647,-0.04814915041271597
1772794423956147500,6.9251474609375,0.13740531417429447,-0.25461842926722017,-0.04957114603985101
1772794423966192400,6.9351923828125,0.08572247321009635,-0.21107675438364967,-0.09659169428143649
1772794423976236500,6.945236572265625,-0.0033428806871175763,-0.20317440202757714,-0.09932298240885137
1772794423986281500,6.955281494140625,-0.16446341696977615,-0.14847860645037145,-0.11545834384746849
1772794423996326400,6.965326416015625,-0.3552946163833141,-0.08862316308766603,-0.12836122617088258
1772794424006371600,6.97537158203125,-0.5818833578765392,0.0811901635427028,-0.12331468337103724
1772794424016416500,6.98541650390625,-0.7960135998129845,0.2218596123457886,-0.07652162374239414
1772794424026461700,6.995461669921875,-0.915063173085451,0.31436902401596306,-0.07802081279158592
1772794424036505300,7.00550537109375,-0.804490920779109,0.38350389850791544,-0.06116988696213811
1772794424046550500,7.015550537109375,-0.6517313856065273,0.4053410152520984,-0.1404678800826892
1772794424056595500,7.025595458984375,-0.3400497009783983,0.36030532068479804,-0.1710628152348101
1772794424066640600,7.035640625,0.004657470417022705,0.323777378754504,-0.20280637243278324
1772794424076685300,7.045685302734375,0.3471124789714813,0.3446321699304506,-0.16211155661400406
1772794424086730500,7.05573046875,0.5984025310009717,0.29491971572376785,0.0044336715985089535
1772794424096774700,7.065774658203125,0.7314958271950482,0.21291882032006978,0.16725845451578497
1772794424106819300,7.0758193359375,0.7553507500350475,0.10945910343267024,0.25757468525692817
1772794424116864500,7.085864501953125,0.6670329996347427,0.015779424140416085,0.3304031535698101
1772794424126909400,7.095909423828125,0.4566647405803203,0.005032185480929911,0.3551784426577389
1772794424136954600,7.10595458984375,0.1495043327689171,0.039148499692231414,0.3264722438616678
1772794424146999600,7.11599951171875,-0.13680325662791729,0.08576013833936304,0.20962025369871407
1772794424157044500,7.12604443359375,-0.37388533508479593,0.16380520878937094,0.06832659031637013
1772794424167088400,7.13608837890625,-0.4640127652555704,0.24811723067965358,-0.008305873389355838
1772794424177133600,7.146133544921875,-0.41101533456146716,0.28752770577631886,-0.08295205864869058
1772794424187178500,7.156178466796875,-0.26343641689717767,0.2465977660274133,-0.15527677869051695
1772794424197223400,7.166223388671875,-0.05052198049128055,0.18830756268743423,-0.1936229855565354
1772794424207268400,7.176268310546875,0.09192191237211227,0.07558989585023373,-0.20741313557587562
1772794424217313500,7.1863134765625,0.14821955365538597,0.011353716652654111,-0.22732790595535188
1772794424227357400,7.196357421875,0.19047873271405696,-0.012455905740894377,-0.2825293860323727
1772794424237402400,7.20640234375,0.162727386957407,-0.02823543947916478,-0.21981665354240684
1772794424247447600,7.216447509765625,0.09343173241317272,-0.026560126678086816,-0.15334548183437435
1772794424257492500,7.226492431640625,0.058899932736158365,-0.0129360539406538,-0.1355834325093776
1772794424267537700,7.23653759765625,0.117504681918025,-0.01177091915141791,-0.18607932871133087
1772794424277582300,7.246582275390625,0.14433423665463924,-0.021229360109381378,-0.21955193819161503
1772794424287626500,7.25662646484375,0.10430676217079161,-0.08468315675761551,-0.19552162225209174
1772794424297671700,7.266671630859375,0.1038327149182558,-0.17423249477948993,-0.1357556472711265
1772794424307716600,7.276716552734375,0.06488777497410773,-0.29380426529515535,-0.053672516944073136
1772794424317761500,7.286761474609375,0.06373977398276329,-0.284292157921195,0.014053440598025917
1772794424327806500,7.296806396484375,0.08403729660212993,-0.22166425417046992,0.08431563861947507
1772794424337851600,7.3068515625,0.1200321545690298,-0.10883530897852033,0.15995503616724163
1772794424347895600,7.3168955078125,0.10614391447007655,0.06672401395794003,0.254180987698026
1772794424357940500,7.3269404296875,0.06354279010593891,0.17623897576369343,0.3976354093108326
1772794424367985400,7.3369853515625,0.05332827008366584,0.22002711795531213,0.4116651767723262
1772794424378030600,7.347030517578125,0.048235330858826635,0.20749197296574712,0.3331689284887165
1772794424388075500,7.357075439453125,0.12197218272089957,0.1223537293843925,0.2495581502029672
1772794424398120400,7.367120361328125,0.30577392188906666,0.04765438916571438,0.12300075858365743
1772794424408165400,7.377165283203125,0.5112736981242895,-0.013612126571312546,-0.008121785526722668
1772794424418209500,7.38720947265625,0.618463906776905,-0.06206095405034721,-0.07518770825751125
1772794424428254700,7.397254638671875,0.6649708064079284,-0.032198388293385505,-0.11458572573140263
1772794424438299400,7.40729931640625,0.5302215597003698,-0.013278181909210979,-0.11914755375422537
1772794424448344600,7.417344482421875,0.2970738980829716,0.02272208288516849,-0.07203289748840033
1772794424458389500,7.427389404296875,0.07710194438099861,0.07099427515566349,-0.030684914990514515
1772794424468434700,7.4374345703125,-0.11169219624698161,0.07073931401390582,-0.035648163421079515
1772794424478478300,7.447478271484375,-0.23267186079919336,0.0937928208105266,0.007553630249947309
1772794424488523500,7.4575234375,-0.3175502844005823,0.05045899825766682,0.02984404371958226
1772794424498568400,7.467568359375,-0.3429600354671478,0.017079839214496313,0.02418046499993652
1772794424508613600,7.477613525390625,-0.345302214679122,0.0074895155051723115,-0.017799129932373762
1772794424518658300,7.487658203125,-0.3034615532934665,0.031754772711731494,0.00914550255127251
1772794424528703500,7.497703369140625,-0.2603717686295509,0.07427088567353785,0.0086114322071895
1772794424538747600,7.50774755859375,-0.25099779108464715,0.11513470138367264,0.07065196452401579
1772794424548792600,7.51779248046875,-0.24168168120682237,0.09507230269443243,0.0982929817739874
1772794424558837500,7.52783740234375,-0.14872107343673704,0.09186842861920595,0.08866250871736556
1772794424568882400,7.53788232421875,-0.04023088810145855,0.05283551813066006,0.0308367080187425
1772794424578927600,7.547927734375,0.07297463531792163,0.0026022549202665687,-0.03838858470302075
1772794424588972500,7.55797265625,0.2062064631998539,-0.001695040414854884,-0.05153700275272131
1772794424599016400,7.568016357421875,0.2938040826320648,0.026195896475575863,-0.019163038696721195
1772794424609061400,7.578061279296875,0.26795184849500653,0.051462439679168165,0.004224522359855473
1772794424619106600,7.5881064453125,0.19128478839993476,0.11601988672036677,-0.012946283073723315
1772794424629151500,7.5981513671875,0.0823696556508541,0.10848075991980731,0.007975472391210495
1772794424639196400,7.608196533203125,0.023021979147195816,0.06903086612820625,0.02434822278227657
1772794424649241300,7.618241455078125,-0.01933481506705284,0.045778000834584234,-0.06211736041270196
1772794424659286500,7.62828662109375,-0.06865443403124809,0.0808169097835198,-0.14410725949835032
1772794424669330700,7.63833056640625,-0.08313947097957133,0.04387227681111544,-0.10082918572071939
1772794424679375600,7.648375732421875,-0.035760464689135546,0.013960684280656277,-0.0910849866239354
1772794424689420800,7.6584208984375,0.04068389256596565,-0.053908188863471145,-0.143863513870351
1772794424699465500,7.668465576171875,0.1307990477770567,-0.0795699784623459,-0.16370043324064462
1772794424709510700,7.6785107421875,0.17111235346496104,-0.08730152256246655,-0.13007855148278177
1772794424719555600,7.6885556640625,0.14206921433210373,-0.08202643170375376,-0.09912563320584594
1772794424729599500,7.698599609375,0.06031389118731022,-0.025143245617486536,-0.09078322719838469
1772794424739644400,7.70864453125,-0.08387596856057643,0.008522292619012295,-0.11565193019080906
1772794424749689600,7.718689697265625,-0.22812018884420393,0.10242635525166988,-0.10860522654969244
1772794424759734500,7.728734619140625,-0.2574228556960821,0.06606584231015294,-0.03555891423504799
1772794424769779700,7.73877978515625,-0.19594284333884715,0.006461451099067926,-0.016128054914996026
1772794424779824400,7.748824462890625,-0.12071078448295593,-0.060345893760770555,-0.056236631811037656
1772794424789868500,7.75886865234375,-0.008332359537482261,-0.0877507276346907,-0.08783427773229777
1772794424799913700,7.768913818359375,0.07537526671886444,-0.1143444643214345,-0.08294862458258867
1772794424809958700,7.778958740234375,0.1687742659062147,-0.09829316443707793,-0.06386855146158486
1772794424820003600,7.789003662109375,0.2867413046389818,-0.09494728807527571,-0.021559213118255136
1772794424830048500,7.799048583984375,0.39292613564133644,-0.09352134692538529,0.0043937049143016335
1772794424840093700,7.80909375,0.38509120423197746,-0.0776750680938363,0.03391275446321815
1772794424850137600,7.8191376953125,0.23814415473043918,-0.02272025625426322,0.059858767830953
1772794424860182500,7.8291826171875,0.033277415701746936,0.047915560852549964,0.0864775658937171
1772794424870227500,7.8392275390625,-0.10909867262244224,0.03946037865299731,0.08274353046454488
1772794424880272600,7.849272705078125,-0.14604513222575186,-0.008183233390375971,0.04329111592229455
1772794424890317600,7.859317626953125,-0.14912088640928267,-0.08019826642852276,-0.04418046597745269
1772794424900362500,7.869362548828125,-0.09774258134961128,-0.07005202586948871,-0.11979761516079306
1772794424910407400,7.879407470703125,-0.21531740589439868,-0.028060703966766593,-0.16021511187553406
1772794424920451600,7.88945166015625,-0.3371434581428766,0.052585342761874196,-0.09091339291669427
1772794424930496800,7.899496826171875,-0.4174216944724321,0.07006579866651445,-0.10228672758527099
1772794424940541400,7.90954150390625,-0.30613807902634144,0.06301208076272159,-0.07863667966760694
1772794424950586600,7.919586669921875,-0.1876443860709667,0.022850421972572803,-0.03521101411283016
1772794424960631600,7.929631591796875,0.00027297172248363493,-0.0030563918959349394,-0.07993333188202231
1772794424970676700,7.9396767578125,0.24925123967826365,-0.017478227414935828,-0.13293003192376346
1772794424980720600,7.949720703125,0.5064508080124854,-0.023116379432380197,-0.07110434793401509
1772794424990765600,7.959765625,0.6139595810949802,-0.0601950140479952,-0.04823401568457484
1772794425000810500,7.969810546875,0.5860094978958368,-0.06372315164152532,-0.040454979180917144
1772794425010855700,7.979855712890625,0.4510948314934969,-0.05321498243492096,-0.02578764446824789
1772794425020900600,7.989900634765625,0.3430208257436752,-0.08848313356246798,0.0037488676721230147
