time,seconds_elapsed,z,y,x
1772794417095543800,0.064543701171875,0.709057629108429,0.7869511842727661,-0.3876033127307892
1772794417105588700,0.074588623046875,0.7167361974716187,0.855882465839386,-0.25054726004600525
1772794417115633000,0.0846328125,0.7253003716468811,0.818303644657135,-0.1307404339313507
1772794417125677800,0.094677734375,0.7294801473617554,0.7441021800041199,-0.019729912281036377
1772794417135722800,0.10472265625,0.7322309017181396,0.6743188500404358,0.06770912557840347
1772794417145767700,0.114767578125,0.7204611897468567,0.6679738163948059,0.12678219377994537
1772794417155811800,0.124811767578125,0.668508768081665,0.688745379447937,0.13612349331378937
1772794417165856800,0.134856689453125,0.5702779293060303,0.737825870513916,0.086357980966568
1772794417175901700,0.144901611328125,0.5019041895866394,0.7358002662658691,-0.008507275022566319
1772794417185946600,0.154946533203125,0.4699459671974182,0.6837820410728455,-0.12063906341791153
1772794417195990800,0.16499072265625,0.4694330394268036,0.5971238613128662,-0.23964747786521912
1772794417206036000,0.175035888671875,0.5381902456283569,0.510204553604126,-0.35391587018966675
1772794417216080600,0.18508056640625,0.6650115251541138,0.48422887921333313,-0.48154228925704956
1772794417226125800,0.195125732421875,0.8373543620109558,0.5000558495521545,-0.6126202940940857
1772794417236170800,0.205170654296875,0.9536263942718506,0.5318529009819031,-0.7314550876617432
1772794417246215000,0.21521484375,0.890367329120636,0.6260771751403809,-0.8088122606277466
1772794417256259600,0.225259521484375,0.7283137440681458,0.5814740061759949,-0.7324634194374084
1772794417266304800,0.2353046875,0.5963510870933533,0.4061894118785858,-0.5393351912498474
1772794417276349700,0.245349609375,0.4774637818336487,0.2411477118730545,-0.27832815051078796
1772794417286393600,0.2553935546875,0.3074835240840912,0.07814675569534302,-0.031352899968624115
1772794417296438800,0.265438720703125,0.0649651512503624,-0.12142973393201828,0.17813508212566376
1772794417306483700,0.275483642578125,-0.21026743948459625,-0.27737852931022644,0.3644159138202667
1772794417316529000,0.28552880859375,-0.47418326139450073,-0.4293835163116455,0.5282520055770874
1772794417326573800,0.29557373046875,-0.573423445224762,-0.4382663369178772,0.599338948726654
1772794417336617700,0.30561767578125,-0.5203320384025574,-0.4062894880771637,0.5967205762863159
1772794417346662700,0.31566259765625,-0.42476803064346313,-0.3738878667354584,0.5802862644195557
1772794417356707800,0.325707763671875,-0.358242005109787,-0.3510179817676544,0.5572919845581055
1772794417366752800,0.335752685546875,-0.31752169132232666,-0.33002108335494995,0.5280936360359192
1772794417376796700,0.345796630859375,-0.28303003311157227,-0.31627756357192993,0.5037413835525513
1772794417386841900,0.355841796875,-0.24352867901325226,-0.28556427359580994,0.4784034490585327
1772794417396886800,0.36588671875,-0.1980123370885849,-0.2533957064151764,0.44814541935920715
1772794417406931700,0.375931640625,-0.14692944288253784,-0.24299882352352142,0.4035482406616211
1772794417416976600,0.3859765625,-0.10573966801166534,-0.24404439330101013,0.3328458368778229
1772794417427020800,0.396020751953125,-0.08244866132736206,-0.24675510823726654,0.23591993749141693
1772794417437065700,0.406065673828125,-0.0413971021771431,-0.28941044211387634,0.13327477872371674
1772794417447110700,0.416110595703125,-0.02764270454645157,-0.3215596079826355,0.04321899637579918
1772794417457155600,0.426155517578125,0.04442962631583214,-0.385847270488739,-0.011474342085421085
1772794417467199700,0.43619970703125,0.10506483167409897,-0.42173412442207336,-0.06531798094511032
1772794417477245000,0.446244873046875,0.10009617358446121,-0.39314135909080505,-0.1101570874452591
1772794417487289600,0.45628955078125,0.047714557498693466,-0.3457048535346985,-0.13636994361877441
1772794417497334800,0.466334716796875,-0.0184458177536726,-0.28501805663108826,-0.15145887434482574
1772794417507379700,0.476379638671875,-0.0924774631857872,-0.2073115110397339,-0.16611348092556
1772794417517423900,0.486423828125,-0.1773366928100586,-0.1241106316447258,-0.20149144530296326
1772794417527468800,0.49646875,-0.23773422837257385,-0.14345338940620422,-0.28800034523010254
1772794417537513700,0.506513671875,-0.23127739131450653,-0.3375197947025299,-0.43923619389533997
1772794417547559000,0.516558837890625,-0.17092137038707733,-0.6206355094909668,-0.6400383710861206
1772794417557602600,0.5266025390625,-0.08190815150737762,-0.6168146729469299,-0.7651598453521729
1772794417567647700,0.536647705078125,-0.11409883946180344,-0.5151516795158386,-0.8021513819694519
1772794417577692700,0.546692626953125,-0.2272789180278778,-0.4186227321624756,-0.7739437222480774
1772794417587737900,0.55673779296875,-0.32090312242507935,-0.42262884974479675,-0.7001518607139587
1772794417597782800,0.56678271484375,-0.35476335883140564,-0.45751944184303284,-0.6208362579345703
1772794417607826700,0.57682666015625,-0.341353178024292,-0.37205320596694946,-0.540774941444397
1772794417617872000,0.586871826171875,-0.3157767355442047,-0.30418282747268677,-0.47897863388061523
1772794417627916800,0.596916748046875,-0.2813169062137604,-0.2454448938369751,-0.40492960810661316
1772794417637962000,0.6069619140625,-0.2677920460700989,-0.2132430225610733,-0.322824090719223
1772794417648005600,0.617005615234375,-0.25610995292663574,-0.198018416762352,-0.2189251184463501
1772794417658050800,0.62705078125,-0.24652470648288727,-0.15633302927017212,-0.12983225286006927
1772794417668095700,0.637095703125,-0.22820159792900085,-0.14742054045200348,-0.060179371386766434
1772794417678140700,0.647140625,-0.0849379152059555,-0.10847233980894089,0.00776079623028636
1772794417688185600,0.657185546875,-0.02720988728106022,-0.19436094164848328,0.03813125938177109
1772794417698229800,0.667229736328125,-0.08363641053438187,-0.18930412828922272,0.04446558654308319
1772794417708274700,0.677274658203125,-0.14740343391895294,-0.14984065294265747,0.08715533465147018
1772794417718319600,0.687319580078125,-0.17622123658657074,-0.12349747121334076,0.13843955099582672
1772794417728364800,0.69736474609375,-0.1453242003917694,-0.09720712155103683,0.19760064780712128
1772794417738408700,0.70740869140625,-0.07853266596794128,-0.08168728649616241,0.23189710080623627
1772794417748453600,0.71745361328125,-0.044155098497867584,-0.0515047162771225,0.2201298624277115
1772794417758498600,0.72749853515625,-0.031064866110682487,-0.04570355266332626,0.18060696125030518
1772794417768543700,0.737543701171875,-0.017606930807232857,-0.0670166164636612,0.12389378994703293
1772794417778588700,0.747588623046875,0.004996649920940399,-0.05378736928105354,0.0865597352385521
1772794417788632600,0.757632568359375,0.03275926411151886,-0.028477909043431282,0.0859077200293541
1772794417798677800,0.767677734375,0.05039525032043457,-0.011929025873541832,0.10717412084341049
1772794417808722700,0.77772265625,0.06603483110666275,0.005442350171506405,0.1268676370382309
1772794417818768000,0.787767822265625,0.07748562097549438,0.01887134090065956,0.142759770154953
1772794417828812500,0.7978125,0.0854831412434578,0.027953410521149635,0.1422775536775589
1772794417838856700,0.807856689453125,0.0829043984413147,0.03146106004714966,0.14576148986816406
1772794417848901600,0.817901611328125,0.06728673726320267,0.05557646602392197,0.16281864047050476
1772794417858946800,0.82794677734375,0.04178377613425255,0.06559661030769348,0.16877293586730957
1772794417868991500,0.837991455078125,0.017869386821985245,0.061408523470163345,0.16085907816886902
1772794417879035600,0.84803564453125,-0.006667647045105696,0.06432921439409256,0.13374091684818268
1772794417889080800,0.858080810546875,-0.018825499340891838,0.059257328510284424,0.09433027356863022
1772794417899125800,0.868125732421875,-0.020897172391414642,0.06172022223472595,0.05173034593462944
1772794417909170700,0.878170654296875,-0.029664836823940277,0.06954793632030487,0.02260008081793785
1772794417919215600,0.888215576171875,-0.057264771312475204,0.06236565113067627,0.0019371459493413568
1772794417929259800,0.898259765625,-0.08204356580972672,0.04526427760720253,-0.000045005581341683865
1772794417939304700,0.9083046875,-0.09720654040575027,0.03714136779308319,0.012579710222780704
1772794417949349600,0.918349609375,-0.10954169929027557,0.034003473818302155,0.025240490213036537
1772794417959394800,0.928394775390625,-0.11546669900417328,0.03916947543621063,0.03856561705470085
1772794417969438700,0.938438720703125,-0.11529845744371414,0.05770017206668854,0.060150958597660065
1772794417979483600,0.948483642578125,-0.1337680071592331,0.07081970572471619,0.08412552624940872
1772794417989528600,0.958528564453125,-0.16007712483406067,0.07997570931911469,0.11229001730680466
1772794417999573800,0.96857373046875,-0.17614957690238953,0.06923997402191162,0.12907858192920685
1772794418009618700,0.97861865234375,-0.18200518190860748,0.05240735039114952,0.12956514954566956
1772794418019662600,0.98866259765625,-0.1832302361726761,0.042975764721632004,0.13099846243858337
1772794418029707800,0.998707763671875,-0.17623399198055267,0.04998478293418884,0.13608776032924652
1772794418039752700,1.008752685546875,-0.16828951239585876,0.055887412279844284,0.14567621052265167
1772794418049798000,1.0187978515625,-0.16496874392032623,0.05687549710273743,0.14880451560020447
1772794418059842800,1.0288427734375,-0.16620312631130219,0.06895346939563751,0.14468006789684296
1772794418069886700,1.03888671875,-0.15160314738750458,0.07558063417673111,0.12891852855682373
1772794418079931600,1.048931640625,-0.1308097094297409,0.0837235152721405,0.10826411843299866
1772794418089976800,1.058976806640625,-0.11171352118253708,0.10355554521083832,0.08173956722021103
1772794418100021500,1.069021484375,-0.1007615402340889,0.0926608145236969,0.05934558063745499
1772794418110066700,1.079066650390625,-0.09553377330303192,0.09311414510011673,0.04007437452673912
1772794418120110800,1.08911083984375,-0.08339855074882507,0.07715515047311783,0.01978668011724949
1772794418130155800,1.09915576171875,-0.06602045893669128,0.06812687963247299,0.0035584033466875553
1772794418140200700,1.10920068359375,-0.04719802737236023,0.06907390058040619,-0.004834282211959362
1772794418150245600,1.11924560546875,-0.024343345314264297,0.06392116099596024,-0.009933359920978546
1772794418160289800,1.129289794921875,-0.007451181765645742,0.043764762580394745,-0.017317771911621094
1772794418170334700,1.139334716796875,-0.00042500256677158177,0.030129743739962578,-0.0007129651494324207
1772794418180379600,1.149379638671875,0.004397183191031218,0.028245555236935616,0.01983252353966236
1772794418190424600,1.159424560546875,0.02433951012790203,0.039111677557229996,0.04336562007665634
1772794418200469800,1.1694697265625,0.04587862268090248,0.05051293596625328,0.06257793307304382
1772794418210514000,1.179513916015625,0.06308747082948685,0.06283703446388245,0.07737357914447784
1772794418220558600,1.18955859375,0.06683773547410965,0.03746163472533226,0.08920760452747345
1772794418230603800,1.199603759765625,0.06366758048534393,0.0032298481091856956,0.09628407657146454
1772794418240648700,1.209648681640625,0.058409433811903,-0.03686936944723129,0.10796443372964859
1772794418250694000,1.21969384765625,0.06262488663196564,-0.06551949679851532,0.1246681958436966
1772794418260737500,1.229737548828125,0.07143089175224304,-0.07555428147315979,0.1387890875339508
1772794418270782700,1.23978271484375,0.08061601221561432,-0.07113631814718246,0.1558225005865097
1772794418280827600,1.24982763671875,0.07979921996593475,-0.08760131150484085,0.16436699032783508
1772794418290872800,1.259872802734375,0.06472063064575195,-0.11513978242874146,0.1696329265832901
1772794418300917500,1.26991748046875,0.04559860751032829,-0.1356533020734787,0.16192200779914856
1772794418310961700,1.279961669921875,0.03137525916099548,-0.1402687430381775,0.1595708280801773
1772794418321006800,1.2900068359375,0.023399624973535538,-0.12690526247024536,0.1622563600540161
1772794418331051800,1.3000517578125,0.01729159988462925,-0.10462429374456406,0.17036263644695282
1772794418341096700,1.3100966796875,0.012497644871473312,-0.08559973537921906,0.18747158348560333
1772794418351140900,1.320140869140625,0.012039188295602798,-0.04807307571172714,0.20064476132392883
1772794418361185800,1.330185791015625,0.008457237854599953,-0.027027714997529984,0.20389248430728912
1772794418371230700,1.340230712890625,0.006644461769610643,-0.0050548710860311985,0.1942952573299408
1772794418381275600,1.350275634765625,0.0037376214750111103,0.003077623900026083,0.17010603845119476
1772794418391320800,1.36032080078125,-0.01109763141721487,-0.01580723002552986,0.13306677341461182
1772794418401364700,1.37036474609375,-0.024466967210173607,-0.036946602165699005,0.10849406570196152
1772794418411409700,1.38040966796875,-0.01920999586582184,-0.04040205106139183,0.09667236357927322
1772794418421454600,1.39045458984375,-0.01862383261322975,-0.025024160742759705,0.09539218246936798
1772794418431499800,1.400499755859375,-0.012586317025125027,-0.007342691533267498,0.08819255977869034
1772794418441544700,1.410544677734375,-0.012586317025125027,0.006585374474525452,0.07495851069688797
1772794418451588600,1.420588623046875,-0.015637200325727463,0.014630569145083427,0.06347382068634033
1772794418461633800,1.4306337890625,-0.02090706303715706,0.02060697041451931,0.06056085228919983
1772794418471678700,1.4406787109375,-0.023341834545135498,0.02500997669994831,0.07385197281837463
1772794418481724000,1.450723876953125,-0.024424409493803978,0.03217015415430069,0.08892865478992462
1772794418491768600,1.4607685546875,-0.021209942176938057,0.04736220836639404,0.11030018329620361
1772794418501812700,1.470812744140625,-0.015476422384381294,0.07305531948804855,0.1299138367176056
1772794418511857700,1.480857666015625,-0.006085018627345562,0.08256231993436813,0.1413070261478424
1772794418521902800,1.49090283203125,0.00007114437175914645,0.08111356198787689,0.14292356371879578
1772794418531947500,1.500947509765625,0.005016890354454517,0.08791783452033997,0.14118516445159912
1772794418541992700,1.51099267578125,0.007824394851922989,0.09353497624397278,0.13743755221366882
1772794418552036900,1.521036865234375,0.014952579513192177,0.08616302162408829,0.12099182605743408
1772794418562081800,1.531081787109375,0.020288754254579544,0.07722518593072891,0.08796703070402145
1772794418572126700,1.541126708984375,0.016945209354162216,0.05338137596845627,0.04545627906918526
1772794418582171600,1.551171630859375,0.012115301564335823,0.019739525392651558,0.013819258660078049
1772794418592216800,1.561216796875,0.0006780027179047465,-0.0041781081818044186,0.007660013157874346
1772794418602260700,1.5712607421875,-0.021255793049931526,-0.0279068723320961,0.017207978293299675
1772794418612305700,1.5813056640625,-0.03909415379166603,-0.04093138128519058,0.0465877428650856
1772794418622350600,1.5913505859375,-0.055004943162202835,-0.04075241833925247,0.08615725487470627
1772794418632395800,1.601395751953125,-0.061236120760440826,-0.03652779757976532,0.12473462522029877
1772794418642439700,1.611439697265625,-0.06988447159528732,-0.02401919476687908,0.15449438989162445
1772794418652484400,1.621484375,-0.0766691118478775,-0.021072087809443474,0.16444574296474457
1772794418662529300,1.631529296875,-0.08396617323160172,-0.010734228417277336,0.1573457568883896
1772794418672574200,1.64157421875,-0.08411797136068344,-0.0018310151062905788,0.13925038278102875
1772794418682619400,1.651619384765625,-0.08432436734437943,0.00940406322479248,0.11330666393041611
1772794418692663600,1.66166357421875,-0.07988274842500687,0.009779302403330803,0.08989667892456055
1772794418702708200,1.671708251953125,-0.07539984583854675,0.009795280173420906,0.06411728262901306
1772794418712753400,1.68175341796875,-0.05939618870615959,-0.0032951654866337776,0.037950389087200165
1772794418722798300,1.69179833984375,-0.04270908609032631,-0.010184230282902718,0.023458797484636307
1772794418732843500,1.701843505859375,-0.03210688382387161,-0.011056945659220219,0.017192989587783813
1772794418742887200,1.71188720703125,-0.023454541340470314,-0.007127718068659306,0.026585426181554794
1772794418752932400,1.721932373046875,-0.012824859470129013,-0.0003604721277952194,0.0501711405813694
1772794418762977300,1.731977294921875,-0.00445534335449338,0.014841118827462196,0.075040802359581
1772794418773022500,1.7420224609375,-0.0025231060571968555,0.03265298157930374,0.09399612247943878
1772794418783067100,1.752067138671875,-0.005087197292596102,0.04493894428014755,0.09068048000335693
1772794418793111300,1.762111328125,-0.011579343117773533,0.07194818556308746,0.0822051614522934
1772794418803156500,1.772156494140625,-0.013266721740365028,0.08154648542404175,0.06128283590078354
1772794418813201400,1.782201416015625,-0.017184030264616013,0.0995943620800972,0.04289998486638069
1772794418823246300,1.792246337890625,-0.01896701566874981,0.11555229127407074,0.02028043009340763
1772794418833291300,1.802291259765625,-0.018762731924653053,0.12440618127584457,-0.0019209750462323427
1772794418843335400,1.81233544921875,-0.024663496762514114,0.12495850771665573,-0.023940257728099823
1772794418853380400,1.82238037109375,-0.0318925604224205,0.1156175285577774,-0.042050134390592575
1772794418863425300,1.83242529296875,-0.040573135018348694,0.10434063524007797,-0.05150941386818886
1772794418873470200,1.84247021484375,-0.0388922356069088,0.10870444029569626,-0.051458701491355896
1772794418883515400,1.852515380859375,-0.04276367276906967,0.1209414079785347,-0.042775996029376984
1772794418893559600,1.8625595703125,-0.04967009276151657,0.1328895092010498,-0.033392421901226044
1772794418903604200,1.872604248046875,-0.05825319513678551,0.13863316178321838,-0.024210112169384956
1772794418913649400,1.8826494140625,-0.05801718309521675,0.12673123180866241,-0.02655532956123352
1772794418923694300,1.8926943359375,-0.06415976583957672,0.15278492867946625,-0.030309854075312614
1772794418933739500,1.902739501953125,-0.0612567700445652,0.14972777664661407,-0.03541147708892822
1772794418943783200,1.912783203125,-0.055136825889348984,0.14088794589042664,-0.05147965997457504
1772794418953828400,1.922828369140625,-0.045596878975629807,0.1270626187324524,-0.069830022752285
1772794418963873300,1.932873291015625,-0.03244698792695999,0.12170727550983429,-0.07896865904331207
1772794418973918500,1.94291845703125,-0.00681179529055953,0.11935495585203171,-0.0868140235543251
1772794418983962400,1.95296240234375,0.017275430262088776,0.11730991303920746,-0.08789979666471481
1772794418994007300,1.96300732421875,0.040900979191064835,0.10497746616601944,-0.08675703406333923
1772794419004052500,1.973052490234375,0.054439425468444824,0.09026163816452026,-0.08429174870252609
1772794419014097400,1.983097412109375,0.06694281101226807,0.07320301979780197,-0.0817309245467186
1772794419024142300,1.993142333984375,0.08048099279403687,0.05478353053331375,-0.06881779432296753
1772794419034186200,2.003186279296875,0.08418265730142593,0.02824118733406067,-0.04453417658805847
1772794419044231400,2.0132314453125,0.08027713745832443,0.03317708894610405,0.009967146441340446
1772794419054276400,2.0232763671875,0.0778239518404007,0.05531483143568039,0.06379032135009766
1772794419064321300,2.0333212890625,0.07123156636953354,0.08260610699653625,0.09947267919778824
1772794419074366200,2.0433662109375,0.058129407465457916,0.08038646727800369,0.10299429297447205
1772794419084410400,2.053410400390625,0.03974907100200653,0.07827964425086975,0.09168731421232224
1772794419094455300,2.063455322265625,0.025983233004808426,0.06517118960618973,0.0629311054944992
1772794419104500200,2.073500244140625,0.010191487148404121,0.06392855942249298,0.02576376311480999
1772794419114545400,2.08354541015625,-0.0076895300298929214,0.04697199538350105,-0.015423125587403774
1772794419124590300,2.09359033203125,-0.025622190907597542,0.03653320297598839,-0.050073783844709396
1772794419134634200,2.10363427734375,-0.044602248817682266,0.027350837364792824,-0.07681240886449814
1772794419144679400,2.113679443359375,-0.06196259707212448,0.016361836344003677,-0.0813072919845581
1772794419154724400,2.123724365234375,-0.07399117946624756,0.01156330481171608,-0.06900147348642349
1772794419164769500,2.13376953125,-0.08957493305206299,0.016748478636145592,-0.035688791424036026
1772794419174814200,2.143814208984375,-0.09713359922170639,0.014320576563477516,-0.004017910920083523
1772794419184858400,2.1538583984375,-0.1046740785241127,0.01181507483124733,0.01877954602241516
1772794419194903300,2.1639033203125,-0.09622734785079956,0.019962001591920853,0.03524503484368324
1772794419204948500,2.173948486328125,-0.08153016120195389,0.028358951210975647,0.04568249359726906
1772794419214993200,2.1839931640625,-0.06619205325841904,0.027859602123498917,0.048629164695739746
1772794419225038300,2.194038330078125,-0.05211538448929787,0.029546447098255157,0.04199070483446121
1772794419235082500,2.20408251953125,-0.0384148433804512,0.03388841450214386,0.028638266026973724
1772794419245127400,2.21412744140625,-0.023641489446163177,0.03480773791670799,0.016066547483205795
1772794419255172400,2.22417236328125,-0.013536488637328148,0.02942613512277603,-0.0029631084762513638
1772794419265217300,2.23421728515625,-0.002137626986950636,0.02587054669857025,-0.010409306734800339
1772794419275262500,2.244262451171875,0.009512980468571186,0.023169778287410736,-0.0037974773440510035
1772794419285306400,2.254306396484375,0.01399294938892126,0.024843577295541763,0.0038386043161153793
1772794419295351300,2.264351318359375,0.011877612210810184,0.02014613151550293,0.010546194389462471
1772794419305396200,2.274396240234375,0.00841949786990881,0.004486212506890297,-0.00005185569170862436
1772794419315441400,2.28444140625,-0.004014921840280294,-0.0026969676837325096,-0.02316736802458763
1772794419325486300,2.294486328125,-0.03482583165168762,-0.018278857693076134,-0.044424187391996384
1772794419335530200,2.3045302734375,-0.06355436146259308,-0.03172382712364197,-0.05516981706023216
1772794419345575400,2.314575439453125,-0.07816845178604126,-0.04245290532708168,-0.05353197455406189
1772794419355620400,2.324620361328125,-0.08017614483833313,-0.03376077488064766,-0.03791641443967819
1772794419365665500,2.33466552734375,-0.07787863910198212,-0.01583636924624443,-0.020914526656270027
1772794419375710200,2.344710205078125,-0.07808582484722137,-0.01232275553047657,-0.008500581607222557
1772794419385754400,2.35475439453125,-0.08325288444757462,-0.020277351140975952,-0.002077836310490966
1772794419395799300,2.36479931640625,-0.08720898628234863,-0.05257398635149002,0.002472097985446453
1772794419405844500,2.374844482421875,-0.08859489113092422,-0.07479966431856155,0.0037653290200978518
1772794419415889200,2.38488916015625,-0.08654429763555527,-0.08048007637262344,-0.0013472172431647778
1772794419425934300,2.394934326171875,-0.08212477713823318,-0.08101563900709152,-0.011993469670414925
1772794419435978500,2.404978515625,-0.07558414340019226,-0.06852813065052032,-0.011456994339823723
1772794419446023200,2.415023193359375,-0.06517890840768814,-0.05002687871456146,-0.007586622145026922
1772794419456068400,2.425068359375,-0.04744004085659981,-0.03647000715136528,0.0006464251782745123
1772794419466113300,2.43511328125,-0.024975478649139404,-0.013226205483078957,0.004043819382786751
1772794419476158500,2.445158447265625,-0.006025510374456644,0.01008742768317461,-0.0027038692496716976
1772794419486202000,2.4552021484375,0.006804267875850201,0.023158486932516098,-0.02649255469441414
1772794419496247300,2.465247314453125,0.012083984911441803,0.03400474414229393,-0.06360556930303574
1772794419506292200,2.475292236328125,0.00761227123439312,0.04809127002954483,-0.0897093415260315
1772794419516337400,2.48533740234375,0.010384399443864822,0.06965398043394089,-0.10864832997322083
1772794419526382300,2.49538232421875,-0.00035426521208137274,0.09534203261137009,-0.12637992203235626
1772794419536426200,2.50542626953125,-0.012015492655336857,0.11111018061637878,-0.12875555455684662
1772794419546471400,2.515471435546875,-0.0263262540102005,0.11276746541261673,-0.1261134296655655
1772794419556516400,2.525516357421875,-0.03596875071525574,0.12203431129455566,-0.10570040345191956
1772794419566561300,2.535561279296875,-0.04048094525933266,0.1233656257390976,-0.07665436714887619
1772794419576606200,2.545606201171875,-0.0495615154504776,0.11293625086545944,-0.06052904948592186
1772794419586650400,2.555650390625,-0.05425160750746727,0.09139420837163925,-0.046123478561639786
1772794419596695300,2.5656953125,-0.055815406143665314,0.07195591181516647,-0.034483179450035095
1772794419606740200,2.575740234375,-0.052620675414800644,0.05861533060669899,-0.02938801981508732
1772794419616785400,2.585785400390625,-0.04109778627753258,0.04033678397536278,-0.02535972185432911
1772794419626830300,2.595830322265625,-0.03023022599518299,0.019158262759447098,-0.02380922995507717
1772794419636874500,2.60587451171875,-0.019617974758148193,0.014599512331187725,-0.011077571660280228
1772794419646921000,2.6159208984375,-0.014642656780779362,0.018831808120012283,0.003235588315874338
1772794419656966000,2.6259658203125,-0.007589851506054401,0.026870135217905045,0.011363213881850243
1772794419667010800,2.6360107421875,-0.00258683692663908,0.030960217118263245,0.004137258976697922
1772794419677055700,2.6460556640625,0.007735652383416891,0.039664704352617264,-0.016649246215820312
1772794419687100000,2.656099853515625,0.02110658586025238,0.049115195870399475,-0.0381619967520237
1772794419697145000,2.66614501953125,0.0329279787838459,0.05392034351825714,-0.0522947795689106
1772794419707189800,2.676189697265625,0.04749946668744087,0.054182928055524826,-0.061479758471250534
1772794419717235000,2.68623486328125,0.06319767981767654,0.061041370034217834,-0.07492069154977798
1772794419727279900,2.69627978515625,0.07251767814159393,0.0677618607878685,-0.07843046635389328
1772794419737323800,2.70632373046875,0.07844166457653046,0.058491550385951996,-0.08844707906246185
1772794419747368700,2.71636865234375,0.08732223510742188,0.051147352904081345,-0.09446422755718231
1772794419757414000,2.726413818359375,0.09444583207368851,0.04136858880519867,-0.08907235413789749
1772794419767458800,2.736458740234375,0.09377232193946838,0.02994869090616703,-0.08197875320911407
1772794419777504000,2.74650390625,0.08850927650928497,0.008961654268205166,-0.07380837202072144
1772794419787548000,2.7565478515625,0.08453451097011566,-0.008105745539069176,-0.061811625957489014
1772794419797592800,2.7665927734375,0.0780574381351471,-0.023886732757091522,-0.047538794577121735
1772794419807638000,2.776637939453125,0.07898608595132828,-0.03561289608478546,-0.03205917030572891
1772794419817683000,2.786682861328125,0.07161949574947357,-0.04536321014165878,-0.024097424000501633
1772794419827728000,2.796727783203125,0.07441315054893494,-0.06289799511432648,-0.013317212462425232
1772794419837771800,2.806771728515625,0.07381370663642883,-0.07968331128358841,0.0026773898862302303
1772794419847817000,2.81681689453125,0.07184615731239319,-0.08997642993927002,0.026170730590820312
1772794419857862000,2.82686181640625,0.07101664692163467,-0.08861811459064484,0.04894380271434784
1772794419867906800,2.83690673828125,0.07387448847293854,-0.09581584483385086,0.06783493608236313
1772794419877951700,2.84695166015625,0.07315291464328766,-0.09355795383453369,0.0814642384648323
1772794419887996000,2.856995849609375,0.0727587640285492,-0.08992087841033936,0.07958724349737167
1772794419898040800,2.867040771484375,0.07573812454938889,-0.08393963426351547,0.06884526461362839
1772794419908085800,2.877085693359375,0.07293248176574707,-0.07418820261955261,0.05394008383154869
1772794419918131000,2.887130859375,0.07401161640882492,-0.07393525540828705,0.029391102492809296
1772794419928175900,2.89717578125,0.06873669475317001,-0.06896526366472244,0.0003669068682938814
1772794419938219800,2.9072197265625,0.05697331577539444,-0.07783082127571106,-0.031239109113812447
1772794419948265000,2.917264892578125,0.04109581559896469,-0.08167190104722977,-0.05684247612953186
1772794419958310000,2.927309814453125,0.03381119668483734,-0.07430900633335114,-0.05344294756650925
1772794419968354800,2.937354736328125,0.028849193826317787,-0.04863613098859787,-0.03313714265823364
1772794419978400000,2.94739990234375,0.028137117624282837,-0.020923545584082603,-0.006324475631117821
1772794419988444000,2.95744384765625,0.028508896008133888,0.011941993609070778,0.016710270196199417
1772794419998488800,2.96748876953125,0.02289007045328617,0.03324510157108307,0.01677829399704933
1772794420008534000,2.977533935546875,0.019395736977458,0.03432155400514603,0.003481664229184389
1772794420018578700,2.98757861328125,0.02042209729552269,0.02400878071784973,-0.009848825633525848
1772794420028624000,2.997623779296875,0.028322897851467133,0.018546372652053833,-0.022997118532657623
1772794420038668000,3.00766796875,0.031005734577775,0.009650829248130322,-0.030872009694576263
1772794420048713000,3.017712890625,0.030799871310591698,0.00021844450384378433,-0.03651418536901474
1772794420058758000,3.0277578125,0.02475646883249283,-0.00642295042052865,-0.034565892070531845
1772794420068802800,3.037802734375,0.020174499601125717,-0.004899356048554182,-0.02345278486609459
1772794420078848000,3.047847900390625,0.01748816855251789,0.0051170592196285725,-0.014309622347354889
1772794420088892000,3.057891845703125,0.008530894294381142,0.008912064135074615,-0.004979769699275494
1772794420098936800,3.067936767578125,-0.0030927062034606934,0.0059070042334496975,-0.003354518674314022
1772794420108981800,3.077981689453125,-0.005694881081581116,0.012297526001930237,-0.0014836480841040611
1772794420119027000,3.08802685546875,-0.012869182042777538,0.01589614897966385,-0.00023584289010614157
1772794420129071900,3.09807177734375,-0.015121683478355408,0.02215404435992241,-0.006367504596710205
1772794420139115800,3.10811572265625,-0.014292272739112377,0.021844327449798584,-0.01681949757039547
1772794420149161000,3.118160888671875,-0.014834226109087467,0.021047241985797882,-0.02524440735578537
1772794420159206000,3.128205810546875,-0.0135331517085433,0.012721503153443336,-0.025936488062143326
1772794420169251000,3.1382509765625,-0.002259457716718316,0.009752077981829643,-0.017707055434584618
1772794420179295700,3.148295654296875,0.010494121350347996,0.00545182079076767,-0.01458175852894783
1772794420189341000,3.1583408203125,0.020943567156791687,-0.008732441812753677,-0.012813152745366096
1772794420199384800,3.168384765625,0.026464099064469337,-0.023480124771595,-0.01670311950147152
1772794420209430000,3.178429931640625,0.03441762924194336,-0.034516531974077225,-0.021795615553855896
1772794420219474700,3.188474609375,0.0418667234480381,-0.034350134432315826,-0.021906061097979546
1772794420229520000,3.198519775390625,0.056448597460985184,-0.021711837500333786,-0.015507016330957413
1772794420239564800,3.208564697265625,0.06140492856502533,-0.011281244456768036,-0.006601405330002308
1772794420249609000,3.21860888671875,0.0668681412935257,-0.0053770169615745544,-0.008309557102620602
1772794420259654000,3.22865380859375,0.07831747829914093,0.006480488460510969,-0.015653111040592194
1772794420269698800,3.23869873046875,0.08094335347414017,0.018908130005002022,-0.024345137178897858
1772794420279744000,3.248743896484375,0.0837312862277031,0.02824816107749939,-0.0323960967361927
1772794420289789000,3.258788818359375,0.08166946470737457,0.02716904878616333,-0.04449217766523361
1772794420299832800,3.268832763671875,0.08876624703407288,0.02462482452392578,-0.05591462552547455
1772794420309877800,3.278877685546875,0.07958633452653885,0.024760913103818893,-0.06524261087179184
1772794420319923000,3.2889228515625,0.06691034138202667,0.008992275223135948,-0.06732391566038132
1772794420329967900,3.2989677734375,0.058648157864809036,0.009624511003494263,-0.05835731700062752
1772794420340012800,3.3090126953125,0.051865104585886,0.024359460920095444,-0.03960862755775452
1772794420350057000,3.319056884765625,0.04451771080493927,0.038864098489284515,-0.021259978413581848
1772794420360102000,3.329101806640625,0.03607602044939995,0.03480783849954605,-0.003567800158634782
1772794420370147000,3.33914697265625,0.026447631418704987,0.02271442487835884,0.011074526235461235
1772794420380191700,3.349191650390625,0.011928033083677292,0.012314889580011368,0.03234085440635681
1772794420390237000,3.35923681640625,0.0011819119099527597,0.002288887742906809,0.04655707627534866
1772794420400280800,3.36928076171875,-0.009908323176205158,-0.004324059933423996,0.05564199388027191
1772794420410325800,3.37932568359375,-0.019174791872501373,-0.011491691693663597,0.05623268336057663
1772794420420371000,3.389370849609375,-0.03693842142820358,-0.01034526340663433,0.052755050361156464
1772794420430416000,3.399415771484375,-0.050194837152957916,-0.010085605084896088,0.0455341562628746
1772794420440460800,3.409460693359375,-0.05495802313089371,0.0022644386626780033,0.0425524041056633
1772794420450506000,3.419506103515625,-0.05624033510684967,0.02268688939511776,0.03932172432541847
1772794420460550000,3.4295498046875,-0.05151845142245293,0.0473838672041893,0.035286273807287216
1772794420470594800,3.4395947265625,-0.04535350203514099,0.08038629591464996,0.026248835027217865
1772794420480640000,3.449639892578125,-0.021770508959889412,0.12758000195026398,0.030656863003969193
1772794420490685000,3.459684814453125,0.022919464856386185,0.1902066320180893,0.0522010363638401
1772794420500729900,3.469729736328125,0.06856576353311539,0.30674460530281067,0.11047058552503586
1772794420510774000,3.47977392578125,0.12679952383041382,0.3758501708507538,0.17677903175354004
1772794420520819000,3.48981884765625,0.1476140320301056,0.434526264667511,0.23927192389965057
1772794420530863900,3.49986376953125,0.1826721429824829,0.5855602622032166,0.3211292326450348
1772794420540908800,3.50990869140625,0.23059500753879547,0.6439633369445801,0.4139677584171295
1772794420550954000,3.5199541015625,0.3389925956726074,0.6916706562042236,0.46708929538726807
1772794420560998000,3.529997802734375,0.458970308303833,0.631249725818634,0.45787906646728516
1772794420571042800,3.540042724609375,0.5331811308860779,0.516995906829834,0.42037245631217957
1772794420581087700,3.550087646484375,0.5618914365768433,0.4515455663204193,0.42862704396247864
1772794420591133000,3.5601328125,0.5702478885650635,0.33114778995513916,0.4635765254497528
1772794420601177900,3.570177734375,0.5709158182144165,0.19862307608127594,0.4990184009075165
1772794420611221800,3.5802216796875,0.5422143936157227,0.09089688956737518,0.510308563709259
1772794420621267000,3.590266845703125,0.4754979908466339,0.04022880271077156,0.4829246699810028
1772794420631312000,3.600311767578125,0.35720810294151306,-0.023089447990059853,0.42733386158943176
1772794420641357000,3.610357177734375,0.2523545026779175,-0.11367105692625046,0.3740643858909607
1772794420651400000,3.62039990234375,0.18698802590370178,-0.11427852511405945,0.3337513208389282
1772794420661444900,3.63044482421875,0.13158951699733734,-0.1022242084145546,0.3060509264469147
1772794420671489000,3.640489013671875,0.055056117475032806,-0.11553362756967545,0.3109261095523834
1772794420681534000,3.650533935546875,-0.0342986062169075,-0.14453990757465363,0.30903127789497375
1772794420691579000,3.660578857421875,-0.10674351453781128,-0.1603202074766159,0.2758200764656067
1772794420701623800,3.670623779296875,-0.17466041445732117,-0.17416822910308838,0.23569051921367645
1772794420711669000,3.6806689453125,-0.24440114200115204,-0.18102240562438965,0.19990801811218262
1772794420721713200,3.690713134765625,-0.30557355284690857,-0.17087379097938538,0.1741965264081955
1772794420731757800,3.7007578125,-0.3854233920574188,-0.2075263410806656,0.13902468979358673
1772794420741803000,3.710802978515625,-0.44850802421569824,-0.2531660497188568,0.08048681914806366
1772794420751848000,3.720847900390625,-0.48896169662475586,-0.1830412894487381,0.00282078143209219
1772794420761893000,3.73089306640625,-0.48579829931259155,-0.1463034600019455,-0.0985506922006607
1772794420771936800,3.740936767578125,-0.4440274238586426,-0.1283329874277115,-0.1790761649608612
1772794420781982000,3.75098193359375,-0.40183913707733154,-0.10453145951032639,-0.22217747569084167
1772794420792027000,3.76102685546875,-0.35035890340805054,-0.11615988612174988,-0.26593589782714844
1772794420802072000,3.771072021484375,-0.27813151478767395,-0.1467556655406952,-0.29311448335647583
1772794420812116700,3.78111669921875,-0.21278418600559235,-0.16461801528930664,-0.29284363985061646
1772794420822161000,3.791160888671875,-0.1682908684015274,-0.15582065284252167,-0.258160263299942
1772794420832206000,3.8012060546875,-0.1558656245470047,-0.13118641078472137,-0.18880940973758698
1772794420842251000,3.8112509765625,-0.15011939406394958,-0.11592329293489456,-0.11047568917274475
1772794420852296000,3.8212958984375,-0.1449054479598999,-0.0904427021741867,-0.03537693992257118
1772794420862340900,3.8313408203125,-0.12427910417318344,-0.06370696425437927,0.024201778694987297
1772794420872386000,3.841385986328125,-0.0943896472454071,-0.03420419245958328,0.06304185837507248
1772794420882430000,3.851429931640625,-0.0703158751130104,-0.010023816488683224,0.07457703351974487
1772794420892475000,3.861474853515625,-0.059417154639959335,-0.000574920792132616,0.05988650023937225
1772794420902520000,3.87152001953125,-0.039311397820711136,0.005605319049209356,0.026313019916415215
1772794420912565000,3.88156494140625,-0.012302949093282223,0.010221108794212341,-0.025358695536851883
1772794420922610000,3.89160986328125,0.011013835668563843,0.011130152270197868,-0.07489413768053055
1772794420932653800,3.90165380859375,0.018325544893741608,-0.007827825844287872,-0.13045966625213623
1772794420942699000,3.911698974609375,0.002110523171722889,-0.026147600263357162,-0.18334954977035522
1772794420952744000,3.921743896484375,-0.008068610914051533,-0.04045915976166725,-0.21881459653377533
1772794420962789000,3.9317890625,-0.026098232716321945,-0.038295820355415344,-0.24681298434734344
1772794420972833800,3.941833740234375,-0.028315315023064613,-0.03740339353680611,-0.2683377265930176
1772794420982879000,3.95187890625,-0.029335906729102135,-0.028031954541802406,-0.2817911207675934
1772794420992923100,3.961923095703125,-0.026989394798874855,-0.0032672197557985783,-0.2876812517642975
1772794421002968000,3.971968017578125,-0.011693493463099003,0.017765000462532043,-0.28942134976387024
1772794421013013000,3.982012939453125,0.003356295172125101,0.044181160628795624,-0.28833237290382385
1772794421023058000,3.992057861328125,0.022419631481170654,0.067869171500206,-0.2913637161254883
1772794421033102000,4.00210205078125,0.012149152345955372,0.09813466668128967,-0.3101919889450073
1772794421043146800,4.012146728515625,0.04052281379699707,0.0905979797244072,-0.33035844564437866
1772794421053192000,4.02219189453125,0.06756509095430374,0.10233905911445618,-0.32521986961364746
1772794421063236000,4.032236083984375,0.10363024473190308,0.12421628832817078,-0.29293033480644226
1772794421073281000,4.042281005859375,0.15243293344974518,0.13891719281673431,-0.2549999952316284
1772794421083326000,4.052325927734375,0.2012840360403061,0.17642584443092346,-0.21838262677192688
1772794421093371000,4.062370849609375,0.25795239210128784,0.1937670111656189,-0.19156886637210846
1772794421103416000,4.072416015625,0.3090178668498993,0.19655482470989227,-0.1874246448278427
1772794421113461000,4.0824609375,0.342372864484787,0.1828230321407318,-0.20771872997283936
1772794421123505000,4.0925048828125,0.3660326898097992,0.16409562528133392,-0.21926003694534302
1772794421133549800,4.1025498046875,0.4024897813796997,0.12343847751617432,-0.2194533795118332
1772794421143595000,4.112594970703125,0.430655837059021,0.10097242891788483,-0.2174459546804428
1772794421153640000,4.122639892578125,0.4402967393398285,0.08928913623094559,-0.20224463939666748
1772794421163684900,4.132684814453125,0.4234132468700409,0.07641174644231796,-0.1753397434949875
1772794421173729000,4.14272900390625,0.3957675099372864,0.05274689942598343,-0.15257132053375244
1772794421183774000,4.15277392578125,0.36450526118278503,0.024943066760897636,-0.13050530850887299
1772794421193819100,4.162819091796875,0.33957406878471375,0.01046612299978733,-0.09858306497335434
1772794421203863800,4.17286376953125,0.3359748423099518,-0.03738214820623398,-0.0684586837887764
1772794421213909000,4.182908935546875,0.32468464970588684,-0.030995087698101997,-0.041253961622714996
1772794421223954000,4.192953857421875,0.3013852834701538,-0.031253740191459656,-0.01508311927318573
1772794421233998000,4.202998046875,0.26370981335639954,-0.04576263949275017,0.00493586203083396
1772794421244042800,4.213042724609375,0.22857187688350677,-0.05388331785798073,0.01047561690211296
1772794421254088000,4.223087890625,0.2088106870651245,-0.056989893317222595,-0.00046278495574370027
1772794421264132900,4.2331328125,0.2145409882068634,-0.05467379465699196,-0.013002734631299973
1772794421274178000,4.243177978515625,0.23610086739063263,-0.047972746193408966,-0.033778052777051926
1772794421284222000,4.253221923828125,0.25593361258506775,-0.03834712132811546,-0.04604601860046387
1772794421294267000,4.263266845703125,0.2907547354698181,-0.047692686319351196,-0.050906553864479065
1772794421304312000,4.27331201171875,0.33590182662010193,-0.04389671981334686,-0.05281371995806694
1772794421314357000,4.28335693359375,0.37230566143989563,-0.034098681062459946,-0.04975161701440811
1772794421324402000,4.29340185546875,0.3956362009048462,-0.035619236528873444,-0.046483688056468964
1772794421334446000,4.303446044921875,0.3970239758491516,-0.04860267788171768,-0.04982302710413933
1772794421344491000,4.313490966796875,0.39010220766067505,-0.06665710359811783,-0.0574234239757061
1772794421354536000,4.323535888671875,0.3757339119911194,-0.07970526069402695,-0.054811395704746246
1772794421364580900,4.333580810546875,0.3592959940433502,-0.07220703363418579,-0.035444051027297974
1772794421374626000,4.3436259765625,0.34708139300346375,-0.06040789559483528,-0.020538339391350746
1772794421384671000,4.3536708984375,0.33189839124679565,-0.047313131392002106,-0.017436251044273376
1772794421394715100,4.363715087890625,0.30475544929504395,-0.032811153680086136,-0.015682291239500046
1772794421404759800,4.373759765625,0.26877400279045105,-0.02673184871673584,-0.019672848284244537
1772794421414805000,4.383804931640625,0.2310607135295868,-0.034336771816015244,-0.018449392169713974
1772794421424850000,4.393849853515625,0.20593741536140442,-0.047894030809402466,0.0029776389710605145
1772794421434895000,4.40389501953125,0.18262703716754913,-0.05619696527719498,0.02487841062247753
1772794421444939000,4.41393896484375,0.16357457637786865,-0.07018525898456573,0.04087434709072113
1772794421454984000,4.42398388671875,0.14345572888851166,-0.09123168885707855,0.049507517367601395
1772794421465029000,4.434029052734375,0.130766361951828,-0.10182015597820282,0.050615884363651276
1772794421475074000,4.444073974609375,0.1278776228427887,-0.10174558311700821,0.0490691214799881
1772794421485119000,4.454118896484375,0.1293671727180481,-0.10261095315217972,0.0452243909239769
1772794421495164000,4.464163818359375,0.13110008835792542,-0.10777189582586288,0.037380315363407135
1772794421505208000,4.4742080078125,0.13818024098873138,-0.10073257237672806,0.03536034747958183
1772794421515253000,4.4842529296875,0.14352759718894958,-0.0952398031949997,0.028255833312869072
1772794421525298000,4.4942978515625,0.14851762354373932,-0.08832117915153503,0.01827693171799183
1772794421535342800,4.5043427734375,0.14762599766254425,-0.07807093858718872,0.014380992390215397
1772794421545388000,4.514387939453125,0.1403641700744629,-0.07242082804441452,0.006220799870789051
1772794421555433000,4.524432861328125,0.12342885881662369,-0.06908202171325684,0.008181684650480747
1772794421565476900,4.534476806640625,0.1142294779419899,-0.06328799575567245,0.014467772096395493
1772794421575522000,4.54452197265625,0.10389987379312515,-0.04625122249126434,0.02853165939450264
1772794421585567000,4.55456689453125,0.09500309824943542,-0.031063592061400414,0.04348831623792648
1772794421595612200,4.564612060546875,0.08316028863191605,-0.011898951604962349,0.05157926678657532
1772794421605656800,4.57465673828125,0.06554076820611954,-0.0029450280126184225,0.049743205308914185
1772794421615701000,4.584700927734375,0.049282439053058624,0.00238821841776371,0.047937314957380295
1772794421625746000,4.594745849609375,0.03851718828082085,0.00831231102347374,0.04401588812470436
1772794421635791000,4.604791015625,0.037717439234256744,0.005473115015774965,0.03767276927828789
1772794421645835800,4.614835693359375,0.0337345153093338,0.0027107708156108856,0.029317405074834824
1772794421655881700,4.6248818359375,0.02560787834227085,0.005271133966743946,0.033108148723840714
1772794421665926700,4.6349267578125,0.011192954145371914,0.007734506856650114,0.03765770420432091
1772794421675970600,4.644970458984375,-0.005268310196697712,-0.0036419841926544905,0.04289640858769417
1772794421686015500,4.655015380859375,-0.010914454236626625,-0.021657669916749,0.04799487814307213
1772794421696060700,4.665060791015625,-0.02104778029024601,-0.025161590427160263,0.05854552239179611
1772794421706105300,4.675105224609375,-0.0231158509850502,-0.035763323307037354,0.06678172945976257
1772794421716150500,4.685150634765625,-0.015674179419875145,-0.04008403792977333,0.06795165687799454
1772794421726195500,4.695195556640625,-0.006273054983466864,-0.0351521372795105,0.06834995001554489
1772794421736239600,4.705239501953125,-0.002982985693961382,-0.028683586046099663,0.06825461238622665
1772794421746284500,4.715284423828125,0.0005285810912027955,-0.02562542073428631,0.06791851669549942
1772794421756329500,4.72532958984375,0.0013056914322078228,-0.023094618692994118,0.05752020329236984
1772794421766374700,4.735374755859375,0.0024616813752800226,-0.0198671817779541,0.039109621196985245
1772794421776419600,4.745419677734375,-0.004688640125095844,-0.01696966215968132,0.00941670686006546
1772794421786463500,4.75546337890625,-0.012773087248206139,-0.008792698383331299,-0.016863977536559105
1772794421796508700,4.7655087890625,-0.021185215562582016,-0.006237661466002464,-0.03125996142625809
1772794421806553600,4.7755537109375,-0.031491924077272415,-0.0034102890640497208,-0.03789324685931206
1772794421816598500,4.7855986328125,-0.03941163048148155,0.013154571875929832,-0.02516014315187931
1772794421826643700,4.795643798828125,-0.039044104516506195,0.016139550134539604,-0.009073964320123196
1772794421836688600,4.805688720703125,-0.03956954553723335,0.021628323942422867,0.004786457866430283
1772794421846732500,4.815732666015625,-0.04436821863055229,0.02830812707543373,0.012274546548724174
1772794421856777700,4.82577783203125,-0.05387011170387268,0.0242723748087883,0.00977889820933342
1772794421866822400,4.835822509765625,-0.059991300106048584,0.014809943735599518,0.007921493612229824
1772794421876867600,4.84586767578125,-0.06380441039800644,0.004857445601373911,0.004071895033121109
1772794421886912500,4.85591259765625,-0.06533411145210266,-0.01088162325322628,-0.0003060379531234503
1772794421896956700,4.865956787109375,-0.06013908237218857,-0.023961473256349564,0.008157754316926003
1772794421907001600,4.876001708984375,-0.053060054779052734,-0.030604520812630653,0.01166353840380907
1772794421917046500,4.886046630859375,-0.04098261892795563,-0.020732447504997253,0.0031821695156395435
1772794421927091700,4.896091796875,-0.02252081036567688,-0.007589161396026611,-0.018209176138043404
1772794421937136600,4.90613671875,0.009589187800884247,0.02154954895377159,-0.04430735856294632
1772794421947181800,4.916181884765625,0.05826824530959129,0.05851998180150986,-0.06131628155708313
1772794421957225500,4.9262255859375,0.1136915534734726,0.09446333348751068,-0.07182325422763824
1772794421967270700,4.936270751953125,0.1626622974872589,0.1255934089422226,-0.07762213051319122
1772794421977315600,4.946315673828125,0.1969001591205597,0.14199981093406677,-0.08171354234218597
1772794421987360500,4.956360595703125,0.22023743391036987,0.15420831739902496,-0.08638742566108704
1772794421997405400,4.966405517578125,0.2279459536075592,0.1527094841003418,-0.08833393454551697
1772794422007450600,4.97645068359375,0.22337505221366882,0.14038720726966858,-0.09724734723567963
1772794422017494800,4.986494873046875,0.2122182697057724,0.13230131566524506,-0.09795761108398438
1772794422027539500,4.99653955078125,0.19052128493785858,0.12044357508420944,-0.09991686046123505
1772794422037584600,5.006584716796875,0.15907680988311768,0.1083107516169548,-0.09895706176757812
1772794422047629600,5.016629638671875,0.1305573284626007,0.08583834767341614,-0.08553758263587952
1772794422057674800,5.0266748046875,0.1028018668293953,0.06504598259925842,-0.06699346005916595
1772794422067718400,5.036718505859375,0.08020960539579391,0.0368058905005455,-0.044266801327466965
1772794422077763600,5.046763671875,0.055775370448827744,0.0009160665795207024,-0.015608524903655052
1772794422087808500,5.05680859375,0.029388457536697388,-0.021027205511927605,0.013900289312005043
1772794422097853700,5.066853759765625,0.011082421988248825,-0.0427122600376606,0.03679974377155304
1772794422107898400,5.0768984375,0.005357292480766773,-0.05725225806236267,0.04652697965502739
1772794422117943600,5.086943603515625,0.0007939659990370274,-0.07003117352724075,0.05054888501763344
1772794422127987700,5.09698779296875,-0.0007795857382006943,-0.07859670370817184,0.031446754932403564
1772794422138032600,5.10703271484375,-0.00793070625513792,-0.08627939224243164,0.017077935859560966
1772794422148077600,5.11707763671875,-0.016198601573705673,-0.09097332507371902,0.0085137402638793
1772794422158122500,5.12712255859375,-0.019647926092147827,-0.09098957479000092,0.006412505637854338
1772794422168167700,5.137167724609375,-0.01519398856908083,-0.08922553807497025,0.006714701186865568
1772794422178212600,5.147212646484375,-0.014440581202507019,-0.08225870877504349,0.006475016940385103
1772794422188256500,5.157256591796875,-0.007462156470865011,-0.07047656923532486,-0.0015002392465248704
1772794422198301400,5.167301513671875,0.004359615501016378,-0.057520829141139984,-0.01746748760342598
1772794422208346600,5.1773466796875,0.011313197202980518,-0.0397312194108963,-0.0355680026113987
1772794422218391600,5.1873916015625,0.01110919937491417,-0.02432403154671192,-0.033673692494630814
1772794422228436500,5.1974365234375,0.01283156406134367,-0.006055924575775862,-0.016336480155587196
1772794422238481400,5.2074814453125,0.014213744550943375,0.020139195024967194,0.008696967735886574
1772794422248525600,5.217525634765625,0.0075688911601901054,0.03878132253885269,0.01956000179052353
1772794422258570800,5.22757080078125,-0.006564770825207233,0.045243483036756516,0.009161955676972866
1772794422268615400,5.237615478515625,-0.0252824779599905,0.05057113245129585,-0.009378477931022644
1772794422278660600,5.24766064453125,-0.035336174070835114,0.04900066554546356,-0.029786812141537666
1772794422288705500,5.25770556640625,-0.034762751311063766,0.059519242495298386,-0.03997625783085823
1772794422298750700,5.267750732421875,-0.0246890801936388,0.05970859155058861,-0.04455529525876045
1772794422308794600,5.277794677734375,-0.01179964654147625,0.06063536927103996,-0.046308986842632294
1772794422318839600,5.287839599609375,0.00944385677576065,0.059384752064943314,-0.04666505381464958
1772794422328884500,5.297884521484375,0.0328713096678257,0.06028064712882042,-0.039996955543756485
1772794422338929700,5.3079296875,0.0552959218621254,0.05762014910578728,-0.03516651317477226
1772794422348974600,5.317974609375,0.0691593661904335,0.05511363223195076,-0.02688286453485489
1772794422359018500,5.3280185546875,0.07720876485109329,0.050324469804763794,-0.00998271070420742
1772794422369063700,5.338063720703125,0.07348726689815521,0.04879288747906685,0.0036518743727356195
1772794422379108600,5.348108642578125,0.06893885135650635,0.03969206660985947,0.01432795450091362
1772794422389153500,5.358153564453125,0.0552118681371212,0.040067676454782486,0.01215043943375349
1772794422399198500,5.368198486328125,0.03232252970337868,0.033620961010456085,-0.0015579155879095197
1772794422409243600,5.37824365234375,0.007763802073895931,0.020365776494145393,-0.02147177793085575
1772794422419287800,5.388287841796875,-0.012885017320513725,0.013206401839852333,-0.03224106878042221
1772794422429332500,5.39833251953125,-0.029087955132126808,0.013379240408539772,-0.03710160031914711
1772794422439377700,5.408377685546875,-0.04507065191864967,0.010156283155083656,-0.03950750082731247
1772794422449422600,5.418422607421875,-0.07162671536207199,0.007269511930644512,-0.0478985533118248
1772794422459467800,5.4284677734375,-0.09334506094455719,0.006767239421606064,-0.04452779144048691
1772794422469512700,5.4385126953125,-0.11101865768432617,0.004310210235416889,-0.03963259607553482
1772794422479556600,5.448556640625,-0.12571316957473755,-0.004543201997876167,-0.03554517775774002
1772794422489601500,5.4586015625,-0.1392074078321457,-0.022059611976146698,-0.025782829150557518
1772794422499646700,5.468646728515625,-0.16009964048862457,-0.055129412561655045,-0.01501566730439663
1772794422509691400,5.47869140625,-0.17660947144031525,-0.06368433684110641,0.002851861761882901
1772794422519736600,5.488736572265625,-0.1901196837425232,-0.0841778889298439,0.018936555832624435
1772794422529781500,5.498781494140625,-0.2057350128889084,-0.11189384013414383,0.02618708461523056
1772794422539825700,5.50882568359375,-0.21589577198028564,-0.15120981633663177,0.019407477229833603
1772794422549870600,5.51887060546875,-0.20340344309806824,-0.16778315603733063,0.010346033610403538
1772794422559915500,5.52891552734375,-0.1596602201461792,-0.15599758923053741,-0.0007649404578842223
1772794422569960700,5.538960693359375,-0.08188261091709137,-0.12174545228481293,-0.017873506993055344
1772794422580005600,5.549005615234375,0.015582697466015816,-0.08428570628166199,-0.03335845470428467
1772794422590049500,5.559049560546875,0.08428625017404556,-0.05165708810091019,-0.033689677715301514
1772794422600094500,5.569094482421875,0.11590995639562607,-0.037252847105264664,-0.034834038466215134
1772794422610139600,5.5791396484375,0.1250632256269455,-0.008830774575471878,-0.05526934564113617
1772794422620184600,5.5891845703125,0.13070033490657806,0.025717347860336304,-0.08496199548244476
1772794422630229500,5.5992294921875,0.1392512321472168,0.057559411972761154,-0.11217144131660461
1772794422640274400,5.6092744140625,0.13577021658420563,0.0909796953201294,-0.11701253056526184
1772794422650318600,5.619318603515625,0.11845658719539642,0.12342936545610428,-0.11085876077413559
1772794422660363800,5.62936376953125,0.09334750473499298,0.1483275145292282,-0.09494823962450027
1772794422670408400,5.639408447265625,0.05573951452970505,0.16113784909248352,-0.08219177275896072
1772794422680453600,5.64945361328125,0.014503929764032364,0.16197992861270905,-0.08024633675813675
1772794422690498600,5.65949853515625,-0.026687759906053543,0.15940503776073456,-0.08774986863136292
1772794422700543700,5.669543701171875,-0.07129596918821335,0.15072420239448547,-0.09229455143213272
1772794422710587400,5.67958740234375,-0.10341555625200272,0.13629679381847382,-0.09780117124319077
1772794422720632600,5.689632568359375,-0.12593817710876465,0.11854548752307892,-0.10401592403650284
1772794422730677500,5.699677490234375,-0.14681313931941986,0.09629914909601212,-0.09148609638214111
1772794422740722700,5.70972265625,-0.15744687616825104,0.06545255333185196,-0.07094566524028778
1772794422750767400,5.719767333984375,-0.1555890440940857,0.03698320314288139,-0.044405248016119
1772794422760812500,5.7298125,-0.14486369490623474,0.014801999554038048,-0.01616295799612999
1772794422770856700,5.739856689453125,-0.12686999142169952,0.0007637818343937397,0.008552889339625835
1772794422780901600,5.749901611328125,-0.10388743877410889,-0.005168942268937826,0.02291957661509514
1772794422790946600,5.759946533203125,-0.08718894422054291,-0.00880548544228077,0.02195022441446781
1772794422800991500,5.769991455078125,-0.07829637825489044,-0.01680775173008442,0.009828315116465092
1772794422811036700,5.78003662109375,-0.07402089983224869,-0.027357440441846848,-0.007643277756869793
1772794422821081600,5.79008154296875,-0.07114654779434204,-0.04001464694738388,-0.020555347204208374
1772794422831125500,5.80012548828125,-0.06345333904027939,-0.03714049980044365,-0.02398119866847992
1772794422841170400,5.81017041015625,-0.048036567866802216,-0.03450583666563034,-0.018341422080993652
1772794422851215600,5.820215576171875,-0.04286195710301399,-0.03196406736969948,-0.002963113598525524
1772794422861260500,5.830260498046875,-0.03922594338655472,-0.023047272115945816,0.01569019816815853
1772794422871305700,5.8403056640625,-0.04036223888397217,-0.01472548395395279,0.03398265317082405
1772794422881350400,5.850350341796875,-0.04265282303094864,-0.00913204811513424,0.03694542124867439
1772794422891394600,5.86039453125,-0.04150478169322014,-0.00606717262417078,0.037191689014434814
1772794422901439700,5.870439697265625,-0.044558361172676086,-0.003914006985723972,0.0325055867433548
1772794422911484400,5.880484375,-0.043507784605026245,-0.007121141999959946,0.02450830489397049
1772794422921529600,5.890529541015625,-0.039107710123062134,-0.01301178801804781,0.015147562138736248
1772794422931574500,5.900574462890625,-0.03991229459643364,-0.02624412626028061,0.012373803183436394
1772794422941619700,5.91061962890625,-0.030971266329288483,-0.04309660941362381,0.01740185171365738
1772794422951663600,5.92066357421875,-0.024944476783275604,-0.06020928919315338,0.02170681208372116
1772794422961708500,5.93070849609375,-0.00903608463704586,-0.07266835123300552,0.03609214350581169
1772794422971753500,5.94075341796875,0.00605113385245204,-0.07556277513504028,0.04569675773382187
1772794422981798700,5.950798583984375,0.0078018964268267155,-0.08378076553344727,0.06110740825533867
1772794422991843600,5.960843505859375,0.003934852778911591,-0.09732911735773087,0.06949392706155777
1772794423001887500,5.970887451171875,-0.007233379874378443,-0.12186428904533386,0.06831175088882446
1772794423011932700,5.9809326171875,-0.016245683655142784,-0.13495996594429016,0.07099252194166183
1772794423021977600,5.9909775390625,-0.020512066781520844,-0.13715973496437073,0.07318643480539322
1772794423032022500,6.0010224609375,-0.020278286188840866,-0.13289856910705566,0.07527481764554977
1772794423042067500,6.0110673828125,-0.01572507992386818,-0.12000247836112976,0.0723397433757782
1772794423052112600,6.021112548828125,-0.017466265708208084,-0.10787215083837509,0.06439352035522461
1772794423062156800,6.03115673828125,-0.020186685025691986,-0.0930418074131012,0.0540844202041626
1772794423072201500,6.041201416015625,-0.026262419298291206,-0.07940562069416046,0.0445292629301548
1772794423082246700,6.05124658203125,-0.028239550068974495,-0.06223835051059723,0.03995448723435402
1772794423092291600,6.06129150390625,-0.03528212383389473,-0.047475382685661316,0.03201941028237343
1772794423102336800,6.071336669921875,-0.03394575044512749,-0.0320330411195755,0.02439478039741516
1772794423112381700,6.081381591796875,-0.03047284297645092,-0.017918776720762253,0.010346717201173306
1772794423122425600,6.091425537109375,-0.030146872624754906,-0.017305981367826462,-0.0005999399581924081
1772794423132470500,6.101470458984375,-0.028535349294543266,-0.022629093378782272,-0.008413232862949371
1772794423142515700,6.111515625,-0.028664778918027878,-0.022818977013230324,-0.01132753025740385
1772794423152560400,6.121560302734375,-0.021441776305437088,-0.02947070077061653,-0.009767488576471806
1772794423162605600,6.13160546875,-0.009537712670862675,-0.025752661749720573,0.004641278646886349
1772794423172650500,6.141650390625,0.0013704615412279963,-0.022416314110159874,0.021468155086040497
1772794423182694700,6.151694580078125,0.008118112571537495,-0.031083039939403534,0.03532431647181511
1772794423192739600,6.161739501953125,0.005527878180146217,-0.04709678515791893,0.04141569137573242
1772794423202784500,6.171784423828125,0.004667144734412432,-0.05246971175074577,0.04260505735874176
1772794423212829700,6.18182958984375,0.013067597523331642,-0.06095464900135994,0.04437107592821121
1772794423222874600,6.19187451171875,0.019293002784252167,-0.06629349291324615,0.04603288695216179
1772794423232919800,6.201919921875,0.019556090235710144,-0.06250013411045074,0.05169111490249634
1772794423242963500,6.21196337890625,0.024499714374542236,-0.05683479458093643,0.05326744168996811
1772794423253008600,6.222008544921875,0.02386559545993805,-0.05504855513572693,0.04864974692463875
1772794423263053600,6.232053466796875,0.0213925838470459,-0.04555678367614746,0.043883487582206726
1772794423273098500,6.242098388671875,0.02372537925839424,-0.03864434361457825,0.03305184096097946
1772794423283143400,6.252143310546875,0.027313189581036568,-0.021600645035505295,0.017249440774321556
1772794423293188600,6.262188720703125,0.054001472890377045,-0.01242312416434288,-0.009440986439585686
1772794423303232800,6.272232666015625,0.04776887595653534,-0.023222241550683975,-0.04002366214990616
1772794423313277400,6.28227734375,0.027415988966822624,0.018489781767129898,-0.04087404906749725
1772794423323322600,6.292322509765625,0.024217266589403152,0.003794192336499691,-0.04071718826889992
1772794423333367600,6.302367431640625,0.025863632559776306,0.004137740470468998,-0.031078943982720375
1772794423343412700,6.312412841796875,0.017425673082470894,0.006322864443063736,-0.02165934257209301
1772794423353457700,6.322457763671875,0.01064278930425644,0.0051913452334702015,-0.016973774880170822
1772794423363501600,6.33250146484375,0.008021705783903599,0.008321890607476234,-0.013065585866570473
1772794423373546500,6.34254638671875,0.004557766020298004,0.02767646685242653,-0.010884534567594528
1772794423383591700,6.352591796875,0.004600909072905779,0.03555409610271454,-0.010682400315999985
1772794423393636600,6.36263671875,-0.0033194650895893574,0.03944544121623039,-0.019087910652160645
1772794423403681500,6.372681640625,-0.011193100363016129,0.03177713602781296,-0.02249142900109291
1772794423413726500,6.3827265625,-0.018317710608243942,0.014170882292091846,-0.023104829713702202
1772794423423770600,6.3927705078125,-0.014340014196932316,0.00015626335516571999,-0.020856056362390518
1772794423433815600,6.402815673828125,-0.009423540905117989,-0.010078691877424717,-0.014259254559874535
1772794423443860500,6.412860595703125,-0.011080293916165829,-0.011897364631295204,0.005539217963814735
1772794423453905700,6.42290576171875,-0.011234212666749954,-0.01179339550435543,0.024150339886546135
1772794423463950600,6.43295068359375,-0.013501361943781376,-0.011709505692124367,0.04131228104233742
1772794423473995800,6.442995849609375,-0.014755678363144398,-0.006112821865826845,0.043691739439964294
1772794423484039400,6.453039306640625,-0.018554676324129105,-0.006479273084551096,0.03197942301630974
1772794423494084600,6.463084716796875,-0.022585460916161537,-0.011171543970704079,0.019311679527163506
1772794423504129500,6.473129638671875,-0.03299389034509659,-0.012825366109609604,0.0066153258085250854
1772794423514174700,6.4831748046875,-0.03893402963876724,-0.01412962656468153,0.0016957437619566917
1772794423524219400,6.493219482421875,-0.040506891906261444,-0.018149668350815773,0.004099512938410044
1772794423534264600,6.5032646484375,-0.04410325735807419,-0.011636692099273205,0.012906663119792938
1772794423544308700,6.513308837890625,-0.043780747801065445,0.0021728635765612125,0.022683126851916313
1772794423554353400,6.523353515625,-0.04401462897658348,0.011869702488183975,0.022150268778204918
1772794423564398600,6.533398681640625,-0.06339871883392334,0.0070768119767308235,0.01728573814034462
1772794423574443500,6.543443603515625,-0.07972871512174606,0.002532484009861946,0.01396184228360653
1772794423584488700,6.55348876953125,-0.08509711921215057,0.01356755755841732,0.024426467716693878
1772794423594533600,6.56353369140625,-0.07880237698554993,0.02429547719657421,0.023407507687807083
1772794423604577500,6.57357763671875,-0.08033183217048645,0.021227248013019562,0.011680010706186295
1772794423614622700,6.583622802734375,-0.09042298793792725,0.015301335602998734,-0.007687791250646114
1772794423624667600,6.593667724609375,-0.09674586355686188,0.0033751679584383965,-0.04312674328684807
1772794423634712600,6.603712646484375,-0.09628860652446747,-0.0016681668348610401,-0.07107464224100113
1772794423644757500,6.613757568359375,-0.09724601358175278,-0.00904991663992405,-0.08126842230558395
1772794423654802700,6.623802734375,-0.10459896922111511,-0.03106888197362423,-0.060753367841243744
1772794423664846300,6.633846435546875,-0.10552388429641724,-0.042821142822504044,-0.0394134595990181
1772794423674891500,6.6438916015625,-0.07180583477020264,-0.047330234199762344,-0.013695042580366135
1772794423684936400,6.6539365234375,-0.04588688537478447,-0.0350450724363327,0.008515720255672932
1772794423694981600,6.663981689453125,-0.0326601006090641,-0.03005320206284523,0.0199681855738163
1772794423705026300,6.6740263671875,-0.024130791425704956,-0.02140165865421295,0.030426684767007828
1772794423715071500,6.684071533203125,-0.017404258251190186,-0.002635367913171649,0.03406563028693199
1772794423725116400,6.694116455078125,-0.013129884377121925,0.007372791413217783,0.022818835452198982
1772794423735160600,6.70416064453125,-0.004174772184342146,0.006269393023103476,0.0031863537151366472
1772794423745205500,6.71420556640625,0.012035355903208256,0.00010364223271608353,-0.01731172949075699
1772794423755250400,6.72425048828125,0.020904848352074623,-0.007420700509101152,-0.020374860614538193
1772794423765295600,6.734295654296875,0.020361030474305153,-0.01845790445804596,-0.003631834639236331
1772794423775340500,6.744340576171875,0.01838153600692749,-0.018494339659810066,0.021067574620246887
1772794423785385700,6.7543857421875,0.01831282675266266,-0.01648072339594364,0.049223314970731735
1772794423795429400,6.764429443359375,0.011883056722581387,-0.008405905216932297,0.06561210006475449
1772794423805474600,6.774474609375,0.0033691972494125366,-0.005348329897969961,0.06636843830347061
1772794423815519500,6.78451953125,-0.007510791998356581,-0.0031961824279278517,0.0563814714550972
1772794423825564700,6.794564697265625,-0.016024917364120483,-0.00224490137770772,0.04675840586423874
1772794423835609300,6.804609375,-0.021807439625263214,0.003446008078753948,0.03389134258031845
1772794423845654500,6.814654541015625,-0.026927899569272995,0.015834234654903412,0.02968488074839115
1772794423855698700,6.82469873046875,-0.03767542168498039,0.0300090741366148,0.019626541063189507
1772794423865743400,6.834743408203125,-0.04325900599360466,0.04041483998298645,0.013658663257956505
1772794423875788500,6.84478857421875,-0.04321260750293732,0.0660267248749733,0.007542674895375967
1772794423885833500,6.85483349609375,-0.03537359461188316,0.0964629277586937,0.003592141903936863
1772794423895878700,6.864878662109375,-0.02529647946357727,0.12185169011354446,-0.004447446670383215
1772794423905923600,6.874923583984375,-0.019175736233592033,0.14966733753681183,-0.01615843176841736
1772794423915967500,6.884967529296875,-0.0033445321023464203,0.1888580471277237,-0.02868266962468624
1772794423926012400,6.895012451171875,0.01591837964951992,0.2080242931842804,-0.04521690309047699
1772794423936057600,6.9050576171875,0.027280254289507866,0.2330774962902069,-0.06793641299009323
1772794423946102500,6.9151025390625,0.0431942418217659,0.25939831137657166,-0.08231854438781738
1772794423956147500,6.9251474609375,0.05841043218970299,0.2626408338546753,-0.09634069353342056
1772794423966192400,6.9351923828125,0.07081783562898636,0.2502283751964569,-0.1118144541978836
1772794423976236500,6.945236572265625,0.07012303918600082,0.2215503305196762,-0.12091124802827835
1772794423986281500,6.955281494140625,0.05491878464818001,0.16425587236881256,-0.11302483081817627
1772794423996326400,6.965326416015625,0.03759269043803215,0.08403624594211578,-0.06697481870651245
1772794424006371600,6.97537158203125,0.02544787898659706,0.0231768935918808,0.01884421706199646
1772794424016416500,6.98541650390625,0.0265487190335989,-0.01848585717380047,0.12214405834674835
1772794424026461700,6.995461669921875,0.037177395075559616,-0.0368073396384716,0.212747722864151
1772794424036505300,7.00550537109375,0.03840529918670654,-0.01451142132282257,0.2856636643409729
1772794424046550500,7.015550537109375,0.03068746067583561,0.009102028794586658,0.3352075219154358
1772794424056595500,7.025595458984375,0.001423824462108314,0.021633055061101913,0.35476332902908325
1772794424066640600,7.035640625,-0.03531954437494278,0.043117307126522064,0.32636791467666626
1772794424076685300,7.045685302734375,-0.052629269659519196,0.06553547084331512,0.26980188488960266
1772794424086730500,7.05573046875,-0.05584423616528511,0.08657364547252655,0.2015804648399353
1772794424096774700,7.065774658203125,-0.04743323102593422,0.09486141800880432,0.12623943388462067
1772794424106819300,7.0758193359375,-0.038144923746585846,0.07263520359992981,0.04896913468837738
1772794424116864500,7.085864501953125,-0.030997009947896004,0.03982042521238327,-0.012552967295050621
1772794424126909400,7.095909423828125,-0.0223060492426157,-0.011802555993199348,-0.03802104294300079
1772794424136954600,7.10595458984375,-0.02119503542780876,-0.06103294715285301,-0.03332345187664032
1772794424146999600,7.11599951171875,-0.018275944516062737,-0.09217382967472076,0.005743254907429218
1772794424157044500,7.12604443359375,-0.01856433041393757,-0.11804851144552231,0.05100493133068085
1772794424167088400,7.13608837890625,-0.010170579887926579,-0.12972994148731232,0.09551487118005753
1772794424177133600,7.146133544921875,-0.013497356325387955,-0.1362217664718628,0.1228480413556099
1772794424187178500,7.156178466796875,-0.016557594761252403,-0.1410101354122162,0.13608554005622864
1772794424197223400,7.166223388671875,-0.021330000832676888,-0.14340080320835114,0.12680545449256897
1772794424207268400,7.176268310546875,-0.037930816411972046,-0.1463760882616043,0.1119583398103714
1772794424217313500,7.1863134765625,-0.06355517357587814,-0.15506687760353088,0.08901181071996689
1772794424227357400,7.196357421875,-0.08620935678482056,-0.1619463562965393,0.07175373286008835
1772794424237402400,7.20640234375,-0.10179098695516586,-0.15623772144317627,0.06688905507326126
1772794424247447600,7.216447509765625,-0.10463523864746094,-0.1328279972076416,0.06911598891019821
1772794424257492500,7.226492431640625,-0.11635072529315948,-0.12304003536701202,0.07083764672279358
1772794424267537700,7.23653759765625,-0.13433532416820526,-0.1082211285829544,0.06317146867513657
1772794424277582300,7.246582275390625,-0.14481385052204132,-0.09234613925218582,0.06026957184076309
1772794424287626500,7.25662646484375,-0.1506243348121643,-0.08634044229984283,0.06442037969827652
1772794424297671700,7.266671630859375,-0.15091286599636078,-0.06306932121515274,0.06511439383029938
1772794424307716600,7.276716552734375,-0.1489384025335312,-0.04266684502363205,0.05948846787214279
1772794424317761500,7.286761474609375,-0.16158750653266907,-0.036993131041526794,0.05592169612646103
1772794424327806500,7.296806396484375,-0.17484818398952484,-0.03526553511619568,0.05009336769580841
1772794424337851600,7.3068515625,-0.18107065558433533,-0.048844464123249054,0.051096849143505096
1772794424347895600,7.3168955078125,-0.16150201857089996,-0.03366338089108467,0.06178917735815048
1772794424357940500,7.3269404296875,-0.1262451857328415,-0.016159065067768097,0.07183176279067993
1772794424367985400,7.3369853515625,-0.088278628885746,0.020841030403971672,0.08477898687124252
1772794424378030600,7.347030517578125,-0.047603119164705276,0.07138239592313766,0.09248708933591843
1772794424388075500,7.357075439453125,-0.017138419672846794,0.11340069025754929,0.07484658062458038
1772794424398120400,7.367120361328125,-0.0003217998309992254,0.1403077095746994,0.027856316417455673
1772794424408165400,7.377165283203125,0.013315449468791485,0.16203245520591736,-0.034770313650369644
1772794424418209500,7.38720947265625,0.014693589881062508,0.16757673025131226,-0.09633468836545944
1772794424428254700,7.397254638671875,0.014727412723004818,0.1719115525484085,-0.15075957775115967
1772794424438299400,7.40729931640625,0.016561277210712433,0.18355579674243927,-0.18187500536441803
1772794424448344600,7.417344482421875,0.023799214512109756,0.18179838359355927,-0.18400312960147858
1772794424458389500,7.427389404296875,0.023549465462565422,0.17594847083091736,-0.1662159115076065
1772794424468434700,7.4374345703125,0.02299233339726925,0.15502268075942993,-0.13760609924793243
1772794424478478300,7.447478271484375,0.025184325873851776,0.12830320000648499,-0.11301364004611969
1772794424488523500,7.4575234375,0.029817961156368256,0.11293543130159378,-0.08890164643526077
1772794424498568400,7.467568359375,0.034803640097379684,0.0874658077955246,-0.060434892773628235
1772794424508613600,7.477613525390625,0.031005972996354103,0.04959059879183769,-0.03503765910863876
1772794424518658300,7.487658203125,0.02263835445046425,0.006812559440732002,-0.016894415020942688
1772794424528703500,7.497703369140625,0.019499018788337708,-0.030544400215148926,-0.0016105342656373978
1772794424538747600,7.50774755859375,0.02582235261797905,-0.06052674353122711,0.018456118181347847
1772794424548792600,7.51779248046875,0.02877686358988285,-0.08390476554632187,0.03584469482302666
1772794424558837500,7.52783740234375,0.038936566561460495,-0.09215912967920303,0.0457020066678524
1772794424568882400,7.53788232421875,0.03338653966784477,-0.09187097102403641,0.03788243234157562
1772794424578927600,7.547927734375,0.030974293127655983,-0.0947803184390068,0.01752610318362713
1772794424588972500,7.55797265625,0.02465195022523403,-0.09276963025331497,-0.013547658920288086
1772794424599016400,7.568016357421875,0.022338559851050377,-0.08738936483860016,-0.03737518936395645
1772794424609061400,7.578061279296875,0.014129100367426872,-0.08028431981801987,-0.05125025659799576
1772794424619106600,7.5881064453125,0.012041570618748665,-0.062375400215387344,-0.04609076678752899
1772794424629151500,7.5981513671875,0.012897243723273277,-0.04000857472419739,-0.045455336570739746
1772794424639196400,7.608196533203125,0.0070253401063382626,-0.034311387687921524,-0.03624555468559265
1772794424649241300,7.618241455078125,0.0006196388276293874,-0.02875577099621296,-0.013902963139116764
1772794424659286500,7.62828662109375,-0.006386971566826105,-0.019043907523155212,0.006152466870844364
1772794424669330700,7.63833056640625,-0.005147004034370184,-0.004462300334125757,0.014929447323083878
1772794424679375600,7.648375732421875,-0.005484881345182657,-0.002258594147861004,0.006335425190627575
1772794424689420800,7.6584208984375,-0.011279387399554253,-0.0014950656332075596,-0.0028748512268066406
1772794424699465500,7.668465576171875,-0.019744666293263435,-0.008862709626555443,-0.014899101108312607
1772794424709510700,7.6785107421875,-0.022860297933220863,-0.012367429211735725,-0.03238222002983093
1772794424719555600,7.6885556640625,-0.0290982648730278,-0.016727447509765625,-0.046052299439907074
1772794424729599500,7.698599609375,-0.03848430886864662,-0.0340702161192894,-0.036375969648361206
1772794424739644400,7.70864453125,-0.050053149461746216,-0.05020800977945328,-0.004002965986728668
1772794424749689600,7.718689697265625,-0.050410546362400055,-0.04588649794459343,0.029457254335284233
1772794424759734500,7.728734619140625,-0.05498684197664261,-0.048356905579566956,0.05061180889606476
1772794424769779700,7.73877978515625,-0.05566275492310524,-0.037167903035879135,0.055470481514930725
1772794424779824400,7.748824462890625,-0.063275545835495,-0.030233072116971016,0.06118177995085716
1772794424789868500,7.75886865234375,-0.06493176519870758,-0.01658863201737404,0.06476772576570511
1772794424799913700,7.768913818359375,-0.0670633390545845,-0.006173862610012293,0.0589093416929245
1772794424809958700,7.778958740234375,-0.06386567652225494,0.003353329375386238,0.03744399920105934
1772794424820003600,7.789003662109375,-0.06277341395616531,0.011407678946852684,0.010129059664905071
1772794424830048500,7.799048583984375,-0.06436970829963684,0.004744450096040964,-0.028286240994930267
1772794424840093700,7.80909375,-0.06047394499182701,0.008004970848560333,-0.04794345051050186
1772794424850137600,7.8191376953125,-0.05239870771765709,0.009331224486231804,-0.046763136982917786
1772794424860182500,7.8291826171875,-0.03839618340134621,0.02904515713453293,-0.0295143760740757
1772794424870227500,7.8392275390625,-0.023386074230074883,0.028651542961597443,-0.008510557003319263
1772794424880272600,7.849272705078125,-0.014894438907504082,0.04288284480571747,0.009136805310845375
1772794424890317600,7.859317626953125,-0.03148726373910904,0.04818759486079216,0.05146268755197525
1772794424900362500,7.869362548828125,-0.05618957057595253,0.02211976796388626,0.09783410280942917
1772794424910407400,7.879407470703125,-0.05795471370220184,0.015931645408272743,0.14701257646083832
1772794424920451600,7.88945166015625,-0.060021016746759415,0.006860010791569948,0.20470550656318665
1772794424930496800,7.899496826171875,-0.06305861473083496,-0.039697371423244476,0.2022162526845932
1772794424940541400,7.90954150390625,-0.051426008343696594,-0.073736771941185,0.17487438023090363
1772794424950586600,7.919586669921875,-0.047517552971839905,-0.09528547525405884,0.14685791730880737
1772794424960631600,7.929631591796875,-0.05212697386741638,-0.11165773123502731,0.085581474006176
1772794424970676700,7.9396767578125,-0.05459093302488327,-0.14196716248989105,0.010978608392179012
1772794424980720600,7.949720703125,-0.059601791203022,-0.17307151854038239,-0.06669370085000992
1772794424990765600,7.959765625,-0.061046820133924484,-0.16675929725170135,-0.1402515470981598
1772794425000810500,7.969810546875,-0.06839988380670547,-0.14148664474487305,-0.17805245518684387
1772794425010855700,7.979855712890625,-0.07467509061098099,-0.10263457894325256,-0.16381998360157013
1772794425020900600,7.989900634765625,-0.09963200241327286,-0.09558960050344467,-0.15964122116565704
