time,seconds_elapsed,z,y,x
1772650203585034200,0.0730341796875,-0.43140170450806614,-0.21838234642297027,0.2821135717730969
1772650203595079200,0.0830791015625,-0.6538935320764779,-0.29555267986506223,0.355323696347326
1772650203605123300,0.093123291015625,-0.5767781436920165,-0.21759981774315237,0.14354363426622002
1772650203615167200,0.103167236328125,-0.48731063873469826,-0.17838044477179646,0.19218652301263062
1772650203625211100,0.113211181640625,-0.5414139848440885,-0.225381265399605,0.3980979853212833
1772650203635256300,0.12325634765625,-0.23150866223871708,-0.2865571802437305,0.042699725900404155
1772650203645300200,0.13330029296875,0.0600268909394741,0.16866729840040207,-0.5704987346289679
1772650203655344000,0.14334423828125,0.07312310387790202,0.1903764413833618,-0.3568659573532641
1772650203665388000,0.153387939453125,0.6432716002970934,0.22244491968676447,-0.15291337402742355
1772650203675433200,0.16343310546875,0.9764058227986097,0.09438625665903091,-0.3172849114626646
1772650203685477400,0.173477294921875,0.7144575986325741,0.21842793913036584,-0.450392382312566
1772650203695521000,0.18352099609375,0.7019459075838327,0.6244605168431997,-0.539564849846065
1772650203705565200,0.193565185546875,0.705330289325118,1.0102341503813863,-0.6230418091516942
1772650203715610400,0.2036103515625,1.0415168851345777,0.7138973344013094,-0.8968849807076156
1772650203725654000,0.213654052734375,1.7544056270152328,-0.11122808586657047,-1.1240012532062829
1772650203735698200,0.2236982421875,1.8188848211884499,-0.7144646128952503,-0.7915784669097512
1772650203745742000,0.2337421875,2.2195915277034044,-0.45577100661098957,0.04218509090915322
1772650203755787000,0.243787109375,2.4475790300786495,-0.6124123516529798,0.25771336307525633
1772650203765831200,0.2538310546875,1.9978432119786738,-1.065656762395799,0.5238939641140401
1772650203775875000,0.263875,1.0203110154986381,-1.1049626446068286,0.881164995136857
1772650203785919200,0.273919189453125,0.1115098254173994,-0.5598360689803957,0.658282560815662
1772650203795964200,0.283964111328125,-0.38371290161609645,0.24597090283334253,0.12629574500843882
1772650203806008000,0.294008056640625,-0.7535743880122899,0.6656415452763438,-0.15576105507612228
1772650203816052200,0.30405224609375,-0.6875228299558163,1.0471537219777702,-0.1703781209062785
1772650203826096400,0.314096435546875,-0.3425730819761753,1.1096876273021101,-0.206608175868541
1772650203836141000,0.32414111328125,0.25895722565650936,0.8893442099392413,-0.06942468775138258
1772650203846185200,0.334185302734375,0.5060872353971004,0.582038548438251,0.05328311576768756
1772650203856229400,0.3442294921875,0.41339433865249153,0.4368278212100267,0.13095635723061858
1772650203866273300,0.354273193359375,0.4585971699476242,0.6379615111902356,0.1345262516066432
1772650203876318200,0.364318115234375,0.297106631308794,0.8282704402953386,-0.027303017467260358
1772650203886362000,0.374362060546875,0.1666740787565708,0.8302394022807479,-0.2274074191986583
1772650203896406300,0.38440625,0.11537994484901427,0.6350806950569152,-0.276898065614514
1772650203906450200,0.3944501953125,0.13979951583445072,0.39858898370862006,-0.07797949440050869
1772650203916495000,0.4044951171875,0.06372223832607268,0.2060728999480605,0.19978795619336887
1772650203926539300,0.414539306640625,-0.0660001201301813,0.025804303342103957,0.47023679086957126
1772650203936583200,0.424583251953125,0.2055874545186758,-0.1846907969623804,0.6565840863347053
1772650203946627000,0.434626953125,0.4901449853777885,-0.4814487609639764,0.8277920091286302
1772650203956672300,0.44467236328125,0.37971944806575775,-0.8304811020821332,0.9870891293764114
1772650203966716400,0.45471630859375,0.30612288145720956,-1.0335875534400343,0.9930231956005096
1772650203976760000,0.464760009765625,0.25575053856968877,-1.1563175687909126,1.0389265763804316
1772650203986804200,0.47480419921875,0.1483662686496973,-1.1812468428641556,1.0297937141150235
1772650203996849400,0.484849365234375,-0.06125964760482311,-1.1549968415811658,1.0040053389944135
1772650204006893000,0.49489306640625,-0.19439795198440551,-1.0611313939258455,1.1371703121852128
1772650204016937200,0.504937255859375,-0.4562696037828922,-1.0751102349177002,1.181029985243082
1772650204026981000,0.514981201171875,-0.868978882780671,-1.2820488117843865,1.3906253602288663
1772650204037026000,0.525026123046875,-0.8621703718096018,-0.8378361410200595,0.7497258228253573
1772650204047070200,0.5350703125,-0.6029156245112419,-0.008612637783586978,0.0039417781620286405
1772650204057114000,0.545114013671875,-0.6676414869219064,0.374299176582694,-0.03787787696821615
1772650204067158300,0.555158203125,-0.6220557937890291,0.4165343902438879,-0.09376093696807511
1772650204077203200,0.565203125,-0.7051590244114398,0.48052726220488545,0.28453334626592697
1772650204087247000,0.5752470703125,-0.7038315751999616,0.25718480915650727,0.23829156384449451
1772650204097291300,0.585291259765625,-0.4645534480035305,0.06085092067345976,0.06298810166551265
1772650204107335200,0.595335205078125,-0.10191314503252506,-0.0208953423820436,-0.04640491426100488
1772650204117380000,0.605380126953125,0.045077743610739705,-0.09933949515223503,-0.05405647932693827
1772650204127424300,0.61542431640625,0.09080430651903151,-0.10334493140131235,0.1479413760348223
1772650204137468200,0.62546826171875,0.11263561457693576,-0.10374328306913375,0.13907279986194335
1772650204147512300,0.63551220703125,0.19490707055032253,-0.11856792723536491,0.0618744276354555
1772650204157557200,0.64555712890625,0.27536358605623246,-0.09997136331498623,0.12345364431715569
1772650204167601200,0.65560107421875,0.17117840443849563,-0.1430311912320554,0.029015063815843314
1772650204177645300,0.665645263671875,-0.02634440156817436,-0.15901947235018013,-0.07788853731458074
1772650204187689200,0.675689208984375,-0.17043138546347616,-0.1355275376036763,-0.1162891138494946
1772650204197734400,0.685734375,-0.21376725384294987,-0.07342340199872852,0.0026696850001346317
1772650204207778600,0.695778564453125,-0.19022271212637423,-0.041806466855108734,-0.10462346343714743
1772650204217822200,0.705822265625,-0.15459434938430786,-0.004606032490730286,-0.2422578005943447
1772650204227866400,0.715866455078125,-0.13968085789084433,-0.04961772512793541,-0.1880831793470308
1772650204237911600,0.72591162109375,-0.15663433077931402,-0.029561902309954164,-0.19804735960373654
1772650204247955200,0.735955078125,-0.2497580201566219,0.024788842689245937,-0.342747671358101
1772650204257999400,0.745999267578125,-0.3670265552312135,0.1488334477700293,-0.38722098280228673
1772650204268043500,0.75604345703125,-0.473166962569952,0.22825053722560404,-0.3639282604223117
1772650204278088400,0.76608837890625,-0.4227168782711029,0.33447365441173316,-0.3711057873688638
1772650204288132400,0.77613232421875,-0.46865912975668905,0.3244740923143923,-0.4130921043029055
1772650204298176300,0.78617626953125,-0.7588046898812055,0.22229747404009104,-0.3950775415215641
1772650204308220400,0.796220458984375,-0.9333540320575237,0.15376608186662197,-0.3442298362072557
1772650204318265300,0.806265380859375,-0.9330261152774095,0.1384007549524307,-0.38073702761046585
1772650204328309200,0.816309326171875,-0.732503542932868,0.0983003613628447,-0.4197514525942504
1772650204338353400,0.826353515625,-0.5185404742568731,0.052886079274117946,-0.36169878433719277
1772650204348397600,0.8363974609375,-0.31130466800928114,-0.02348755083233118,-0.342936179667525
1772650204358441500,0.84644140625,-0.07691080572307109,-0.13579568702057004,-0.3035038397989236
1772650204368486400,0.856486328125,0.1035106433570385,-0.2636654033474624,-0.2692604468755424
1772650204378530600,0.866530517578125,0.171257899415493,-0.32288156242594124,-0.26857188008949157
1772650204388574500,0.876574462890625,0.44125265191495416,-0.26914325023666025,-0.18738931533135472
1772650204398618400,0.886618408203125,0.6261661517173052,-0.3662618544690311,-0.057104829480312765
1772650204408663600,0.89666357421875,0.34908056417405603,-0.45902971614599225,-0.2661088692431338
1772650204418707500,0.90670751953125,0.34952363176643847,-0.45955081741064785,-0.2559891878974624
1772650204428751400,0.91675146484375,0.4440063345372677,-0.3052253480955958,-0.2879802718494087
1772650204438795300,0.926795166015625,0.44545244169235226,-0.2117227424032986,-0.1766677773687057
1772650204448840400,0.93684033203125,0.42887306281328197,-0.1473711201325059,-0.08001143861953168
1772650204458884400,0.94688427734375,0.4576742098838091,-0.048235915380716324,-0.20375713381897656
1772650204468928300,0.95692822265625,0.4453425515770912,0.03585018879920244,-0.10800389965567737
1772650204478972400,0.966972412109375,0.3678121526509523,0.06410758438184858,-0.00047810237314552066
1772650204489017600,0.977017578125,0.2587041276782751,-0.044452012927830215,-0.0928926388341002
1772650204499061200,0.987061279296875,0.20730244174301624,0.014903700751811265,-0.07741656328812241
1772650204509105400,0.99710546875,0.20012568198144434,0.23294950869679448,-0.06373009283896536
1772650204519149300,1.0071494140625,0.11118483124673366,0.35254999385029073,-0.20536383836325256
1772650204529194200,1.0171943359375,-0.06694763011336326,0.37099122107848526,-0.3436295322265476
1772650204539238400,1.02723828125,-0.04084931226074695,0.2604329972974956,-0.3916748204059899
1772650204549282300,1.0372822265625,0.1249994215875864,0.0994176749549806,-0.41373116939142346
1772650204559326500,1.047326416015625,0.3479676344960928,0.018328268373012543,-0.3760318821268156
1772650204569371400,1.057371337890625,0.5499316378206014,0.055544046436995266,-0.31969204566963016
1772650204579415300,1.067415283203125,0.7216758594483137,0.08294964749589562,-0.3206855867516249
1772650204589459500,1.07745947265625,0.7879664869576692,0.07568973949551581,-0.3740363609280437
1772650204599503600,1.087503662109375,0.7972469410002231,0.11379530600607395,-0.41476080470010634
1772650204609548300,1.09754833984375,0.7462064895927906,0.09686404494941234,-0.3364859440822154
1772650204619592400,1.107592529296875,0.6162748723000288,0.09277633724436163,-0.26599538066498934
1772650204629636400,1.11763623046875,0.4681038339614868,0.10787015374079346,-0.2541437792264856
1772650204639680500,1.127680419921875,0.27685645496249195,0.14273074698075652,-0.27969113039914517
1772650204649725400,1.137725341796875,0.11812252155542373,0.1754955369852483,-0.30100225050784646
1772650204659769300,1.147769287109375,0.14595511585474014,0.2418378946818411,-0.2981008482442237
1772650204669813500,1.1578134765625,0.21599778937399386,0.2343340949229896,-0.2513025827175006
1772650204679857400,1.167857421875,0.24931962873935698,0.09027750616595148,-0.13360646988060323
1772650204689902300,1.17790234375,0.04375029439926147,-0.021159546276181936,-0.11268402029592543
1772650204699946500,1.187946533203125,-0.2944756982833147,-0.030568741264939307,-0.22354968432458117
1772650204709990400,1.197990478515625,-0.45304245842993257,0.007267652915418148,-0.3332300110261887
1772650204720034300,1.208034423828125,-0.4461790024012327,0.03606485446318984,-0.29854435422802345
1772650204730079500,1.21807958984375,-0.3285714446306228,0.04887143680527806,-0.15437162827802822
1772650204740123400,1.228123291015625,-0.13076982168257237,0.06730082746520638,-0.0026846177077852187
1772650204750167300,1.238167236328125,0.019933950003981588,0.06832016057558357,0.07776047222181223
1772650204760211500,1.24821142578125,0.040426118412613864,0.015192892956733702,0.12107198247816413
1772650204770256600,1.258256591796875,-0.058979427713155744,0.0011597644943743943,0.11338576622395775
1772650204780300300,1.26830029296875,-0.09258300662934779,0.020595994109287856,0.14903958306768908
1772650204790344400,1.278344482421875,-0.1681780535787344,-0.001545110550150275,0.18711424298333004
1772650204800388400,1.288388427734375,-0.2818365814626217,0.011294935670122503,0.18964891256010158
1772650204810433300,1.298433349609375,-0.5261567944794893,-0.01580963661558926,0.1385604755587876
1772650204820477400,1.3084775390625,-0.7080050614923238,-0.05494301180392504,-0.002664586416620295
1772650204830521300,1.318521240234375,-0.7692699697941541,-0.08669446004740894,-0.0881706335471943
1772650204840565500,1.3285654296875,-0.7460393163323402,-0.0694146047487855,-0.0514425933343824
1772650204850610400,1.3386103515625,-0.7218073768734932,0.0005895633909851312,0.02964232886871323
1772650204860654300,1.348654296875,-0.7710580222547054,0.023540450063347814,0.1349410977515392
1772650204870698500,1.358698486328125,-0.7790665566653012,0.0608531856957823,0.21647359019219875
1772650204880742400,1.368742431640625,-0.745543641769886,0.039339930611103774,0.20325996141918
1772650204890787300,1.378787353515625,-0.6180915663331746,0.031094957096129652,0.1438388269536663
1772650204900831500,1.38883154296875,-0.5084317526966333,-0.04447422475963831,0.09375372177599929
1772650204910875400,1.39887548828125,-0.5043243173778057,-0.09950023867189883,0.09294612258700653
1772650204920919300,1.408919189453125,-0.4912696054935455,-0.1015880777966231,0.06246043822932988
1772650204930964500,1.418964599609375,-0.43406829336881636,-0.08171214159019291,0.046231594387558285
1772650204941008400,1.42900830078125,-0.3278267637431621,0.01425086286626756,0.06620253823394887
1772650204951052500,1.439052490234375,-0.20120237130224702,-0.002420578210428357,0.0832243362514302
1772650204961096200,1.44909619140625,-0.0753682524561882,-0.04412416921295225,0.05844050766401924
1772650204971141400,1.459141357421875,0.029849779340624806,-0.070121437843889,0.0866501916474197
1772650204981185500,1.469185546875,0.12434826420247554,-0.06307246918044984,0.09010196693595499
1772650204991229200,1.479229248046875,0.20996844608187673,-0.05671345554254949,0.018947342127916635
1772650205001273300,1.4892734375,0.27363807743787766,-0.09544409514889121,-0.06625974831390194
1772650205011318500,1.499318603515625,0.3653302727073431,-0.15859269830547273,-0.07096504449460189
1772650205021362400,1.509362548828125,0.542034162569046,-0.2226706182014197,-0.036950103731965646
1772650205031406300,1.51940625,0.7856161244392394,-0.23708273604400454,0.008070986921247095
1772650205041450500,1.529450439453125,0.8407534897714852,-0.19540807887502012,0.042606266330135985
1772650205051495400,1.539495361328125,0.7777344312787056,-0.12097469611614942,0.08112697124653495
1772650205061539300,1.549539306640625,0.6888368351638317,-0.014091069194674491,0.12151452034758403
1772650205071583500,1.55958349609375,0.7441472189754247,0.14924224776662887,0.11979935959330759
1772650205081627400,1.56962744140625,0.8588070328563451,0.3736098060790449,0.1904386564319953
1772650205091672300,1.57967236328125,0.9176315622687339,0.40719146542437373,0.15642185707241296
1772650205101716500,1.589716552734375,1.3498673795133829,0.7315656775608659,-0.3603214315693825
1772650205111760400,1.599760498046875,1.2742255708128214,0.41765426111929116,-0.20643256357330828
1772650205121804500,1.609804443359375,1.1667676511347294,0.07648965770155192,-0.11984336313181557
1772650205131849200,1.61984912109375,1.5191098474532365,0.3222049052733928,-0.3198648449532687
1772650205141893400,1.629893310546875,1.5093079998850822,0.23170754581168293,0.25452969153784216
1772650205151937500,1.6399375,2.0134394250392913,0.4811088614851236,0.06916718759266659
1772650205161981400,1.6499814453125,2.616970551100373,0.8526092741947621,-0.30930048858001824
1772650205172026400,1.6600263671875,3.1551468691974875,1.0181271686535327,-0.9084559568401426
1772650205182070500,1.670070556640625,2.5104180558294056,0.16065058068335056,-0.3376426398366689
1772650205192113200,1.680113037109375,2.716450331506133,0.2760387088388204,-0.7472107712645083
1772650205202157300,1.6901572265625,3.1128596330881115,0.797665897064656,-1.0833127575304358
1772650205212202200,1.7002021484375,3.3847616805136203,0.8526895728893578,-0.9227196061227471
1772650205222246100,1.71024609375,3.601863631737232,0.9722340900719165,-0.8755532927349209
1772650205232290300,1.720290283203125,3.4996009426146744,1.0491643311478196,-0.8675218889053911
1772650205242334500,1.73033447265625,3.0299416959047316,0.9826622528448701,-0.8074712517641485
1772650205252379100,1.740379150390625,2.273277525183558,1.0893170394465326,-0.8718677360899746
1772650205262423300,1.75042333984375,1.4666156901061533,1.2110960376828908,-1.1354171849075705
1772650205272467500,1.760467529296875,0.7841612494558096,1.0746132451809942,-0.9990634256128221
1772650205282511400,1.770511474609375,0.1615197647333145,0.7583904099918901,-0.7949179865960031
1772650205292556300,1.780556396484375,-0.3211000858366489,0.46785380472317334,-0.6094251160031184
1772650205302600400,1.790600341796875,-0.7368909642368555,0.11077917305529117,-0.35902529081162066
1772650205312644400,1.800644287109375,-1.1812602868676185,-0.23067075010985136,-0.14346382876196875
1772650205322688300,1.810688232421875,-1.6379162596195935,-0.6429327237315475,0.09372638624450191
1772650205332733400,1.8207333984375,-2.016729698756337,-1.0914525901705026,0.4145508882764727
1772650205342777300,1.83077734375,-2.6120816100150344,-1.2967583051383496,0.458854615307413
1772650205352821200,1.8408212890625,-3.0424072097241877,-1.6649113801814615,0.5927321937469765
1772650205362865200,1.850865234375,-3.251900439509749,-1.7868638352885842,0.5415467443782835
1772650205372909300,1.860909423828125,-3.1130314825236796,-1.9568116750188171,0.5466891122354194
1772650205382954200,1.870954345703125,-3.017670243352651,-2.162974152946472,0.3966328812047839
1772650205392998100,1.880998046875,-3.1199077980339527,-2.4440001486785707,0.13332533311797304
1772650205403042300,1.891042236328125,-3.1765403703600166,-2.71583103056401,-0.15707515161568297
1772650205413086200,1.901086181640625,-3.463957382303476,-3.0967163075387476,-0.20386667687436563
1772650205423131100,1.911131103515625,-4.155284280717373,-3.663576283806562,0.08640539570664986
1772650205433175300,1.92117529296875,-5.461016165906191,-3.635407589420676,0.11787753381840883
1772650205443219200,1.93121923828125,-7.277465868902206,-3.0871956149995325,0.14882592205069958
1772650205453263400,1.941263427734375,-8.961101092645526,-2.5649662230968473,0.4816199162798002
1772650205463308300,1.951308349609375,-10.614724624484777,-2.0874624003663658,0.5799624728165567
1772650205473352200,1.961352294921875,-11.594615951311587,-1.5259130977272986,0.23328451280482113
1772650205483396400,1.971396240234375,-11.893595390754937,-1.3216948857352138,-0.11383242314606905
1772650205493441300,1.981441162109375,-11.432179656255245,-1.3219931380294263,-0.6853764655768871
1772650205503485200,1.991485107421875,-9.620940381383896,-1.2586112375736236,-0.8993472791679203
1772650205513529300,2.001529296875,-6.91143358540535,-1.1547764768287538,-0.52371714624241
1772650205523573200,2.0115732421875,-4.163045562368631,-0.9056120386511087,-0.07527677478045225
1772650205533617200,2.0216171875,-2.2336440184533597,-0.5454607760168612,0.05475684158205986
1772650205543662300,2.031662353515625,-0.6572732376426458,-0.15033303867802023,-0.029543489870429037
1772650205553706200,2.041706298828125,0.619236060193181,0.19147987258061766,0.15894443435259162
1772650205563750100,2.051750244140625,1.7229226935148239,0.5552605777584017,0.252213158223778
1772650205573794300,2.061794189453125,2.96597512742877,0.9182968943096697,0.2956877044215798
1772650205583839200,2.071839111328125,4.3839691177070135,1.1383623715139926,0.4252089142825454
1772650205593883400,2.08188330078125,5.415653760135173,1.1875231466546654,0.5476213881168515
1772650205603927300,2.09192724609375,5.96449351106584,1.170921263682842,0.7539922480981797
1772650205613971200,2.10197119140625,6.3246484269618986,1.0785144904032349,1.0195805823322386
1772650205624016400,2.112016357421875,6.665023706632852,1.1349778436422346,1.1512759944271296
1772650205634060300,2.122060302734375,6.844282541674375,1.1616321879424154,1.2810288210868834
1772650205644104200,2.132104248046875,6.787405054676532,1.237827831133455,1.4014707255005836
1772650205654148400,2.1421484375,6.6270742074668405,1.4227723105959593,1.4549487793184817
1772650205664193300,2.152193359375,6.710577251061797,1.6348647630944848,1.5963699050053952
1772650205674237200,2.1622373046875,7.04865828231573,1.7377347704604267,1.5192977712407707
1772650205684281300,2.17228125,7.4768626520872115,1.8999074461445211,1.3349065417468546
1772650205694325200,2.1823251953125,7.9628692224860185,2.005095959585905,1.0704422431066631
1772650205704370200,2.1923701171875,8.421215632542967,2.069132962949574,0.8222073408640921
1772650205714414300,2.202414306640625,8.729995750510692,2.124992943467945,0.5013990775808692
1772650205724458200,2.212458251953125,8.728709217831492,2.274039449466765,0.24637040527863427
1772650205734502400,2.22250244140625,8.567606801727413,2.530790981772542,0.06847798148579895
1772650205744547300,2.23254736328125,8.241046112397312,2.8782848612770437,-0.015511594383930787
1772650205754591200,2.24259130859375,7.774726239243149,3.201556738194823,0.06450308650545776
1772650205764635400,2.252635498046875,7.283302904492616,3.5497055744767185,0.04696061648158356
1772650205774679300,2.26267919921875,6.846299726715683,3.6591762952819464,-0.03331447804281488
1772650205784724200,2.27272412109375,6.228305775538087,3.3735438286677,-0.026062735082581636
1772650205794768400,2.282768310546875,5.365409427541494,2.930665036855638,0.07983414582386612
1772650205804812300,2.292812255859375,4.586833869263529,2.3705595032840967,0.30226847105138
1772650205814856200,2.302856201171875,4.148133824440837,1.76425832798779,0.4817595439461991
1772650205824901400,2.3129013671875,3.8471594117879864,1.120683945351839,0.6685578711144625
1772650205834945300,2.3229453125,3.291010799148679,0.4438058435291052,1.0344876440849156
1772650205844989200,2.3329892578125,1.9558236868947743,-0.4301575496658683,1.5696844349145889
1772650205855033000,2.343033203125,0.16643208669424056,-1.5777473298609255,2.121590733809024
1772650205865078300,2.353078369140625,-0.8742337345689535,-2.129701121158898,1.580409827068448
1772650205875122400,2.363122314453125,-1.1230337233483791,-1.7750608770310878,0.08105513898618519
1772650205885166000,2.373166015625,-1.4378992987096308,-1.5463029748052357,-0.7485670081790536
1772650205895210200,2.383210205078125,-2.117614669784903,-1.5426970592677591,-0.9830544670328497
1772650205905255400,2.39325537109375,-3.589021101298928,-1.062488361492753,-1.208087211255729
1772650205915299000,2.403299072265625,-6.329986865380406,-0.01785918955653906,-1.0680923189796507
1772650205925343200,2.41334326171875,-9.628893970736861,0.8475508948266506,-0.24265264513082802
1772650205935387400,2.423387451171875,-11.59591826608181,1.3442153451010583,0.594749049994722
1772650205945432000,2.43343212890625,-11.541127522230148,1.2269684373363852,1.0755847936268894
1772650205955476200,2.443476318359375,-9.644684245064854,0.5758706734582781,1.1826865933436899
1772650205965520400,2.453520263671875,-7.741168253034353,-0.33385873738378286,1.1141963368982075
1772650205975564300,2.463564208984375,-7.102567567157745,-1.4479536597341298,0.8381365852713585
1772650205985609200,2.473609130859375,-7.700361026349663,-2.5427032456234095,0.22009499555975198
1772650205995653400,2.4836533203125,-8.503409931626916,-3.2502263688176867,-0.5676384863596409
1772650206005697300,2.493697265625,-9.402416288402677,-3.564747660785913,-1.0980500156741588
1772650206015741400,2.503741455078125,-10.186441928780079,-3.4607793367892503,-1.2384911173477768
1772650206025786000,2.5137861328125,-10.396523772108555,-2.962067598596215,-1.0787208996955304
1772650206035830300,2.523830322265625,-9.831123931521176,-2.352827008847147,-0.6902440716132521
1772650206045874400,2.53387451171875,-8.647982068690657,-2.0076861222095785,-0.19561567547740413
1772650206055918300,2.54391845703125,-7.364529235327243,-2.0534422034732995,0.10946520437989384
1772650206065962200,2.553962158203125,-6.27471915166676,-2.178007471427321,0.1362269911099225
1772650206076007400,2.56400732421875,-5.373460632050037,-2.188928093892336,-0.059212615414522586
1772650206086051300,2.57405126953125,-4.75578290721476,-1.925284756246209,-0.37586065374575556
1772650206096095200,2.58409521484375,-4.394757638224959,-1.4966772125013172,-0.664571066500619
1772650206106139100,2.59413916015625,-4.219310470426082,-1.05250195113793,-1.045854695143178
1772650206116184300,2.604184326171875,-3.9988311517238615,-0.7410625508330762,-1.365989954535663
1772650206126228200,2.614228271484375,-3.428936337804794,-0.6587459405437112,-1.7135865637622774
1772650206136272100,2.624272216796875,-2.459748775821924,-0.5735663420386612,-1.9171490883246063
1772650206146316300,2.63431640625,-1.3847732731997966,-0.31531200395449993,-1.810859335643053
1772650206156361200,2.644361328125,-0.3823831143170595,0.07165332358628511,-1.5592089258685706
1772650206166405000,2.654405029296875,0.4271913933366537,0.40461350469514723,-1.2263181567341088
1772650206176449300,2.66444921875,0.9674953711122274,0.4345629450179636,-0.8675289031680673
1772650206186493200,2.6744931640625,1.3673989445507526,0.3170946495875716,-0.7227142625853419
1772650206196538600,2.68453857421875,1.85627785551548,0.20650530001595616,-0.5954214693635702
1772650206206582800,2.694582763671875,2.6538001063257455,0.0922103739246726,-0.2748260085808113
1772650206216627000,2.704626953125,3.6818823403477667,-0.030772593273967502,0.1674267237547785
1772650206226670800,2.7146708984375,4.774319265380502,-0.02305003619790077,0.500408166847378
1772650206236715800,2.7247158203125,5.779045173734426,-0.005734159737825394,0.8812177482374012
1772650206246760000,2.734760009765625,6.69022419886291,0.04323080056980252,1.2782260386258364
1772650206256803800,2.744803955078125,7.397873286524415,0.18987667516767978,1.5753531282007693
1772650206266847700,2.75484765625,7.929764825263619,0.39905134052336216,1.810064678134024
1772650206276892700,2.764892578125,8.243242745658755,0.567360911527276,2.0938976941108702
1772650206286936800,2.774936767578125,8.343618598121404,0.6924003728643059,2.3598345495216546
1772650206296980700,2.784980712890625,8.305227200406788,0.763166099961102,2.4853452816322443
1772650206307024600,2.795024658203125,8.264923831591009,0.7571405560612678,2.559069274012744
1772650206317069800,2.80506982421875,8.36690185855329,0.7272577512338757,2.5095246141210197
1772650206327114000,2.815114013671875,8.620817582911252,0.7375447519704699,2.380576162646711
1772650206337157600,2.82515771484375,9.073955902931093,0.8817921871244907,2.1483140516921875
1772650206347201800,2.835201904296875,9.53984030727744,1.1307470742046832,1.8369529773205517
1772650206357247000,2.8452470703125,9.828663094365597,1.324016314420104,1.5431702297374605
1772650206367290600,2.85529052734375,9.79549556877911,1.3745285041697322,1.2975167222902177
1772650206377334800,2.865334716796875,9.369507706013321,1.443628490011394,1.020192138359323
1772650206387378700,2.875378662109375,8.611680336731672,1.5126542415730655,0.724081897676736
1772650206397423900,2.885423828125,7.606338926827907,1.5649818101815878,0.5618726893745363
1772650206407467800,2.8954677734375,6.584892769819498,1.686505080091208,0.5646998756244779
1772650206417511700,2.90551171875,5.77752717038691,1.7831595739431678,0.6333236222565174
1772650206427555800,2.915555908203125,5.218268901294469,1.722896097768843,0.8643381443027407
1772650206437600800,2.925600830078125,4.861315996310115,1.3310574651032685,1.1674958192788063
1772650206447644700,2.935644775390625,4.729292375174165,0.7065231523714959,1.235149551834911
1772650206457688800,2.945688720703125,4.523935806801915,-0.14606661340519786,1.1685635946407913
1772650206467732700,2.955732666015625,3.9266590649604796,-1.1480240799590944,0.7404474876746535
1772650206477777700,2.965777587890625,2.3611726662576196,-2.126664529941976,0.12043350191153585
1772650206487821800,2.97582177734375,0.1617512354016304,-2.9047961438447234,-0.370892363813892
1772650206497865700,2.98586572265625,-3.1972984962284565,-3.5759985381186006,-0.030915248581091872
1772650206507910000,2.995909912109375,-6.996785471737384,-3.7822216601923104,0.682421561294049
1772650206517954800,3.005954833984375,-9.552768762433528,-2.8266280315369365,0.3736214599842205
1772650206527998700,3.015998779296875,-10.244928020018339,-1.5380251219339667,-0.25320322870705275
1772650206538043000,3.02604296875,-9.628341013029218,-1.0093009611845016,-0.06685505645908416
1772650206548086800,3.036086669921875,-8.797723717346788,-0.8772697412639856,0.7011321800481528
1772650206558131700,3.046131591796875,-9.079098526516557,-1.010942152520269,0.8823411262441426
1772650206568175900,3.05617578125,-10.250693743938207,-0.8536085874304175,0.051797699515521524
1772650206578219800,3.0662197265625,-11.839352928435801,-0.5616052706100046,-0.9135608056984841
1772650206588263700,3.076263671875,-12.847643835794925,-0.4575556980706751,-1.581977368646115
1772650206598308900,3.086308837890625,-12.952228830385208,-0.5412430121913552,-1.3839352149404585
1772650206608352800,3.096352783203125,-12.285684491050242,-0.16909589907601474,-1.6969311970375478
1772650206618396700,3.106396728515625,-10.853291388541459,0.005889934821426868,-1.6818693831145763
1772650206628440800,3.11644091796875,-9.429345211860538,-0.24643004477769134,-1.4430088968083261
1772650206638484700,3.126484619140625,-8.314305994397401,-0.45096156050264835,-1.196750847596675
1772650206648529700,3.13652978515625,-7.5503697868466375,-0.6751537622481584,-0.9119191759712993
1772650206658573800,3.14657373046875,-6.827934048941731,-0.8470227792993188,-0.2767767773224041
1772650206668617700,3.15661767578125,-5.879082588022947,-0.8853253296867013,-0.056957749159820374
1772650206678662000,3.166661865234375,-4.850424015417695,-0.9547700373128056,-0.05522329005002975
1772650206688706800,3.176706787109375,-3.879863411515951,-1.2331050403952597,-0.10543985785394906
1772650206698750700,3.186750732421875,-3.174263073077798,-1.5371701125398278,-0.3711444023462012
1772650206708795000,3.196794921875,-2.759011123859882,-1.6183751083254814,-0.5802642687747255
1772650206718838800,3.2068388671875,-2.2247049251943825,-1.853717357377708,-0.6131191847480834
1772650206728883700,3.2168837890625,-1.6810352703779934,-1.7446300829321144,-0.795601365750283
1772650206738927900,3.226927978515625,-1.4984645343095064,-1.4253864386171102,-0.9158780696649104
1772650206748971800,3.2369716796875,-1.3059820605576038,-0.8597410988360643,-0.9300126126751304
1772650206759015700,3.247015625,-1.2061726098060608,-0.19811609572470187,-1.0240960869953035
1772650206769060900,3.257060791015625,-1.0739578500121831,0.5118985520243644,-1.1806756919126957
1772650206779104800,3.267104736328125,-0.9881354235589503,1.0196250790610908,-1.1888492806918918
1772650206789149000,3.27714892578125,-0.7629138787657022,1.4197951944813132,-1.0096269782684744
1772650206799192600,3.287192626953125,-0.1960632548481226,1.612221261870861,-0.7183627893775701
1772650206809237800,3.29723779296875,0.8105190950274467,1.5837794496320188,-0.3203783474333584
1772650206819282000,3.307281982421875,2.2345377524226904,1.574677567026764,0.2197352954018861
1772650206829325600,3.31732568359375,3.86630659532845,1.5524188273370265,0.7539672597873955
1772650206839369700,3.32736962890625,5.546515936276316,1.5315326911747456,1.2536145983301101
1772650206849415000,3.337414794921875,6.906772607856989,1.4675205299913883,1.5708939568348228
1772650206859458600,3.34745849609375,7.869986940649151,1.4071435104399919,1.648389138317108
1772650206869502700,3.357502685546875,8.223000752618908,1.4245606553174555,1.463958745856583
1772650206879547000,3.367546875,8.112685689944028,1.464517402652651,1.0544199866537005
1772650206889591800,3.377591796875,7.828775224816798,1.5812315187148749,0.8027924462981522
1772650206899635700,3.3876357421875,7.526340676483511,1.7410067778684197,0.6976162808816879
1772650206909679900,3.397679931640625,7.389281983789801,1.8327492420203984,0.7079408371496945
1772650206919723800,3.407723876953125,7.288977442997694,1.8357083840869366,0.9123574212580918
1772650206929768700,3.417768798828125,7.231496144887805,1.7799847432993352,1.0882865273550153
1772650206939812600,3.4278125,7.3392615230798715,1.7295472262211142,1.050765628864616
1772650206949856800,3.437856689453125,7.534787602311372,1.6637559265360236,0.8581815944343805
1772650206959901000,3.44790087890625,7.752505639606714,1.565531553018838,0.6792769796580076
1772650206969945600,3.457945556640625,7.882540132752061,1.4484266840733586,0.5238206066168845
1772650206979989800,3.46798974609375,7.800120792740583,1.3306520991727708,0.347258974770084
1772650206990034000,3.478033935546875,7.5944240326285355,1.254206134482473,0.19211524787470696
1772650207000077800,3.488077880859375,7.30545219245851,1.3177198446244,0.12083324181884526
1772650207010122800,3.498122802734375,6.967920027258992,1.3863273707740007,0.0038466654907912015
1772650207020167000,3.5081669921875,6.675805212888121,1.4709377910889685,0.017553265412524343
1772650207030210800,3.5182109375,6.415580159252881,1.4828256511509417,0.06601458704695105
1772650207040254700,3.528254638671875,6.1795595725476735,1.3558204426988958,0.2641949801795184
1772650207050300000,3.5382998046875,5.928427925950288,1.1099291809730232,0.4582735640164464
1772650207060343800,3.54834375,5.653015824577212,0.747814070919901,0.5253344087133184
1772650207070388000,3.558387939453125,5.123473479312658,0.4453907746329903,0.6298676365837454
1772650207080431600,3.568431640625,4.1962674484908575,0.10141235590353607,0.8990757687501609
1772650207090476800,3.578476806640625,2.9397780253767967,-0.35981238606870175,1.3069760400310158
1772650207100521000,3.58852099609375,1.5799240893781183,-0.966401146134734,1.5505585864230989
1772650207110564600,3.598564697265625,0.24616496410071848,-1.5495362576380372,1.2342509955599903
1772650207120608800,3.60860888671875,-1.4575912566512823,-2.0748089627593753,0.33160818197801706
1772650207130654000,3.618654052734375,-3.3229484906792637,-2.235377418117225,-1.0868768066875636
1772650207140697600,3.628697509765625,-4.851339961218834,-1.4445631405130028,-2.8706647416621447
1772650207150741800,3.63874169921875,-6.161461021277308,-0.5511243547365069,-4.11436161095947
1772650207160785700,3.64878564453125,-7.7387857418119905,-0.20107333809509872,-4.3874137052029365
1772650207170829800,3.658829833984375,-9.47952583156824,-0.23945041502341627,-3.785061267532408
1772650207180874800,3.668874755859375,-11.058395443457364,-0.22689751518145201,-3.001068652641773
1772650207190918700,3.678918701171875,-11.887152790486812,0.13164075929820537,-2.247616721965372
1772650207200963000,3.688963134765625,-11.763741514873503,0.3708201022952795,-1.5317701531924306
1772650207211007200,3.69900732421875,-10.974304955363273,0.02693579159006476,-0.7919142016701399
1772650207221052000,3.709052001953125,-9.81207553218007,-0.5817020099602639,-0.2828066686037928
1772650207231096000,3.719095947265625,-8.72334038427472,-1.2166618551164865,-0.15523147824406622
1772650207241140200,3.72914013671875,-7.932908383986353,-1.8472503533206879,-0.21489523495957255
1772650207251183900,3.739183837890625,-7.671218518495559,-2.332712441579252,-0.36697855137102303
1772650207261229000,3.74922900390625,-7.8476178724527355,-2.531575410148501,-0.5622056476559489
1772650207271273200,3.759273193359375,-8.290292081603408,-2.8440736718565223,-0.49167372931502756
1772650207281317000,3.769317138671875,-8.421107495993375,-2.9301193856716155,-0.36581520668007433
1772650207291361000,3.779361083984375,-8.330892972061038,-2.572005327953398,-0.3942606721807271
1772650207301406200,3.78940625,-8.037167799884081,-2.156377238899469,-0.2130721842508763
1772650207311450000,3.7994501953125,-7.643176665359735,-1.889419808269292,0.30293146500475704
1772650207321494000,3.809493896484375,-7.248722589498758,-1.8378581094667314,0.8427182139731944
1772650207331538000,3.819537841796875,-6.81620561722517,-1.664431926101446,1.0738441605046392
1772650207341583000,3.8295830078125,-6.228869839161634,-1.499394947027415,1.0076331741027533
1772650207351627000,3.839626953125,-5.221043042182922,-1.252541854532063,0.6086044838026166
1772650207361671000,3.8496708984375,-3.9780286021918054,-1.0739381223984061,0.05894625609591603
1772650207371715000,3.859715087890625,-2.756251011496782,-0.9413745491668581,-0.4692248008154332
1772650207381760000,3.869760009765625,-1.6573866837650537,-0.7721862956322729,-0.7847912179224192
1772650207391804000,3.879803955078125,-0.5671545753002166,-0.502301140987128,-0.8112507703028619
1772650207401848000,3.88984814453125,0.5087783741772175,-0.0761000738620758,-0.6384639077544212
1772650207411892000,3.89989208984375,1.4568535900264978,0.3514183594718575,-0.29909912030026314
1772650207421937000,3.90993701171875,2.3347470161467787,0.7401410520739853,0.12924202759340406
1772650207431981000,3.91998095703125,3.175789844253659,1.0265069475293158,0.5857178214728832
1772650207442025000,3.93002490234375,4.00444840708375,1.2236878082305191,0.9509163575593381
1772650207452069000,3.940069091796875,5.051892344179749,1.4432901979677377,0.959739642418921
1772650207462114000,3.950114013671875,6.179910285681486,1.4983566900208591,0.77277235189192
1772650207472158000,3.960157958984375,6.806385064956546,1.0144212268076835,1.3512477279558777
1772650207482202000,3.9702021484375,7.345376791089773,0.8443274027355014,1.5937907021671534
1772650207492246000,3.98024609375,7.682515573057532,1.2293318054668605,1.2902458545044064
1772650207502291000,3.990291015625,7.84367293421924,1.5979188880130648,0.6903891061071306
1772650207512335000,4.000335205078125,7.805679595911502,1.677853863862902,0.18703838300183415
1772650207522379000,4.01037890625,7.658912579151988,1.5103510791972279,0.028060302107967436
1772650207532423000,4.0204228515625,7.639501191717386,1.190489595244825,0.14544322080984712
1772650207542468000,4.030468017578125,7.918232792901993,0.98682594839558,0.29413777156583965
1772650207552512000,4.040511962890625,8.437475862470269,0.9003934272199868,0.28570403401311484
1772650207562556000,4.050555908203125,8.912466533336042,0.8305956683725119,0.16610617920812218
1772650207572600000,4.06060009765625,9.281711933660507,0.814574800159037,-0.022491744728013872
1772650207582645000,4.07064501953125,9.504605912289023,0.7533955243140459,-0.1621738447278738
1772650207592689200,4.080689208984375,9.554468552088737,0.7159983983337879,-0.35734661700967696
1772650207602733000,4.090733154296875,9.376993677854538,0.7761633825697004,-0.6312625980734825
1772650207612777000,4.10077685546875,8.525661510923504,0.9254534880660473,-0.9508354743428528
1772650207622821000,4.110821044921875,7.479284326276183,0.9808261234588921,-0.9856943140171468
1772650207632866000,4.120865966796875,6.533923045560718,1.140785068616271,-0.9326341933503747
1772650207642910000,4.130909912109375,5.583351921242476,1.3689793456099926,-0.8476385731101036
1772650207652954000,4.1409541015625,4.813910686534643,1.7185509081713854,-0.6710988608341664
1772650207662999000,4.1509990234375,4.356096775919199,1.8895973567932842,-0.3716789110817015
1772650207673043000,4.16104296875,4.242970747476816,1.5189888514220713,0.051248796928487717
1772650207683087000,4.171087158203125,4.303372316947579,0.8230500752985477,0.33242833925448356
1772650207693131000,4.181131103515625,4.286167499646544,0.347417014876008,0.4279551442507654
1772650207703175200,4.191175048828125,3.751407127472758,-0.01991626821681857,0.41128271679338063
1772650207713220000,4.20122021484375,2.41193722333312,-0.7318960785590112,0.322023374694027
1772650207723264000,4.211263916015625,0.29051380891501905,-1.6211564096070825,0.5388484452050178
1772650207733308200,4.22130810546875,-1.7948393442124126,-2.3126446360625326,0.7723603370249271
1772650207743352000,4.23135205078125,-3.333565746283531,-2.135892084753513,0.31283516551218926
1772650207753397000,4.24139697265625,-4.216110213080048,-0.9260216433428228,-0.7742448355972766
1772650207763441200,4.251441162109375,-5.013590378314256,-0.196745099632442,-1.3009940430119633
1772650207773485000,4.261485107421875,-5.8948179172933095,-0.331310806466639,-1.2045504884969442
1772650207783529000,4.271529052734375,-7.138898525211214,-0.4796213994063437,-0.9329634983699768
1772650207793574100,4.28157421875,-8.812637793362141,-0.21057225719392297,-0.5597971252094954
1772650207803618000,4.2916181640625,-10.568230584335327,0.18360110202953217,-0.16165186668038367
1772650207813662000,4.301661865234375,-11.741630220830439,0.39443522503003475,0.007831278147548436
1772650207823705900,4.311705810546875,-11.640309196472167,0.4633925875306129,-0.38138898871317506
1772650207833751000,4.3217509765625,-10.349574973928927,0.3226445387996733,-1.0081824785485862
1772650207843795000,4.331794921875,-9.711337276145816,-1.47376497733891,0.05691043941937387
1772650207853838800,4.3418388671875,-9.218787567713855,-2.3737669210232792,0.6970537516281008
1772650207863883000,4.351883056640625,-8.569055831491946,-1.3737269785284996,-0.3330958267198875
1772650207873928200,4.36192822265625,-8.674375570097565,-1.5400965213805435,-0.3620153760056942
1772650207883971800,4.371971923828125,-8.30013192309439,-1.309954179058969,-0.6492424183350056
1772650207894016000,4.38201611328125,-8.963206540492177,-2.873129962731898,0.9586769816234707
1772650207904060200,4.39206005859375,-9.141957426011562,-3.310734613533318,1.7529197723716496
1772650207914104800,4.402104736328125,-8.487297001215815,-1.7608108178824184,0.2901124433062039
1772650207924149000,4.41214892578125,-8.285410739302634,-1.5255293591067194,-0.26786232531433923
1772650207934193200,4.422193115234375,-7.797185323810577,-1.7559490570649503,-0.09613867155062034
1772650207944237000,4.432237060546875,-6.9613266203433275,-1.9366583831757307,0.04472356901136227
1772650207954282000,4.442281982421875,-5.666030204451084,-1.6468550606176255,-0.6671962273724377
1772650207964326100,4.452326171875,-4.716213113370538,-1.5291016646355389,-1.1352085836581884
1772650207974370000,4.4623701171875,-4.191235299542546,-2.5673086945697663,0.15667263522939756
1772650207984414200,4.472414306640625,-3.3882314024507996,-2.3745593865752217,0.7535827905144542
1772650207994459000,4.482458984375,-2.4017186116576195,-1.1424372197374701,0.1333459009819664
1772650208004503000,4.4925029296875,-1.417719849511981,0.22856325643658637,-0.5945386221144348
1772650208014547200,4.502547119140625,-0.8800555725902318,0.814605268362537,-0.21510699628042057
1772650208024590800,4.5125908203125,-0.19651567479074,1.0269962654162197,0.18663354679429903
1772650208034636000,4.522635986328125,0.738247639542818,1.3112751985296607,0.5821018959980457
1772650208044680200,4.53268017578125,2.0911258913099764,1.8404846585780381,0.5162707392266019
1772650208054724000,4.54272412109375,3.6721044581770896,1.909102998382598,0.22341405697986483
1772650208064768000,4.55276806640625,4.74621603744626,0.9129853438980877,1.0907257372006773
1772650208074812000,4.56281201171875,5.97275572797656,0.3910370339591056,1.249518415057659
1772650208084857000,4.572857177734375,7.080137708684802,0.639221448123455,0.839434004670754
1772650208094901000,4.58290087890625,8.092366540014744,0.9904061449699103,0.41143275625593956
1772650208104945000,4.59294482421875,8.823010718816517,1.1016709095850585,0.2164696264031343
1772650208114989000,4.602989013671875,9.052847063928843,1.2197161281205713,0.09094106637490913
1772650208125034000,4.613033935546875,8.880790123090147,1.5333751041710375,-0.06255331327770837
1772650208135078000,4.623077880859375,8.547475283324719,1.736382917460054,-0.34313287128340453
1772650208145122000,4.6331220703125,8.058191883212327,1.6993194073483346,-0.17819915165444836
1772650208155166000,4.643166015625,8.008912011736632,1.8032073595851659,0.04459238951290026
1772650208165211000,4.6532109375,8.426963820806145,1.882805504696071,0.04104430510988459
1772650208175255000,4.663255126953125,9.100145406198502,1.804040595538914,0.00020220804121345282
1772650208185299000,4.673298828125,9.70890215795338,1.6492792190246284,-0.00957052303031087
1772650208195342600,4.683342529296875,10.008960040283203,1.4993288960538804,-0.17466288555338977
1772650208205387500,4.693387451171875,10.078243419867754,1.3946050775147973,-0.4824487317867577
1772650208215431400,4.703431396484375,10.079475592011212,1.2943645418696104,-0.7154868686150759
1772650208225475600,4.7134755859375,9.917627325975895,1.252125236555189,-0.8127619055181742
1772650208235519700,4.723519775390625,9.42050081114769,1.388607882926613,-0.9186452693559228
1772650208245564400,4.733564453125,8.52680775834918,1.6002886858843266,-1.1094149478405713
1772650208255608600,4.743608642578125,7.727295795026421,1.792675444176793,-0.9563784954227507
1772650208265652700,4.75365283203125,7.00940120768249,1.6415714211262762,-0.5659979160783812
1772650208275696600,4.763696533203125,6.357523107081652,1.1977381050683558,-0.3953841597853228
1772650208285741600,4.773741455078125,5.721109117594361,0.7652627799794077,-0.4291755163585767
1772650208295785700,4.78378564453125,5.109217574945092,0.3613216215878725,-0.5985717866206541
1772650208305829600,4.79382958984375,4.615226435533166,-0.19282675714492797,-0.804885326924175
1772650208315873500,4.80387353515625,4.132389142820239,-0.6408155854471027,-0.4405082632884383
1772650208325918700,4.813918701171875,3.0748879220902916,-1.5806692086569964,0.07177731529213488
1772650208335962600,4.823962646484375,1.564976695615053,-2.6337571429893374,0.31134331951923666
1772650208346006500,4.834006591796875,0.058301382321119304,-3.156394238910079,0.49102691931147124
1772650208356050400,4.844050537109375,-1.465320389598608,-2.8301047677367923,0.015170315798744559
1772650208366095600,4.854095703125,-3.1171219667077064,-2.1271960064701734,-0.5604930350517854
1772650208376139500,4.864139404296875,-4.7376907856851815,-1.7092485345579682,-0.3855829698042944
1772650208386183400,4.874183349609375,-6.236446996417642,-1.1552085846357047,0.2530673273677006
1772650208396227600,4.8842275390625,-8.223356726449728,-0.5712798385366797,0.345132082276605
1772650208406272800,4.894272705078125,-10.674502509099245,-0.012592062808573246,0.031546016198722646
1772650208416316400,4.90431640625,-12.73151804101467,0.2666764217317104,-0.244399707993865
1772650208426360600,4.914360595703125,-13.692853135931491,0.7759468172095716,-0.10908990479409694
1772650208436404500,4.924404541015625,-14.118366366922855,0.35879780219867824,-0.1327718091547489
1772650208446449400,4.934449462890625,-13.765294102764129,-0.0401266240093857,-0.14599605065332724
1772650208456493600,4.94449365234375,-12.942543302673101,-0.43022520807459946,0.02837830028226599
1772650208466535700,4.95453564453125,-11.87723696115017,-0.8325425646565854,0.44111941745672373
1772650208476580600,4.96458056640625,-10.871521457237005,-1.1622033388938755,1.1160896032989025
1772650208486624500,4.97462451171875,-10.095635284173488,-1.4670138956435024,1.7360038550145922
1772650208496668700,4.984668701171875,-9.320483855125307,-1.6487588484123348,2.017643890991807
1772650208506712600,4.994712646484375,-8.513855337795615,-1.8817776229530572,2.020476776330173
1772650208516757500,5.004757568359375,-7.971354142236709,-1.952428199237585,1.6468164821729063
1772650208526801700,5.0148017578125,-7.90551885727942,-1.8189739607766269,1.1229762940727173
1772650208536845600,5.024845458984375,-7.883517453351616,-1.5964388785883783,0.9610317280560732
1772650208546889500,5.034889404296875,-7.571683793032169,-1.349162153853476,1.0540759224563836
1772650208556934700,5.0449345703125,-7.120141217771172,-1.1785318848170339,1.1169047190740704
1772650208566978600,5.054978515625,-6.6281503122657535,-1.0365507871598005,0.9333546165794133
1772650208577022500,5.0650224609375,-5.878700310707092,-0.7949827954605221,0.36987840099837627
1772650208587066600,5.075066650390625,-4.681690081521868,-0.41804084928408264,-0.23447609720956533
1772650208597111600,5.085111572265625,-2.944792638668418,-0.018381313734501598,-0.5463415043741464
1772650208607155500,5.095155517578125,-0.9373077381193637,0.168486023549363,-0.6358984411805868
1772650208617199600,5.10519970703125,1.4305711477786303,0.6316637262202799,-0.634651217598468
1772650208627243500,5.115243408203125,3.0431431227833032,0.35605025705620647,-0.013609605820663272
1772650208637288400,5.125288330078125,4.364052118837833,-0.079869801659137,0.8037694746367633
1772650208647332600,5.13533251953125,6.398804381018877,0.46099955491423605,0.990575510187447
1772650208657376500,5.14537646484375,7.366639359349012,-0.41267742255479095,1.49210274419263
1772650208667420700,5.155420654296875,8.338207094466686,-0.3098520580481738,1.4463473935812712
1772650208677465600,5.165465576171875,8.934474367004633,-0.27128618054948744,0.9629331777632236
1772650208687509500,5.175509521484375,9.062756463524698,-0.43917577257566154,0.413174777617678
1772650208697553700,5.1855537109375,9.04928907918632,-0.3032826165299862,0.048080400592018846
1772650208707597600,5.19559765625,8.876262416532635,-0.1320677525386214,0.11527785444771871
1772650208717642500,5.205642578125,8.368595802989601,0.024513313683494926,0.26334106676392255
1772650208727686700,5.215686767578125,7.54432349241972,0.4151020193532109,0.431337187904492
1772650208737730600,5.22573046875,7.1089522997587915,0.7012295760080218,0.6133491210464388
1772650208747774700,5.235774658203125,7.390575530731677,0.7668634201090783,0.714096802496165
1772650208757819600,5.245819580078125,8.022489286190272,0.6851861306365579,0.7006653662540018
1772650208767863600,5.255863525390625,8.666165375635027,0.5622743289779871,0.4997407159145921
1772650208777907700,5.26590771484375,9.292907865935563,0.4604379024434834,0.09601577582331373
1772650208787951400,5.275951416015625,9.745444712930917,0.4132826219063252,-0.1954443192321807
1772650208797996500,5.28599658203125,9.831130945783853,0.4716583115726709,-0.2528739967526868
1772650208808040700,5.296040771484375,9.452122860857843,0.7283139092233032,-1.1260785709369927
1772650208818085600,5.306085693359375,8.546289872932434,1.0183115853097289,-1.0908205758772789
1772650208828129500,5.316129638671875,7.4584157257705925,0.9609857700224965,-0.6107851888425648
1772650208838173700,5.326173583984375,6.44626288228631,1.1111851723834871,-0.4047114486442879
1772650208848217600,5.336217529296875,5.74078646248877,1.211430895660445,-0.3228901841238141
1772650208858262500,5.346262451171875,5.3461500157982105,1.04474147320427,-0.24140856335386632
1772650208868306700,5.356306640625,5.3574119990468025,0.6469892325807363,-0.08297945811226963
1772650208878350600,5.3663505859375,5.630908037665486,0.01959215082898736,0.2764340282993391
1772650208888394500,5.37639453125,5.947514319214225,-0.6736619893204421,0.5003240687604993
1772650208898439700,5.386439697265625,5.674554871690273,-1.1658735518392174,0.44848139759209005
1772650208908483600,5.396483642578125,4.302329529896379,-1.5370685518614946,0.6311755043119192
1772650208918527500,5.406527587890625,2.3709125545054675,-1.6756094459369777,0.46245030171182006
1772650208928571400,5.4165712890625,0.22069033110439776,-1.4070928031660617,-0.3070472297605127
1772650208938616600,5.426616455078125,-2.355306989094615,-1.2367298067636787,-0.6151403883773833
1772650208948660700,5.43666064453125,-5.006671977227926,-1.019197428233549,-0.5052358792647719
1772650208958704400,5.446704345703125,-6.658997285950184,-0.25011918161921204,-1.1906318532597273
1772650208968748500,5.45674853515625,-7.5999226300448175,0.22695815932750701,-1.2516871373988687
1772650208978793700,5.466793701171875,-8.199980527037381,0.4929697604749351,-0.9906317704193294
1772650208988837400,5.47683740234375,-8.855577355900406,0.6446541406966746,-0.861453747972846
1772650208998881500,5.486881591796875,-9.924209042453766,0.6588194441713392,-1.114722552729398
1772650209008925700,5.49692578125,-11.26277001505494,0.7277416622933,-1.8668743605926632
1772650209018970400,5.506970458984375,-11.968455109167099,0.7902037444904446,-2.399208674663305
1772650209029014500,5.5170146484375,-11.908221297478676,0.8537319946143775,-2.3749296811923384
1772650209039058700,5.52705859375,-11.508549779230355,0.9025460021439939,-2.13696117528975
1772650209049102600,5.5371025390625,-11.052170285332203,0.8388640958283096,-1.910372872187942
1772650209059146800,5.547146728515625,-10.771768120586872,0.7476583689015358,-1.611591877926141
1772650209069191400,5.55719140625,-10.75155301555395,0.5869895949743688,-1.2564029138743877
1772650209079235600,5.567235595703125,-10.465587371462583,0.22783859542384743,-0.7100370787765831
1772650209089279700,5.57727978515625,-9.809747966015339,-0.11645904532261192,-0.2712460677348077
1772650209099323400,5.587323486328125,-8.793385980403423,-0.47979741356037553,-0.14490567986704408
1772650209109368600,5.59736865234375,-7.487408596020937,-0.8227024309046566,-0.3309371508486569
1772650209119412700,5.607412841796875,-6.247602596682309,-1.2341425667494534,-0.7332738697182387
1772650209129456600,5.61745654296875,-5.427717707416415,-1.5551061667248607,-1.2466235703989863
1772650209139500500,5.62750048828125,-5.200013698157668,-1.669359445631504,-1.564866513238847
1772650209149545700,5.637545654296875,-5.599160900270938,-1.4333191313125193,-1.7082006329402326
1772650209159589600,5.647589599609375,-6.101836281397938,-0.9460800234440714,-1.5915329863682388
1772650209169633500,5.657633544921875,-6.190037711942195,-0.20277122805416584,-1.1926896625723689
1772650209179677400,5.667677490234375,-5.616885942053795,0.7246944035518914,-0.5557571291036904
1772650209189722600,5.67772265625,-4.559111165079474,1.3054805407762526,0.1458117618612945
1772650209199766500,5.6877666015625,-3.5341403410762546,1.3101033782713114,0.8987509207099675
1772650209209810700,5.697810791015625,-2.6850316954135893,0.8608138426341115,1.2145422326140105
1772650209219854600,5.7078544921875,-1.5724147366613148,0.418494292140007,0.9263979293093084
1772650209229899500,5.7178994140625,0.0776163236439228,-0.1229384704697877,0.47411681064069267
1772650209239943700,5.727943603515625,2.145594563600421,-0.737340315439552,0.1993180188603699
1772650209249987600,5.737987548828125,4.018091147989034,-1.2984013961702585,0.016873758715763687
1772650209260031700,5.74803173828125,5.394245061403512,-1.6081711096972227,-0.0902330825023353
1772650209270076700,5.75807666015625,6.2970215843677515,-1.7564917856395244,-0.11646825154237449
1772650209280120600,5.76812060546875,6.9594649181246755,-1.6910706344410775,-0.11686558029688894
1772650209290164700,5.778164794921875,7.45774820177257,-1.40736606714949,0.09337459539845586
1772650209300209000,5.788208984375,7.8661805341035125,-1.0643968985278158,0.42043358963951466
1772650209310253600,5.798253662109375,8.478066231533884,-0.659138885384053,0.7335115509316325
1772650209320297700,5.808297607421875,9.181340757372976,-0.20712284739241002,1.1308095449816435
1772650209330341600,5.818341552734375,9.646456515434384,0.2142232539821416,1.6141571983695029
1772650209340385800,5.8283857421875,9.859823956304789,0.4768715161763131,1.9467175665058194
1772650209350430700,5.8384306640625,10.058452677726745,0.5903832560006529,2.087297857454419
1772650209360474600,5.848474609375,10.51305873221159,0.6976671342860907,2.0548031165629626
1772650209370518800,5.858518798828125,11.107704541027545,0.8665153422113507,1.9606746340572834
1772650209380562700,5.868562744140625,11.359649842095374,0.8376552314952015,1.2250697641082107
1772650209390607600,5.878607666015625,10.941246735370159,1.1042512084018439,1.6942383046917617
1772650209400651800,5.88865185546875,10.35839424020052,1.0721948589276522,2.056550837013125
1772650209410695700,5.89869580078125,9.092153238400817,0.961515858311206,1.506668152900785
1772650209420739600,5.908739501953125,8.123945919626951,1.1184638581495732,0.9214530933182686
1772650209430784800,5.91878466796875,7.409704009571671,1.1512670804683118,0.7507961554706096
1772650209440829000,5.928828857421875,6.8957134537041185,1.2020348524142055,1.0462082578212022
1772650209450872600,5.93887255859375,6.417486869657039,1.0130861057464033,0.9305132556736468
1772650209460916700,5.948916748046875,5.938897297516465,0.8017141495421528,0.6472934031590819
1772650209470962000,5.9589619140625,5.292224364343285,0.3415576943885535,0.32651904214546085
1772650209481005600,5.969005615234375,4.9631367868840695,-0.07610358099341392,0.018752594732306897
1772650209491049700,5.9790498046875,4.269563570848107,-0.4094998154319823,-0.40169370825830847
1772650209501093600,5.98909375,3.2463445589482784,-0.6055681848466395,-0.17488160633798688
1772650209511138600,5.999138671875,2.004830586647987,-0.948412338849157,0.3083049382040277
1772650209521182700,6.0091826171875,0.5098223302721977,-1.325882254422456,0.3861892286017537
1772650209531226600,6.0192265625,-0.9925549935668706,-1.6284939128883182,0.1883764084062539
1772650209541270800,6.029270751953125,-1.9893805040597914,-1.8270253114156423,0.13031091720024124
1772650209551315700,6.039315673828125,-2.4867419966876505,-1.890889588560909,-0.045695181389339264
1772650209561359600,6.049359619140625,-2.826302452844381,-1.806233283277601,-0.3985975323412567
1772650209571403800,6.05940380859375,-3.7846991562217474,-1.396410227240622,-0.6811785754956304
1772650209581447700,6.06944775390625,-5.296324200877547,-1.0837274027459323,-0.8032621096365153
1772650209591492600,6.07949267578125,-7.587364177244901,-0.7857952803984284,-1.1173235290080308
1772650209601536800,6.089536865234375,-10.202329233741759,-0.30332440984509884,-1.5395429791510105
1772650209611580700,6.09958056640625,-12.401366049194335,0.5906055204492062,-1.478518893867731
1772650209621624800,6.109624755859375,-13.69647366451621,0.8042679256781935,-1.5531915652751922
1772650209631669800,6.119669677734375,-13.932708186233043,1.31606038697958,-1.6611580189973114
1772650209641713700,6.129713623046875,-13.313192140054703,0.9415854154385626,-1.10278252408877
1772650209651757800,6.1397578125,-12.217793442606926,0.86908110104613,-1.6234841219022869
1772650209661801500,6.149801513671875,-11.332499969363212,0.25971103969849646,-1.5579292613215743
1772650209671845600,6.159845703125,-10.625208609098195,-0.12799465788081288,-1.2781184865981339
1772650209681890800,6.169890869140625,-10.393591810309886,-0.21178112152703105,-0.9858449014689773
1772650209691934500,6.1799345703125,-10.172703326284886,-0.3848405904717743,-0.4414019972577691
1772650209701978600,6.189978515625,-9.510065931260586,-0.6236714122921228,-0.051807654653955246
1772650209712022800,6.200022705078125,-8.568812670385837,-1.155073560079187,0.2628644987607375
1772650209722067700,6.210067626953125,-7.260147654354572,-1.648477839513868,0.3207908737570047
1772650209732111600,6.220111572265625,-6.042987786588072,-2.1840530352018774,0.01228894254299812
1772650209742155800,6.23015576171875,-5.2345075039118525,-2.733923444354534,-0.4723157160354778
1772650209752199700,6.24019970703125,-4.88564438188076,-2.9982518416553736,-0.7278818014163524
1772650209762244600,6.25024462890625,-4.69515278968513,-2.671896611769497,-0.39894809934459624
1772650209772288800,6.260288818359375,-4.5663323485046625,-2.1141291657567023,0.34073088817559183
1772650209782332700,6.270332763671875,-4.128856292518973,-1.4718535907596348,0.6342668944559992
1772650209792376800,6.280376953125,-3.443027991521358,-0.6806718680825085,0.2014876910496503
1772650209802421800,6.290421875,-2.652624048283696,-0.23178002652600407,-0.2801614513246342
1772650209812465700,6.300465576171875,-1.4417209028244018,-0.05067176422551274,-0.5136613239131868
1772650209822509800,6.310509765625,0.1380710846066475,-0.04944660634472966,-0.40583413253128525
1772650209832553700,6.3205537109375,1.7474445558309555,-0.12844430134445428,0.14440576752088963
1772650209842598700,6.3305986328125,3.2126749290585517,-0.1299329324670136,0.8667728241037577
1772650209852642800,6.340642822265625,4.4356922906816,-0.028716829787939786,1.3692828586012125
1772650209862686700,6.350686767578125,5.363541295582055,0.05901449902653694,1.5840604585304856
1772650209872730600,6.360730712890625,6.163128077706694,0.256330092023313,1.5041449180334805
1772650209882775800,6.37077587890625,6.838834797662496,0.41479236888214943,1.1203779481425882
1772650209892819700,6.38081982421875,7.537670464271306,0.5180879081837833,0.7187032733783125
1772650209902863600,6.390863525390625,8.217320368894935,0.7660917781494557,0.3699984837140888
1772650209912907500,6.400907470703125,8.261573936641216,1.1358813683532178,0.12245006589833646
1772650209922952700,6.41095263671875,7.250529346659779,1.3481573607251047,-0.08635642373207957
1772650209932996900,6.420996826171875,6.327946883985399,1.5453865906126796,-0.12377140502943657
1772650209943040500,6.43104052734375,6.283996683099866,1.6977075882375239,0.1274256988864392
1772650209953084700,6.441084716796875,6.955597721302509,1.6877514268904923,0.42371787200719113
1772650209963129900,6.4511298828125,8.15384129167497,1.6079052983678876,0.5509396458193659
1772650209973173500,6.461173583984375,9.408608713302016,1.4848349451467393,0.507002706274204
1772650209983217700,6.4712177734375,10.296816028165816,1.345304163251072,0.2950995475363917
1772650209993261600,6.481261474609375,10.699448734307289,1.297495679502189,0.010238010495714843
1772650210003306800,6.491306640625,10.431602099752425,1.3398128723584115,-0.24174201482562346
1772650210013350700,6.5013505859375,9.634487260699272,1.5438704869613051,-0.40104967473372816
1772650210023394600,6.51139453125,8.66267285734415,1.8096037826240061,-0.4611702718386426
1772650210033438700,6.521438720703125,7.868809713563323,2.1007519439198075,-0.33952286409270016
1772650210043483600,6.531483642578125,7.321708915254473,2.375424040580541,-0.22479663391206411
1772650210053527600,6.541527587890625,7.0356386417448515,2.576679457244277,-0.12976827082405798
1772650210063571700,6.55157177734375,6.794861800423264,2.5165946986377237,0.023869298425223676
1772650210073616000,6.561615966796875,6.499853018176555,1.9934552061527966,0.44284401275962587
1772650210083660500,6.57166064453125,6.091141284382343,1.1461303751669822,0.9067863431274891
1772650210093704700,6.58170458984375,5.4381905861139295,0.2883963783696294,1.093064628477022
1772650210103748900,6.591748779296875,4.361127755823731,-0.272375656286627,0.8276162141703068
1772650210113792800,6.601792724609375,2.9337533582597968,-0.45790714185684916,0.12003446525712497
1772650210123837700,6.611837646484375,0.892728007158637,-0.758150171495229,-0.513483263932541
1772650210133881900,6.6218818359375,-1.5020388856649398,-1.647436075375974,-0.3896377616204321
1772650210143925800,6.63192578125,-3.7841134652882813,-2.604130066488683,-0.10082290211040526
1772650210153969700,6.6419697265625,-4.485827902203798,-3.004641834953427,-0.4890999698368832
1772650210164014600,6.6520146484375,-4.167013296955823,-2.3903803483024237,-1.4333883971564472
1772650210174058800,6.662058837890625,-3.1908775232702493,-2.104586261385679,-1.7261938241399823
1772650210184102700,6.6721025390625,-2.45239022975266,-2.202432887631655,-0.8349619007579981
1772650210194146600,6.682146484375,-2.419704934725165,-1.8998364267349241,-0.3171262868348509
1772650210204192300,6.692192138671875,-3.8167660270899533,-1.1415725657321512,-0.45005555157363414
1772650210214236200,6.702236083984375,-6.364491777050495,-0.4695062481053173,-0.4390772806372493
1772650210224280000,6.712280029296875,-9.019957186239957,-0.32503925191648303,0.19663396740816533
1772650210234324200,6.72232421875,-11.398665509188174,0.08714899888187647,0.18726035518944262
1772650210244369200,6.732369140625,-12.877017229795456,0.4081975006617605,-0.035319004531949756
1772650210254413000,6.7424130859375,-12.745705556321143,-0.02092018456235528,0.20105982102639972
1772650210264457200,6.752457275390625,-11.452870562106371,-0.41819983923807735,-0.1591346962276846
1772650210274501000,6.762501220703125,-9.824101485538483,-0.9601349984120577,0.2097751154668629
1772650210284546000,6.772546142578125,-8.595835701867937,-1.2349252415597438,0.2893133470840752
1772650210294590200,6.782590087890625,-7.810964258316159,-1.5887633755244315,0.49263906721584494
1772650210304634000,6.792634033203125,-7.124212997254729,-1.759226179039478,0.608896452486515
1772650210314678300,6.80267822265625,-6.394268491154909,-1.8722694976344703,0.5441791752411053
1772650210324723200,6.81272314453125,-5.722641149467229,-1.9358654792323708,0.5982247267486527
1772650210334767000,6.82276708984375,-5.20346003921926,-2.293470418384671,1.2049970632206648
1772650210344811300,6.832811279296875,-4.756772502774,-2.006734520573169,1.0423121271654963
1772650210354855200,6.842855224609375,-3.718443600025773,-2.214385191231966,0.231592851657141
1772650210364899000,6.852899169921875,-2.4882880570858714,-2.470990885326266,-0.28161594271557405
1772650210374944300,6.8629443359375,-1.8005016077578067,-2.368473929181695,-0.6884045081611723
1772650210384988200,6.87298828125,-1.3526725000619888,-2.285234358828515,-0.9108779963552951
1772650210395032000,6.883031982421875,-1.183808802306652,-1.9764970570892095,-1.2239835763067006
1772650210405076200,6.893076171875,-1.0525333691895007,-1.563754606474191,-1.480289849063009
