time,seconds_elapsed,z,y,x
1772649503086156300,0.06915625,-0.2564543029248714,0.47317602265924213,-0.11985946488324552
1772649503096200200,0.0792001953125,-0.22688801670074463,0.5251049473389983,-0.27242219884209334
1772649503106244400,0.089244384765625,-0.23036475290060043,0.6262517841741442,-0.556336828687787
1772649503116288300,0.099288330078125,-0.23089140712320802,0.24555852264016864,-0.21155366944670675
1772649503126332200,0.109332275390625,-0.15010229866206645,0.21684023154750465,-0.08436556957527064
1772649503136376000,0.1193759765625,-0.05443593906462192,0.2714519655704498,-0.21269071065261957
1772649503146420200,0.129420166015625,-0.007957096484303474,0.3124688894830644,-0.2833190020401031
1772649503156464400,0.13946435546875,-0.012528057661652565,0.40706002106443046,-0.5598124323764816
1772649503166508300,0.14950830078125,-0.12487258033752441,0.30036694827899335,-0.6490890544041991
1772649503176552200,0.15955224609375,-0.1579302158087492,0.21269772491529582,-0.6441160152319818
1772649503186596000,0.16959619140625,-0.15760463711619377,0.10429609464630483,-0.6459021679963917
1772649503196640300,0.17964013671875,-0.07396423087716102,0.07730316604152321,-0.7603997039876877
1772649503206684400,0.189684326171875,0.0366647200524807,0.07565700626969336,-0.7628205013938247
1772649503216728300,0.199728271484375,0.0073655603319406505,0.0969832874149084,-0.6587061930552125
1772649503226773200,0.209773193359375,-0.11586918967068195,0.1753483835995197,-0.5652793194802478
1772649503236817400,0.2198173828125,-0.28977906489968297,0.21576865679323673,-0.46510026823133227
1772649503246861300,0.229861328125,-0.38615386502742766,0.2749529594287276,-0.3557042566301301
1772649503256905200,0.2399052734375,-0.433108508425951,0.4073289011336863,-0.1897542360980995
1772649503266949000,0.24994921875,-0.4480354439228773,0.489766361323744,0.02598682943531312
1772649503276993300,0.2599931640625,-0.5294967525571584,0.44048035236820576,-0.04286930574707221
1772649503287037400,0.270037353515625,-0.6223024620264769,0.43070290858894583,-0.06712568552743177
1772649503297081300,0.280081298828125,-0.7776736410021782,0.4165716535143554,-0.1077671682903543
1772649503307125200,0.290125244140625,-0.8238596381157636,0.5207110962942242,-0.15337496365718542
1772649503317169200,0.300169189453125,-0.7520376799643039,0.580069001930952,-0.07179125248594209
1772649503327213300,0.31021337890625,-0.6467647031098603,0.6741403474219143,0.10335221965862437
1772649503337257200,0.32025732421875,-0.5359650717884302,0.7759352729022503,0.234821513113752
1772649503347301000,0.330301025390625,-0.40227556326687336,0.864605490002036,0.375753028652817
1772649503357345300,0.34034521484375,-0.3280611570209265,0.9010146278582513,0.5336653069460764
1772649503367389200,0.35038916015625,-0.22667291264533995,0.9637428867109119,0.7118583759196102
1772649503377433300,0.360433349609375,-0.09764029001891612,1.048991166538,0.7969844176065176
1772649503387477200,0.370477294921875,0.0016214637219905852,0.8593002232007682,1.0138201191093772
1772649503397521200,0.380521240234375,0.22433190247714518,0.8265121984511613,1.01352099003233
1772649503407565300,0.3905654296875,0.375306307798624,0.7413454594276845,0.9695252695046365
1772649503417609200,0.400609130859375,0.31664485999345776,0.5445055211186409,1.0194930501792578
1772649503427653400,0.4106533203125,0.21810265269875526,0.3402227194577455,1.0069493565570562
1772649503437698300,0.4206982421875,0.24127836110293863,0.2272632797539234,0.9542250437159091
1772649503447742200,0.4307421875,0.14552841487526894,0.258622294613719,0.8280256717540323
1772649503457786400,0.440786376953125,-0.18496435320675372,0.3504764024466276,0.7411683492951094
1772649503467830300,0.450830322265625,-0.36633038966059683,0.46795916479378935,0.7750006954658776
1772649503477874200,0.460874267578125,-0.48586862323284147,0.13978548730909823,0.861400410350412
1772649503487918000,0.47091796875,-0.2993172930955887,0.1167708146855235,1.0252947221953421
1772649503497962200,0.480962158203125,-0.08076514306366443,0.21082447838932275,0.9432466266490519
1772649503508005400,0.49100537109375,-0.12275135039985179,-0.04649053301811218,1.1766931981477886
1772649503518049500,0.501049560546875,-0.19964111333489418,-0.2479465868204832,1.4835637561671435
1772649503528093700,0.51109375,-0.19626257681250572,-0.4444970406636595,1.9470378845013676
1772649503538137300,0.521137451171875,-0.15329086557030677,-0.08237959252297877,1.7551207895472645
1772649503548181500,0.531181396484375,-0.1490846460521221,0.36757337545901536,1.572616835104674
1772649503558225400,0.541225341796875,-0.13933891258537767,0.6156798290163278,1.707227550124377
1772649503568269600,0.55126953125,-0.010410334855318068,0.6833163181766867,1.8501131954059005
1772649503578313500,0.5613134765625,-0.00014729951620101928,0.8322256076619029,1.7190480440385638
1772649503588357400,0.571357421875,-0.24164018015265462,0.8049602918565273,1.697548890544474
1772649503598401500,0.581401611328125,-0.32902854074835775,0.5918187686964869,1.842177287840098
1772649503608445400,0.591445556640625,0.08737257850468158,-0.03966770126074552,1.9604443324327467
1772649503618489600,0.601489501953125,0.7208487609744072,-0.09333002560436725,1.112062978131324
1772649503628533200,0.611533203125,0.6662462331712246,0.07234422845989465,0.9810890852440148
1772649503638578400,0.621578369140625,0.7858230451881885,0.09549275659620761,0.9502279369037597
1772649503648622600,0.63162255859375,0.8146464040905237,0.5278378794342279,0.9319807709429413
1772649503658666500,0.64166650390625,0.8922709110409021,0.6785258690297603,0.8549358905114233
1772649503668710400,0.65171044921875,0.9708207161426544,0.47451808491796255,0.7656845125228167
1772649503678754600,0.661754638671875,1.1073691212266683,0.37050212238728997,0.5454637716915458
1772649503688798500,0.671798583984375,1.5169646521180866,0.4892468674942851,0.3490743536289781
1772649503698842600,0.681842529296875,1.8663222796678542,0.41457098121643066,0.3540707006115466
1772649503708886300,0.69188623046875,2.0274632742166516,0.22201456544548273,0.3978273516863584
1772649503718930400,0.701930419921875,2.088754486003518,0.3433826447933912,0.4395301755039021
1772649503728974600,0.711974609375,2.0146417865663766,0.6175766025483608,0.23221063649561255
1772649503739018500,0.7220185546875,1.8758160842001437,0.7759110152438282,0.030740334972180424
1772649503749062700,0.732062744140625,1.8274767084449528,0.9870195712715387,-0.005428125995956361
1772649503759106300,0.742106201171875,1.9225836805939673,1.2452192565590143,0.06926977118430659
1772649503769150500,0.752150390625,2.0723820278733966,1.4792086296975613,0.2003083085393533
1772649503779194400,0.7621943359375,2.22569802788496,1.6779057401806114,0.22124871390582992
1772649503789238500,0.772238525390625,2.42973006965518,1.6244366003215311,0.2914617207570001
1772649503799282400,0.782282470703125,2.5214053137898444,1.5216893425524234,0.3221798438973725
1772649503809326300,0.792326416015625,2.3403975892543794,1.4165145653754472,0.3867902632348239
1772649503819370500,0.80237060546875,2.2683447449564933,1.353529993674159,0.5702206483399496
1772649503829414400,0.812414306640625,2.230703288826346,1.370548056231439,0.49502939641848204
1772649503839459300,0.822459228515625,2.2077765867471695,1.302758714596927,0.12067229736978187
1772649503849503500,0.83250341796875,1.8668904349446296,1.2837950709298251,-0.13590875547360629
1772649503859547400,0.84254736328125,1.045831825724244,1.1276903169825672,-0.15251973506733774
1772649503869591600,0.852591552734375,0.3986316538065672,1.2938959014445544,-0.4770077828418463
1772649503879635500,0.862635498046875,-0.22309622320234773,1.4522078100472688,-0.41228648700844495
1772649503889679400,0.872679443359375,-0.6424947707056999,1.4315446689859033,-0.6115832073524594
1772649503899723500,0.8827236328125,-0.024379238975048064,1.4344593873888254,-0.8435500616874545
1772649503909767400,0.892767333984375,0.551661238092184,1.2721253836631774,-0.8124474327415228
1772649503919811600,0.9028115234375,0.5333364768505097,1.0700745788380503,-0.9270974558807908
1772649503929855200,0.912855224609375,0.17443711397349834,0.961546691840887,-0.8710692791886627
1772649503939899400,0.9228994140625,0.11713994025886058,1.2475585131615399,-0.6285127879086881
1772649503949943600,0.932943603515625,0.5617120919853449,2.3440628337636586,-0.3051010641288012
1772649503959987500,0.942987548828125,-0.3198375185549259,1.8564406448617576,0.08424604398198425
1772649503970031600,0.953031494140625,-0.8973480681747198,1.473147429962456,0.5861421843647957
1772649503980075300,0.9630751953125,-1.5284429084658622,1.1299144227728246,1.028906702147424
1772649503990119400,0.973119384765625,-1.576869962504506,0.7553972195252776,1.1406548663653433
1772649504000163600,0.98316357421875,-1.6516396645456553,0.16434738937467336,1.4113101286001504
1772649504010207500,0.99320751953125,-1.9977502729982137,-0.789397396543622,1.5864827172413467
1772649504020251400,1.00325146484375,-2.156185515719652,-1.7918167815208434,1.466381589089334
1772649504030295300,1.01329541015625,-1.926954150763154,-2.5293089265212414,1.0532829454477877
1772649504040340500,1.023340576171875,-2.612297298592329,-2.9310350392118094,1.0660254495777188
1772649504050384600,1.033384521484375,-4.641360993742943,-3.0475588933989406,2.07094965698272
1772649504060428300,1.04342822265625,-5.238099390923977,-1.1200064844816922,1.0093304795399307
1772649504070472400,1.053472412109375,-6.344595820969343,-0.48688306097239253,0.9195134304925798
1772649504080516600,1.0635166015625,-7.712903697058558,-0.6667267101645469,1.9363342657878995
1772649504090560500,1.073560546875,-8.089937267041206,-0.3021913872271776,1.736305614440143
1772649504100604400,1.0836044921875,-7.722032175409794,-0.5341112606152891,1.342456080343574
1772649504110648300,1.0936484375,-7.241115037104487,-1.1101418008103967,0.8616822229664772
1772649504120692500,1.1036923828125,-7.5770456123262635,-1.7416516516432166,0.1517783055828884
1772649504130736400,1.113736328125,-7.989618113201856,-1.645520889404416,-0.8966571633011102
1772649504140780500,1.123780517578125,-7.293063835528493,-1.5357611225247383,-1.1195890627872198
1772649504150824400,1.133824462890625,-5.593923584139347,-1.7059309344425797,-0.9491343695133924
1772649504160868400,1.143868408203125,-4.046648549431562,-1.643437945650518,-1.270093585574627
1772649504170912500,1.15391259765625,-3.6433518264234066,-1.8087118022203443,-1.432598854213953
1772649504180956400,1.163956298828125,-3.588313829812407,-2.016487122172117,-0.9820496739044785
1772649504191000600,1.17400048828125,-3.1776860332638024,-2.121447672076523,0.22951465714359653
1772649504201044500,1.18404443359375,-3.123170599222183,-2.0106790204152465,1.6113832036115228
1772649504211088400,1.19408837890625,-1.5569178923219442,-0.31428806773424145,0.8661270735461264
1772649504221132500,1.204132568359375,-1.104482752135396,-0.3034248745448887,1.272441317744553
1772649504231176400,1.214176513671875,-1.1932108369022607,0.08053864083141088,1.2746348822660742
1772649504241221400,1.224221435546875,-0.9576911854565143,0.5991418050609528,0.906364902845025
1772649504251265500,1.234265625,-0.756226363825798,0.951030996914953,0.5823585741728544
1772649504261309400,1.244309326171875,-0.7919920892119408,1.5073229635477066,0.09172755884379148
1772649504271353600,1.254353515625,-1.0764917524039745,1.9385212544381618,-0.27564401043280956
1772649504281397500,1.2643974609375,-0.6670932053893804,1.9717805499613283,-0.5151208750717342
1772649504291441400,1.27444140625,1.023463342049718,1.4973008973576127,-0.2401324790034443
1772649504301485600,1.284485595703125,3.1310680744737387,1.4303360238485037,-0.23319588467329738
1772649504311529500,1.294529541015625,4.075985703074932,1.4184448027856646,-0.2526405167903751
1772649504321573400,1.304573486328125,4.702785476520657,1.6144523819237946,0.35631226899325846
1772649504331617300,1.3146171875,4.975690563508868,1.6500541489198803,1.0538819342542438
1772649504341661400,1.324661376953125,5.547911190026999,1.475540170317888,1.8481565083801745
1772649504351705600,1.33470556640625,6.348699749156832,1.9718217587545512,1.8997646766729652
1772649504361749500,1.34474951171875,6.444329283875226,2.0948506109215317,1.8403689232438802
1772649504371793400,1.35479345703125,6.405918596938252,1.7844015368282793,2.185192560625821
1772649504381837300,1.36483740234375,6.038886196488142,1.5919623176962137,2.1154206668719646
1772649504391881500,1.374881591796875,5.876364561235905,1.264277154380828,1.914391314049065
1772649504401925600,1.384925537109375,6.084734339949488,0.8382416530810296,1.8855238237440586
1772649504411969500,1.394969482421875,6.690182113286853,0.6682056966759264,1.7162740492805837
1772649504422013400,1.405013427734375,7.668983891311288,0.5804680842511356,1.397773332287371
1772649504432057300,1.415057373046875,8.2209666164428,0.36834231400489803,0.8742983242377639
1772649504442101500,1.4251015625,8.604412391555309,0.34718174481540914,0.3649057636849582
1772649504452146400,1.435146484375,8.040232448151707,0.35455446554049846,0.21694223061725496
1772649504462190300,1.4451904296875,7.082590362533926,0.5789212932005524,0.07485153510570526
1772649504472234500,1.455234375,6.677287560400367,0.7999854260534047,0.13366371649317443
1772649504482278400,1.4652783203125,6.7033321022391315,0.961537339490652,0.16193974371105432
1772649504492322600,1.475322509765625,6.879594678074121,1.1199877797812223,-0.02696837868541479
1772649504502366500,1.485366455078125,6.749433928200602,1.3358267253316938,-0.18327362364083527
1772649504512410600,1.49541064453125,6.148031046339869,1.3718947946652769,-0.0675426733970642
1772649504522454500,1.50545458984375,5.537336019998788,0.9979366866052151,0.05183189404606819
1772649504532498700,1.515498779296875,5.22901124458313,0.4330849814198911,0.029790011977404354
1772649504542542600,1.52554248046875,4.7763037171959875,0.018357056076079604,-0.018164602243900298
1772649504552586500,1.53558642578125,3.876118964290619,-0.02563143099322915,0.019729586538299915
1772649504562630700,1.545630615234375,2.533291566416621,-0.2526148708924651,0.15745426886007188
1772649504572674600,1.555674560546875,1.1231833609521389,-0.8966543868221342,0.42874731754176315
1772649504582718700,1.56571875,-0.20905659193396567,-1.5407507475055753,0.7505975641585886
1772649504592762600,1.5757626953125,-1.7105904506862162,-2.210831152012199,1.1682244258143006
1772649504602806500,1.585806640625,-3.4116321517825123,-2.0375907004773617,0.9199825093090533
1772649504612850700,1.5958505859375,-4.878328505909443,-0.6456006277665496,0.030055311850085854
1772649504622894600,1.60589453125,-5.580921479225158,-0.09397329194396734,-0.2736666459452361
1772649504632938500,1.6159384765625,-6.071745679038763,-0.13486732012927533,-0.4762231352701783
1772649504642982400,1.625982421875,-7.866749273902177,0.23969269934669135,-0.4223205724298954
1772649504653026600,1.636026611328125,-10.588380222916603,1.014687184267491,-0.17612199832051992
1772649504663071700,1.64607177734375,-12.58918228470087,1.4100146819621324,0.28283910956867037
1772649504673115400,1.656115478515625,-12.981999699270725,1.3177892565988003,0.4933307758070528
1772649504683159600,1.66615966796875,-11.713474970448017,0.9884683087751269,0.2648008371181786
1772649504693203700,1.67620361328125,-9.76741104554534,0.47677872332632537,-0.14658029854837804
1772649504703247600,1.68624755859375,-8.497968032833933,-0.059578854911029336,-0.5004674592865631
1772649504713291500,1.69629150390625,-7.92109052042067,-0.3466844628177583,-0.5385303922317922
1772649504723335400,1.70633544921875,-7.730275103098154,-0.4707143087208271,-0.45605121179185804
1772649504733379600,1.716379638671875,-7.776084083592891,-0.41991891811564563,-0.20109734002519397
1772649504743423700,1.726423828125,-7.70172822304964,-0.24076003631725906,-0.04835161418225616
1772649504753467600,1.736467529296875,-7.221297991478442,-0.42894846613705157,-0.10601188558824359
1772649504763511600,1.746511474609375,-6.509385401153564,-0.7489749313928187,-0.36156101983431727
1772649504773555500,1.756555419921875,-5.7264481405347585,-1.0748061374045907,-0.6231332868274301
1772649504783599600,1.766599609375,-4.765576571476459,-1.5236957139387726,-0.7711671817176043
1772649504793643500,1.7766435546875,-3.7618759145170446,-2.04056796272248,-0.8932061460644006
1772649504803687700,1.786687744140625,-2.9674884546011686,-2.501840197098255,-0.9916654973812401
1772649504813731600,1.796731689453125,-2.662490193259716,-2.427124855592847,-0.6587609189171344
1772649504823775500,1.806775390625,-3.0111534088045357,-1.900141693291813,-0.3522577329054475
1772649504833819600,1.816819580078125,-4.0253228528082365,-1.3081019753210246,0.035887269406579436
1772649504843863600,1.826863525390625,-5.346157030060887,-0.9478142268255353,0.8796279948279261
1772649504853907700,1.83690771484375,-5.841446977111697,-0.21241890797391533,1.1467620241340248
1772649504863951600,1.84695166015625,-4.772878418922424,0.5595476074278354,0.5379574146494269
1772649504873995500,1.85699560546875,-2.3005068928927184,1.2094932786613701,0.12863558613285422
1772649504884040700,1.867040771484375,0.5141863707005977,1.560923182440549,-0.24009514266774057
1772649504894084600,1.877084716796875,2.810219333049655,1.486254310425371,-0.3823789495985955
1772649504904128500,1.88712841796875,4.0488977896630765,1.306715197137743,-0.36055604404285546
1772649504914172700,1.897172607421875,4.817176994854211,1.2696401427187025,-0.3211782656393945
1772649504924216600,1.907216552734375,5.43897267640233,1.1185201914466918,-0.16266082452721892
1772649504934260500,1.917260498046875,6.162165370154381,0.8043111802980303,0.2904704081647098
1772649504944304600,1.9273046875,7.298626730352639,0.5019447287648916,0.5424306876059621
1772649504954348500,1.9373486328125,8.284913311174511,0.30675781835988164,0.5982081044074148
1772649504964392700,1.947392822265625,8.601665138673782,0.2484745562173426,0.5006839881140739
1772649504974436600,1.9574365234375,8.332987313991785,0.28938772749453784,0.6220854582749307
1772649504984480500,1.96748046875,7.758172579327225,0.32160321305319667,0.8511351830542087
1772649504994524400,1.9775244140625,6.897729469701647,0.35621560368575156,0.949836380302906
1772649505004568600,1.987568603515625,6.223742413145303,0.4347733728982508,0.9712969553522766
1772649505014612700,1.99761279296875,6.131017952218651,0.38456213885657486,0.9047520608209073
1772649505024656600,2.00765673828125,6.504914977741241,0.42481830752976235,0.835761380572617
1772649505034700500,2.017700439453125,7.150061724260449,0.5882884026132523,0.8305597202762961
1772649505044744400,2.027744384765625,7.839556146550178,0.6992141445323824,0.852421788798645
1772649505054788600,2.03778857421875,8.259913309952616,0.7139959724701941,0.7206275194391608
1772649505064832800,2.047832763671875,8.431346565935016,0.7926540602520108,0.744281439814344
1772649505074876700,2.057876708984375,8.282019927820564,0.7708271361082791,1.0218393210444598
1772649505084920600,2.067920654296875,7.996780259916186,0.8509156950846314,1.0788934067182243
1772649505094964500,2.077964599609375,7.623550758391619,0.9609237376369535,0.9550846562199294
1772649505105008600,2.088008544921875,6.9933940757334225,1.0465545870408415,0.6726403181225061
1772649505115053600,2.098053466796875,6.424768843358755,1.0680044945657252,0.3083022347902879
1772649505125097500,2.108097412109375,5.858545411428809,0.7558113532841205,0.09158130050720646
1772649505135141600,2.1181416015625,5.611193867892027,0.19580898782610892,-0.023262436839565633
1772649505145185800,2.128185791015625,5.828557684922218,-0.30979718605577944,-0.038005923794675614
1772649505155229700,2.138229736328125,6.106800041285156,-0.683371847756207,0.06639962257547304
1772649505165273600,2.148273681640625,5.783013492843509,-1.0150430119678377,0.15118127127150072
1772649505175317500,2.1583173828125,4.214046266287565,-1.4193455510176718,0.359700888518244
1772649505185361700,2.168361572265625,1.9675959577530622,-2.224591089556366,0.7339775610081851
1772649505195405600,2.178405517578125,0.006399930170178413,-2.9335584202095863,0.7757169539764524
1772649505205449500,2.188449462890625,-1.5385697502046822,-2.8799241529166695,0.252040559869539
1772649505215493600,2.19849365234375,-2.9985668989539143,-2.277463286435604,-0.5204366267343983
1772649505225537500,2.20853759765625,-4.342813515976071,-1.4908556667409836,-0.8966049947224557
1772649505235581700,2.218581787109375,-6.017518998810648,-0.9840594062916934,-1.1727078548386691
1772649505245625600,2.22862548828125,-8.43763952859938,-0.49301981016173957,-1.6195082040086388
1772649505255669500,2.23866943359375,-11.29706859049797,0.07529211848005651,-1.691827005766332
1772649505265713700,2.248713623046875,-13.201705110991,0.40046164571270343,-1.1652486248739062
1772649505275757600,2.258757568359375,-13.393217862927912,0.4051159012593329,-0.4748633912242949
1772649505285801700,2.2688017578125,-11.959748071098327,0.21092516228482125,0.12428973894827067
1772649505295845600,2.278845703125,-9.92304467484951,-0.13870295276939867,0.49923119548987593
1772649505305889500,2.2888896484375,-8.509430507090688,-0.6452186427116393,0.5592874221216887
1772649505315933700,2.29893359375,-7.7366463916957375,-0.9301729178033769,0.4518679712904617
1772649505325977600,2.3089775390625,-7.2809665704995385,-0.9940788421332836,0.18499986291155218
1772649505336022500,2.3190224609375,-7.169517535358667,-0.9936584247641265,-0.3427027727704495
1772649505346066400,2.32906640625,-7.334312960761785,-1.0076793513320386,-0.7504696999952196
1772649505356110600,2.339110595703125,-7.530951969671249,-0.8659168648615478,-0.7980009011726826
1772649505366154800,2.34915478515625,-7.47917677424848,-0.7510862244583666,-0.6923700507912784
1772649505376198700,2.35919873046875,-7.109591182184219,-0.6119520406648516,-0.6407887705054134
1772649505386242600,2.36924267578125,-6.5077721207380295,-0.6130513802088797,-0.6736611856028437
1772649505396286500,2.379286376953125,-5.998260171589255,-0.8172494261957705,-0.7949821378733962
1772649505406330600,2.38933056640625,-5.600570767068863,-1.148164657473564,-0.7952634390328079
1772649505416374800,2.399374755859375,-5.104083719187974,-1.3626657785490155,-0.8050307267442345
1772649505426418400,2.40941845703125,-4.718035068100691,-1.3651784920223056,-0.5808743269644677
1772649505436462600,2.419462646484375,-4.528777986136078,-1.087989444104582,-0.24197540345638988
1772649505446506500,2.429506591796875,-4.572502561572194,-0.7364471659921109,0.046942149243131275
1772649505456550700,2.439550537109375,-4.7913580784648655,-0.3447117014400661,0.518145337459445
1772649505466594800,2.4495947265625,-4.729184823146462,0.08434446285516023,0.6063645228561013
1772649505476638500,2.459638427734375,-4.254232146203518,0.25673867282420393,0.5385872369855642
1772649505486682600,2.4696826171875,-3.2168717962265014,0.552442743858695,0.1615617041788995
1772649505496726500,2.4797265625,-1.836782881450653,0.6865725434936583,-0.01625511536076665
1772649505506770700,2.489770751953125,-0.10502163244187832,0.8276618068777024,0.29806758529543875
1772649505516815000,2.499815185546875,1.931989222320914,1.0327531484425068,0.8622863263394683
1772649505526859300,2.509859375,4.2468478811711075,0.9408645538181066,1.2198479378066955
1772649505536903200,2.519903076171875,6.805498345249891,0.6403466527611017,1.3241288348838687
1772649505546947300,2.529947265625,9.17426219728887,0.5395749328486621,1.2328149714075027
1772649505556991000,2.539990966796875,10.598819783866405,0.4576980291508138,1.0460225990559906
1772649505567036200,2.5500361328125,10.794334172660111,0.5160216233037412,0.8902673161335289
1772649505577080300,2.560080322265625,10.031391652321815,0.8246966734617948,0.7687488685294985
1772649505587124200,2.570124267578125,8.866860966458916,1.1756984149567782,0.6738201024916023
1772649505597168000,2.580168212890625,7.810903468039632,1.5692342069290577,0.799138453835249
1772649505607212300,2.59021240234375,7.213325112903117,1.8649406160511075,0.9930668886117636
1772649505617256200,2.600256103515625,7.444007845711708,2.0194296053647993,1.1113010538481176
1772649505627300400,2.61030029296875,8.00214441729784,2.039378899068385,1.2751515996165572
1772649505637344000,2.620343994140625,8.413342122688888,1.7433702921293674,1.1772075043454766
1772649505647388200,2.63038818359375,8.693100144311785,1.3244605510562657,1.044068469313532
1772649505657432300,2.640432373046875,8.832387034448981,0.9641406538568437,0.8920764844473451
1772649505667476200,2.650476318359375,8.524912153860926,0.6331419820792973,0.7334257723443209
1772649505677520400,2.660520263671875,8.007446615359187,0.3534556374531239,0.6425876366209239
1772649505687564000,2.67056396484375,7.413296481105685,0.1709433535736054,0.5805321989959106
1772649505697608200,2.680608154296875,6.736175802698731,0.11964622399136424,0.5661069659434259
1772649505707652400,2.69065234375,6.132018069171905,0.20531937816701828,0.5285094950854778
1772649505717696300,2.7006962890625,5.715852512240409,0.33468108661733564,0.4763344501575455
1772649505727740200,2.710740234375,5.434740153399109,0.4181265548061579,0.4505613091386854
1772649505737784000,2.7207841796875,5.482891313105822,0.3987701854944229,0.4477612300913781
1772649505747828200,2.730828125,5.676293239790201,0.14940503711290656,0.5024298819333315
1772649505757872000,2.7408720703125,5.958294656425714,-0.2018346047911793,0.47195850009564305
1772649505767916300,2.750916259765625,6.21476064978838,-0.5053701001036912,0.2319531180705875
1772649505777960200,2.760960205078125,5.942722993284463,-0.6110796417444944,-0.1529251740630716
1772649505788004000,2.771004150390625,4.408746416088938,-0.6562000554531813,-0.21146993668600916
1772649505798049300,2.78104931640625,2.0464438690185545,-0.7806096213888376,-0.21069277830105274
1772649505808093200,2.79109326171875,-0.2138701296955347,-1.2207128110077232,-0.059607861809805034
1772649505818137000,2.80113720703125,-1.6480355025738476,-1.8213935891389845,0.04712262037657201
1772649505828181200,2.81118115234375,-2.323234273007512,-2.249186455500126,-0.28634835979864
1772649505838225200,2.82122509765625,-2.980025280091166,-2.0866455310255287,-0.9553389963071792
1772649505848269300,2.831269287109375,-4.335198364797234,-1.2670672234907745,-1.346006612432003
1772649505858313200,2.841313232421875,-6.371940339490771,-0.595802285374701,-1.1673294497359543
1772649505868357000,2.851357177734375,-8.797001832813024,-0.24752295458093285,-0.8164912282396107
1772649505878401300,2.8614013671875,-11.022737270098924,0.2562617760274559,-0.48468467414528127
1772649505888445200,2.871445068359375,-12.639776161384582,0.8378706278115511,0.05417597295418381
1772649505898489300,2.8814892578125,-13.313991765999793,1.194266264239326,0.48919871750362215
1772649505908533000,2.891532958984375,-12.600797903692722,1.1078501096766442,0.6115173390420153
1772649505918577200,2.9015771484375,-10.980766260331869,0.7692417666129767,0.4982394079735502
1772649505928621300,2.911621337890625,-9.68038859565258,0.3471576332874596,0.2981976048832759
1772649505938665200,2.921665283203125,-9.043062752017379,-0.053293052639812225,-0.05707246158067137
1772649505948709400,2.93170947265625,-9.128311177974938,-0.17351612667106092,-0.27809586056433616
1772649505958753000,2.9417529296875,-9.559616436371206,-0.11227109211347996,-0.2667103605339303
1772649505968797200,2.951797119140625,-9.768357386484741,0.03397635775133967,-0.0637304216325283
1772649505978841300,2.96184130859375,-9.347229238709806,0.12062464056946337,0.19218871496971696
1772649505988885200,2.97188525390625,-8.344207796186208,0.03636040334366262,0.2174649758497253
1772649505998929200,2.98192919921875,-7.068295879721641,-0.254149460048601,-0.188443683222495
1772649506008973000,2.99197314453125,-5.860860118111968,-0.7661939964149147,-0.7163133825670928
1772649506019017200,3.002017333984375,-4.939535546544194,-1.2708468881599604,-0.9968719799831509
1772649506029061400,3.012061279296875,-4.42940809584558,-1.4790157374739645,-0.803057526975125
1772649506039106000,3.02210595703125,-4.353142017766833,-1.3781325200110672,-0.3190207588119432
1772649506049150200,3.032150146484375,-4.628647642642259,-1.020311307759583,0.05876154717877507
1772649506059194400,3.0421943359375,-4.9572266860574485,-0.564289614323154,0.1789209813892841
1772649506069238300,3.05223828125,-5.150928472471237,-0.14203056282214818,0.11119827525019645
1772649506079282200,3.0622822265625,-4.998939337149262,0.14262502158395945,-0.18813925691582262
1772649506089326000,3.072326171875,-3.93279362219274,0.3164545981183648,-0.67363773166202
1772649506099370200,3.082370361328125,-2.010613846224546,0.286684532950446,-0.9435629260566085
1772649506109414100,3.0924140625,0.1736369035065174,0.2751216670591384,-0.8001875975620001
1772649506119458300,3.102458251953125,2.4398130722522735,0.4689128853220492,-0.46737522742599247
1772649506129502200,3.112502197265625,4.6110716539412735,0.6232296598739921,-0.07747910713031887
1772649506139546000,3.122546142578125,6.588150310310721,0.7755297608412802,0.26151772379428145
1772649506149590300,3.13259033203125,8.288108892345427,0.8935650425046682,0.47469870218187565
1772649506159634200,3.14263427734375,9.33720702638924,0.9249718420289457,0.5764208546869456
1772649506169678300,3.15267822265625,9.785539991953968,0.9503963522732257,0.5248438121847808
1772649506179722200,3.16272216796875,9.781963302510976,1.216167787989229,0.5587253312595188
1772649506189766100,3.17276611328125,9.414654423207043,1.5941358623430133,0.6962048797138035
1772649506199810300,3.182810302734375,8.964793517422676,1.1323246987849473,1.314488023096323
1772649506209854200,3.192854248046875,9.011440117785334,1.3615741839200257,1.2537307720556854
1772649506219898000,3.202898193359375,9.316350116321445,1.8249758315399287,1.2502224716737866
1772649506229942300,3.2129423828125,9.912873993968963,1.7403141194291412,1.6406804636359213
1772649506239986200,3.222986083984375,10.426542478275298,1.6579627300873399,1.6770006080344317
1772649506250030300,3.2330302734375,10.742337443441151,1.5249755246162413,1.4874370904691516
1772649506260074200,3.24307421875,10.887240419894455,1.260854048064351,1.423530143225938
1772649506270118100,3.2531181640625,10.682186633861065,0.9831186183102428,1.4091612800031899
1772649506280163300,3.263163330078125,10.212296501004696,0.6776154031213373,1.3548714714109897
1772649506290207200,3.273207275390625,9.745414902314543,0.5312555789232254,1.052247830246389
1772649506300251100,3.283251220703125,8.993790479326247,0.4533334042005241,0.8021536369379609
1772649506310295000,3.293294921875,8.021727654168009,0.405818788831681,0.7157994416955858
1772649506320339200,3.303339111328125,7.143323355916142,0.4242191725928336,0.7061931897647679
1772649506330383400,3.31338330078125,6.448111140501498,0.3275029386162758,0.9120446289818733
1772649506340427300,3.32342724609375,6.061265786078572,0.12617350686825812,1.2236004952732473
1772649506350471200,3.33347119140625,5.8986038655728095,-0.20858261774666606,1.3423207635261118
1772649506360515000,3.34351513671875,5.381135404461622,-0.40000630316063757,1.6531043302707373
1772649506370559200,3.353559326171875,4.23179176633656,-0.8674312149472534,1.428773742967844
1772649506380603400,3.363603271484375,3.4447768810153003,-1.1009076701276004,0.6601284078780562
1772649506390647300,3.373647216796875,2.016211227840185,-1.6098429884321988,0.3415025301352143
1772649506400691200,3.383691162109375,0.29107845706045626,-1.7520481041036544,0.1028969684381038
1772649506410735000,3.393735107421875,-1.9103987372815607,-1.655437011002004,0.147489339684695
1772649506420779300,3.403779296875,-4.599695688924193,-1.12049784819521,-0.019491393868252632
1772649506430823400,3.413823486328125,-7.760985298660397,-0.24038088254025206,-0.31049189032167196
1772649506440867000,3.4238671875,-10.829891808253526,0.39077023624908175,-0.5262898462746292
1772649506450911200,3.4339111328125,-13.146909690964222,0.865401535750553,-0.5973800560854375
1772649506460955100,3.443955078125,-14.565215815931557,1.1529128749139606,-0.8107875367052852
1772649506470999300,3.453999267578125,-14.388303251755238,1.0761357785731553,-0.8652770325880497
1772649506481043200,3.464043212890625,-13.17069037952423,0.9755199068095535,-0.8368206803672015
1772649506491087000,3.474087158203125,-12.20310791465044,1.0930014270476995,-0.6814877145100384
1772649506501131300,3.48413134765625,-11.849680261182785,1.3459288710206747,-0.4219452363114804
1772649506511175200,3.494175048828125,-12.150274150085448,1.6629799737274646,-0.31374183202832934
1772649506521220000,3.50422021484375,-13.082910389262437,2.0640208806328473,-0.42341026736274356
1772649506531264000,3.514263916015625,-14.05278067281246,2.305042344365269,-0.38491526314318175
1772649506541308200,3.52430810546875,-14.331725039964914,2.2347706843957305,-0.2224559525374323
1772649506551352000,3.53435205078125,-13.486914383757114,1.9604995697513221,-0.10078552924208342
1772649506561396200,3.544396240234375,-11.599522428053616,1.6750171791322528,-0.202746678134799
1772649506571440000,3.554440185546875,-9.33471053339839,1.1713438730090855,-0.6976532518912106
1772649506581484000,3.564484130859375,-6.9809642177492375,0.4943135397667065,-1.2447864180997013
1772649506591528200,3.574528076171875,-4.961795309147239,-0.35055246335752305,-1.5739564131453632
1772649506601572000,3.584572021484375,-3.4548791728347537,-1.167332153149694,-1.532892142959684
1772649506611616300,3.5946162109375,-2.5624580396682024,-1.695172078410536,-1.104028724757582
1772649506621660200,3.60466015625,-2.1808424025923014,-1.8158076057001948,-0.4531189577322453
1772649506631704000,3.6147041015625,-2.0825398492723703,-1.582729063796252,0.1445413035340607
1772649506641748200,3.624748291015625,-2.232708198907971,-1.1352327682513743,0.39412732812464235
1772649506651792100,3.634792236328125,-2.349340774166584,-0.6082072281133383,0.47014703022688625
1772649506661836000,3.6448359375,-2.184026293325424,-0.10670951246358454,0.7344000972691923
1772649506671880200,3.654880126953125,-1.5194173059672116,0.33825496304873376,0.8968941138621419
1772649506681924000,3.664924072265625,-0.15709201141893864,0.673962798897922,0.7937172325041144
1772649506691968300,3.67496826171875,2.0085364554286,0.7397207808353007,0.6145325586773455
1772649506702012200,3.68501220703125,4.523424934670329,0.6149347828026861,0.5592157451249659
1772649506712056000,3.69505615234375,6.809874660637974,0.39849801748953756,0.6128711282711475
1772649506722100000,3.705099853515625,8.516435417416691,0.2720060192566365,0.6049447191860526
1772649506732144000,3.71514404296875,9.635604866552352,0.19067732402607798,0.656449500169605
1772649506742188300,3.725188232421875,10.312864661169051,0.16870426940992472,0.7253936378624289
1772649506752232200,3.735232177734375,10.532708020055294,0.32616540640220043,0.7832900926444679
1772649506762277000,3.745277099609375,10.375185216003656,0.41160672458335756,0.8155681220453233
1772649506772321300,3.7553212890625,10.34265189666748,0.45406833087895065,0.8418721916031092
1772649506782365200,3.765365234375,10.457297682023048,0.5464079572064802,0.8452972706809639
1772649506792409000,3.7754091796875,10.513594154262542,0.5854911731101572,0.8157583839204162
1772649506802453000,3.785452880859375,10.591786816489696,0.4972439306627959,0.8274039596591144
1772649506812497200,3.7954970703125,10.65364326094389,0.3980110011575743,0.9703381933227181
1772649506822541300,3.805541259765625,10.73922778698802,0.34292606013230975,1.1266310902532188
1772649506832585200,3.815585205078125,10.787633213716745,0.27328162868302314,1.329058546371013
1772649506842629000,3.825629150390625,10.766105272519589,0.19001560871433465,1.5132121677167714
1772649506852673000,3.835673095703125,10.423874720370769,0.2426175007522106,1.4845032289743423
1772649506862717200,3.84571728515625,9.87022961498499,0.3000358166284859,1.5525135198831557
1772649506872761300,3.85576123046875,9.323640857851505,0.2988972045199945,1.531567177966237
1772649506882805000,3.865804931640625,8.444949559351802,0.217960120689217,1.439176771299541
1772649506892849200,3.87584912109375,7.5161834396064275,0.15767158313887192,1.3354630065858364
1772649506902893000,3.88589306640625,6.780457427495717,0.03634809185136109,1.2184333217684178
1772649506912937200,3.895937255859375,6.034456105086207,-0.28900166905270885,1.123424622362107
1772649506922981000,3.905981201171875,5.2758606740415095,-0.5945938229003921,0.8467362174428998
1772649506933025000,3.91602490234375,4.835638534218073,-0.8180457642052322,0.5894461212810128
1772649506943069200,3.926069091796875,4.370309425666928,-1.0478782368600368,0.3423934145603329
1772649506953113000,3.936113037109375,2.9951632279902696,-1.3332897541999815,0.1405764184910804
1772649506963157200,3.9461572265625,0.7977192346870898,-1.6158099340125918,0.3114545978739858
1772649506973201200,3.956201171875,-1.620852312093973,-1.708475212097913,0.5410763503875583
1772649506983245000,3.9662451171875,-4.086497744739056,-1.5879833310626446,0.7924760733366012
1772649506993289200,3.976289306640625,-6.5514429201602935,-1.1224543160252272,0.7431901374462991
1772649507003333000,3.9863330078125,-8.663707461088896,-0.4626969699492678,0.4465720933720469
1772649507013378000,3.9963779296875,-9.917195948821306,0.008696904833824372,0.2310241666574031
1772649507023422200,4.006422119140625,-10.305347709667682,0.29743266665907575,0.0044580023221671575
1772649507033466000,4.016466064453125,-10.345773243558407,0.44847500438392157,-0.07262728318497538
1772649507043510300,4.02651025390625,-10.558571944630145,0.6021201267519966,-0.15329130396172402
1772649507053554200,4.03655419921875,-10.788016660076378,0.6256641935445368,-0.4446007932990789
1772649507063598000,4.04659814453125,-11.172065077257155,0.5677377454830334,-1.0819107817780227
1772649507073642000,4.05664208984375,-11.462478932929038,0.5545295235374942,-1.573863766425848
1772649507083686100,4.06668603515625,-11.51751049979925,0.6327683995265513,-1.8152911806106566
1772649507093730300,4.076730224609375,-11.693096199285984,0.793374337350577,-1.8016385028332471
1772649507103774000,4.08677392578125,-11.768819841051101,1.0618156498629598,-1.6263805739961563
1772649507113818000,4.096818115234375,-11.481100631290673,1.1919259116582572,-1.3362223005205391
1772649507123862000,4.106862060546875,-10.827243924093246,1.1581485836103558,-1.150490104746446
1772649507133906200,4.11690625,-9.93311481796503,0.897758840932697,-1.1799792340811341
1772649507143950300,4.126950439453125,-8.830732252979278,0.4639756481155753,-1.2976998237721622
1772649507153994000,4.136993896484375,-7.6441779513567685,0.04021397349927574,-1.2364936599202454
1772649507164038100,4.1470380859375,-6.568225712656974,-0.2977507013659924,-1.191372661689669
1772649507174082000,4.15708203125,-5.742215033987164,-0.6169597127590328,-0.9939911638498306
1772649507184126200,4.167126220703125,-5.461942633101343,-0.7310510060369968,-0.8313910565339029
1772649507194170000,4.177170166015625,-6.015638007369637,-0.715801268326491,-0.7061581184513867
1772649507204214000,4.187214111328125,-6.73580463129878,-0.4826781931610778,-0.43416145154498514
1772649507214258200,4.197258056640625,-6.783873957940935,-0.22879982340512797,-0.1510732991186902
1772649507224302000,4.207302001953125,-6.24405864046514,0.21170456742579116,-0.28857443835027513
1772649507234346200,4.21734619140625,-5.936299097716808,0.5677894026050344,-0.626960078573972
1772649507244391200,4.22739111328125,-4.685271447139979,0.8392606208652258,-0.7371282801240682
1772649507254435000,4.23743505859375,-2.708755100828409,0.9564284720443189,-0.5650736773729323
1772649507264479200,4.247479248046875,-0.4371370332896709,0.8070520034387707,-0.11535276458114385
1772649507274523100,4.257523193359375,1.8309429232507943,0.7552217898931354,0.08780665907301008
1772649507284567000,4.267567138671875,3.953635334691405,1.0060971236418932,-0.7477854293473064
1772649507294611200,4.277611083984375,5.632108061105012,0.4755381486807018,-0.5000594264749437
1772649507304655000,4.287655029296875,7.5714476461887354,-0.15407989705614744,0.6552013267394154
1772649507314699300,4.29769921875,9.253268513986468,0.0504703233692795,0.8606383399367332
1772649507324743000,4.307742919921875,10.197987405145168,0.68514945188798,0.8599303377978503
1772649507334787000,4.317787109375,10.679661499297618,1.1446575261354446,0.7529863589912652
1772649507344831200,4.327831298828125,10.673545062243937,1.189580955967307,1.0208363545469938
1772649507354875100,4.337875244140625,10.004994643783569,1.228169922080636,1.3306510762594639
1772649507364919300,4.347919189453125,9.272634308713673,1.3733686666101217,1.4439853406250476
1772649507374963000,4.357962890625,9.259709945210814,1.4248621224820612,1.7689264659292996
1772649507385007000,4.368007080078125,10.348322928041219,1.4015648335248232,1.7318663168184458
1772649507395051300,4.37805126953125,11.466397567677497,1.1071410115592182,1.506827581246197
1772649507405095200,4.38809521484375,11.90446165268421,0.7680519723065197,1.1571278622604906
1772649507415139000,4.39813916015625,11.802715096390246,0.6218547182589769,0.8216495608508586
1772649507425183000,4.408182861328125,11.028927356910705,0.40536534597575663,0.5704092297146096
1772649507435227100,4.41822705078125,9.93311247987747,0.27506124210879207,0.3033365386743098
1772649507445271000,4.42827099609375,9.009098523095249,0.31878567141443487,0.1073877039860934
1772649507455315200,4.438315185546875,7.907212217193841,0.3700046942591667,0.027682664434611797
1772649507465359000,4.448359130859375,6.715560884693264,0.4362019443966448,-0.08520137194544077
1772649507475403000,4.458403076171875,5.996701251709461,0.45441506195738907,-0.05131071971617639
1772649507485447200,4.468447265625,5.828201711091399,0.7013399045147002,-0.1735397998075932
1772649507495492000,4.4784921875,5.584089587867259,0.43926250101104375,-0.3496158400945365
1772649507505536000,4.488535888671875,5.560681824272871,-0.16871259884685277,-0.3261399796999991
1772649507515580200,4.498580078125,5.677939837953448,-0.4897817050233483,-0.06841916397064923
1772649507525624000,4.5086240234375,5.379290653377771,-0.5905307747125625,0.3698968499705195
1772649507535668200,4.518668212890625,4.250359104162454,-0.827454082411155,0.4071250856572762
1772649507545711900,4.5287119140625,2.395930091384053,-1.123171232122928,-0.3142714088603854
1772649507555756000,4.538756103515625,-0.126337392193079,-0.7824797991748899,0.173240634197928
1772649507565800200,4.54880029296875,-2.2576357194155454,-0.7128215949285776,1.475576849066466
1772649507575844000,4.558843994140625,-2.6799106991380452,-0.7634757504321634,2.005947169587761
1772649507585888300,4.56888818359375,-2.9967671560555695,-1.0712844660844654,1.7922724163338541
1772649507595932000,4.578931884765625,-3.534581655102968,-0.8174377883747219,0.6875728065773844
1772649507605976000,4.58897607421875,-5.578583976188302,-0.4983730808231979,-0.22805158058740196
1772649507616020200,4.599020263671875,-8.292278286984562,-0.6485195839531719,-0.7267214524000882
1772649507626064100,4.609064208984375,-10.498906288218498,-0.22683679797016082,-0.5816684730168432
1772649507636108300,4.6191083984375,-11.81242517402172,0.5384441021878272,-0.05794599301218986
1772649507646152000,4.62915185546875,-11.984350597435235,0.9763337074104695,0.250214824013412
1772649507656196000,4.639196044921875,-11.387068594896792,0.8885464106250553,0.553473475145921
1772649507666240000,4.649239990234375,-10.75765308599472,0.5892964836772531,0.25731325784176584
1772649507676284200,4.6592841796875,-10.361810186123847,0.5204253381554037,-1.172353926834464
1772649507686328000,4.669328125,-10.429481454336642,0.4332223440639674,-2.0040467427939177
1772649507696372000,4.6793720703125,-10.26301663441658,-0.5458941989980638,-1.688811165076494
1772649507706415000,4.6894150390625,-9.040698360973597,-0.065559171429649,-1.6734838320851324
1772649507716459000,4.699458984375,-8.520119074365496,0.45058432468809184,-1.321110656106472
1772649507726503200,4.709503173828125,-7.757875057685375,0.06571414279565214,-0.9532312103729694
1772649507736547000,4.719547119140625,-6.927813642320037,-0.21017039839476345,-0.7722011278752237
1772649507746592000,4.729592041015625,-6.819523947992921,-0.6914788010399788,-0.8282059236917644
1772649507756636200,4.73963623046875,-6.678399321034551,-1.503937412762642,-0.9035568596869706
1772649507766680000,4.74968017578125,-6.476690169253945,-2.4455790884330866,-0.11082293913178146
1772649507776724200,4.75972412109375,-6.066144205769896,-3.2610376856893297,1.5119257811680435
1772649507786768100,4.76976806640625,-4.331989339622855,-0.8037510621972381,-0.6318802915804088
1772649507796812000,4.77981201171875,-4.6615158930212255,-0.5098584244988859,-1.5506972642414272
1772649507806856200,4.789856201171875,-4.75531821231246,-0.663026029015705,-1.0889235831495374
1772649507816900000,4.799900146484375,-4.326740917575359,-0.04394252903573215,-0.9384146033827215
1772649507826944000,4.809944091796875,-3.6266602193415163,0.416525768546015,-0.3786155784770846
1772649507836988000,4.81998779296875,-2.2574182772725817,0.7839173576973378,0.3827018248774111
1772649507847032000,4.830031982421875,-0.5661708249598741,0.9697373778853565,0.6388198815852403
1772649507857076200,4.840076171875,1.1775912429660558,1.304529669792205,-0.02443356297817081
1772649507867120000,4.8501201171875,1.9626637620478868,0.4653204503206536,0.6082851521877571
1772649507877164000,4.8601640625,2.386566050711274,0.40061636135037987,1.1776330362811684
1772649507887208000,4.8702080078125,3.030425680029392,0.27908213165532797,1.5476422605849802
1772649507897252000,4.880252197265625,4.348588592246174,0.6292458514235914,1.2197640589155256
1772649507907296300,4.890296142578125,5.947310905596614,1.2894699016958475,0.06813174359770491
1772649507917340200,4.900340087890625,6.433746515062451,0.3190689818678424,0.4701025334980339
1772649507927384000,4.910384033203125,6.857750510534644,0.014497092712298034,0.7365086869210005
1772649507937428000,4.920427978515625,7.397371766743063,0.9890678090382367,-0.11358133446183055
1772649507947472100,4.93047216796875,7.160807574680447,0.7594603773109614,0.6638450903136283
1772649507957516300,4.940516357421875,7.861278733536601,0.9369126743871719,1.1668467807855456
1772649507967560000,4.950559814453125,8.559363874039054,0.32290684299767014,2.185534798192233
1772649507977604000,4.96060400390625,9.6753149456501,0.1600008846029639,2.165653162897378
1772649507987648000,4.97064794921875,10.64213285589218,0.283187630745396,1.1967955635212362
1772649507997693200,4.980693115234375,11.16933419098854,0.14388050153777002,0.4542584831561893
1772649508007737000,4.990737060546875,11.113567295581102,-0.26857589867748316,0.3697133100971579
1772649508017781000,5.000781005859375,11.292179649412631,-0.41241190348640083,0.19742703574830664
1772649508027825200,5.0108251953125,11.134269891870021,-0.4208675240773707,0.18448442420270292
1772649508037869000,5.020869140625,10.512070890218018,-0.3356846376366913,0.15888541590804234
1772649508047914000,5.0309140625,9.541206334933637,0.13343889476135373,-0.2732135501491837
1772649508057958100,5.040958251953125,8.301528930410742,0.2626435129538178,-0.5973749049862846
1772649508068002000,5.051001953125,7.397406838056445,0.387302523605898,-0.7983339325193315
1772649508078046200,5.061046142578125,7.011181076836586,0.5973907966751605,-0.860079244749248
1772649508088090000,5.071090087890625,6.539786384636163,0.4007811599906534,-0.588303198323585
1772649508098134000,5.081134033203125,5.917102229815721,-0.0409110523853451,-0.356960540301539
1772649508108178200,5.09117822265625,5.4214107162266965,-0.4687338024280965,-0.22184753831550477
1772649508118222000,5.10122216796875,4.848105217081308,-0.9084996498513966,0.09049300294700079
1772649508128266000,5.111265869140625,3.8349358900308608,-1.3847589524134993,0.7597964773975312
1772649508138310100,5.12131005859375,2.2230875531256196,-1.3473876915268599,1.0931912505313754
1772649508148354000,5.13135400390625,-0.26898879032731055,-0.9774725752472877,0.7867993428744375
1772649508158398200,5.141398193359375,-3.291742620554566,-0.3865054549440741,0.4982505869546905
1772649508168442000,5.151442138671875,-5.159316946110129,0.3871569045901298,-0.10219839171469211
1772649508178486000,5.161486083984375,-5.757189315757155,0.6943268108822405,-0.7916128075707703
1772649508188530200,5.1715302734375,-6.230725696161389,0.7183413812633603,-0.9864620835192501
1772649508198574000,5.181573974609375,-6.743689831590652,0.6761287447601556,-0.5073105666469783
1772649508208618200,5.1916181640625,-7.015898168486356,0.19098624384477733,0.04898585696518421
1772649508218662100,5.201662109375,-7.661836942166089,-0.7034596731476486,0.12350699107274413
1772649508228706000,5.2117060546875,-8.288563065853715,-1.140479728994146,-0.5347277120131999
1772649508238751200,5.221751220703125,-9.168871736422181,-1.3228268123745917,-1.0150725303232668
1772649508248795100,5.231795166015625,-10.081821862876415,-1.5929001830682157,-0.8603989051576704
1772649508258839000,5.241839111328125,-10.53010572860241,-1.519262553796917,-0.8560589031919836
1772649508268883000,5.251883056640625,-11.140528952264786,-1.314516518538445,-1.1974223901826888
1772649508278927000,5.261927001953125,-12.422888145172596,-0.9230030261740088,-1.6320222331449388
1772649508288971300,5.27197119140625,-13.714662816679477,-0.24389533866830168,-1.9220988196864723
1772649508299015200,5.28201513671875,-14.299378767633437,0.2779131974738091,-1.8446485002592206
1772649508309059000,5.29205908203125,-13.886383657431601,0.6301733415320515,-1.4419159870050846
1772649508319103000,5.30210302734375,-12.457092028069495,0.5649382144249976,-0.911841434559971
1772649508329147100,5.312147216796875,-11.076720204699038,0.2326693765811622,-0.6375231928382068
1772649508339191300,5.32219140625,-10.128650249546766,-0.11924421906173228,-0.7572648400280624
1772649508349235000,5.33223486328125,-8.957188887637853,-0.4373305831003934,-0.7628204283285885
1772649508359279000,5.342279052734375,-7.247754621249437,-0.7146212647616863,-0.7230146337714046
1772649508369323000,5.352322998046875,-5.33443853521645,-0.6585439882308244,-0.7994136175148189
1772649508379367200,5.3623671875,-3.625101299461722,-0.18802359464690088,-0.6372182916074991
1772649508389411000,5.3724111328125,-1.9251707744777202,0.44671683560498054,-0.13980565331429243
1772649508399455000,5.382455078125,-0.11113982306122779,1.005326285399869,0.43251620508860794
1772649508409499100,5.3924990234375,1.7302642884492874,1.4497089789688586,1.0117181783940643
1772649508419543000,5.40254296875,3.618393326255679,1.4357421206757426,1.4980708588168024
1772649508429587200,5.412587158203125,5.209125809895992,1.0643629231929779,1.2902433702863751
1772649508439631000,5.422631103515625,6.256949101698398,0.675920581902191,0.698011052352935
1772649508449675000,5.432675048828125,6.780323571982979,0.27788112183511254,0.26653613647818564
1772649508459719200,5.44271923828125,7.106768525978922,0.1810507599595934,0.21141206901893017
1772649508469763000,5.45276318359375,7.536373410198092,0.31620391129292547,0.5208781234242021
1772649508479808000,5.46280810546875,7.939151077768206,0.43615642475448546,0.6982422307603061
1772649508489852200,5.47285205078125,8.065600113642216,0.4373556444764137,1.0115006631858647
1772649508499896000,5.48289599609375,8.48808961289823,0.26905915214978154,1.5152514184594152
1772649508509940200,5.492940185546875,9.157529089152812,0.13446458454728125,1.9255130120441317
1772649508519983900,5.50298388671875,9.922831908881664,-0.038093949138000606,1.9680375640407204
1772649508530027800,5.51302783203125,10.911970372003315,-0.4494296747602522,1.582697499614209
1772649508540071700,5.52307177734375,10.931431443798541,-1.4022715204894542,1.9112050852283835
1772649508550115800,5.53311572265625,10.400617763423918,-0.8585344264600425,1.3529507324814796
1772649508560160000,5.543159912109375,9.42251624262333,-0.5513572136443108,1.0899883628368376
1772649508570204000,5.553203857421875,8.397406886932254,-0.055753305273503063,0.9336283920194953
1772649508580247800,5.563247802734375,7.292401572227478,0.5302653988420963,0.6140601188600063
1772649508590291700,5.573291748046875,6.37263241340816,1.068581856062263,0.5693493088655174
1772649508600336000,5.5833359375,6.054827861985564,1.486031169193983,0.7248502517007291
1772649508610380000,5.593380126953125,6.347848685285449,1.6773394845999776,0.7815037937495857
1772649508620423700,5.603423583984375,6.857566970661282,1.779791266553849,0.635736674747616
1772649508630467800,5.6134677734375,7.199583587798476,1.866836512800306,0.494518889613077
1772649508640511700,5.62351171875,7.176274023881554,1.8613418609067796,0.5781199136897921
1772649508650556000,5.633555908203125,6.733499861487746,1.6773796704798936,0.6728715695951134
1772649508660600000,5.64360009765625,5.980842003798484,1.452093536017835,0.741545950435847
1772649508670643700,5.653643798828125,5.3463499222844835,1.0037105938315392,0.90080967987068
1772649508680687900,5.66368798828125,4.422966080099344,0.4243067778110504,0.8319252364758402
1772649508690731800,5.673731689453125,3.0947260105043646,-0.16865633861497042,0.585127892755717
1772649508700776000,5.68377587890625,1.3386334533154964,-0.7393838039658963,0.1313702717937529
1772649508710819800,5.69381982421875,-0.626181349286437,-1.049301693791896,-0.0077052406150847665
1772649508720864800,5.70386474609375,-2.3688883552014826,-0.8332707328006624,0.1609904070969671
1772649508730909000,5.713908935546875,-3.451577208679914,-0.2371128389213234,0.5975080663792789
1772649508740952800,5.723952880859375,-4.403250156760215,0.44685244468338786,1.0613133994292467
1772649508750996700,5.733996826171875,-5.950929096093773,0.8479109603106975,1.4333371053606272
1772649508761041000,5.744041015625,-8.382388181498646,0.7815346272792667,1.477282337810099
1772649508771084800,5.754084716796875,-10.66097316544056,0.5856806312676519,0.8674263926416635
1772649508781129000,5.76412890625,-12.281237448513506,0.5439991790316998,0.0020047274185344575
1772649508791172900,5.7741728515625,-13.332135325455665,0.5604098502803594,0.07410009568389504
1772649508801216800,5.784216796875,-13.268663262498379,0.24432583904005586,0.20872871168646961
1772649508811261000,5.794260986328125,-12.823231863594055,-0.06634009267427027,-0.12999635309204458
1772649508821304800,5.804304931640625,-12.878006240832805,-0.17823533721268175,-0.5834877608658745
1772649508831349000,5.814348876953125,-13.223418930149078,-0.3483925819098949,-1.1162035850673913
1772649508841392600,5.824392578125,-13.814064271152018,-0.36269729385524985,-1.8163363057494162
1772649508851436800,5.834436767578125,-14.159483974730968,-0.23751082526296377,-2.3114583488874136
1772649508861481000,5.84448095703125,-13.909918846797943,-0.1529757352065295,-2.4082434833817183
1772649508871524900,5.85452490234375,-13.116446748161316,-0.17655849004164337,-2.1500115032598375
1772649508881569000,5.864569091796875,-11.740154887580871,-0.28170104544945057,-1.8050336982294917
1772649508891612700,5.87461279296875,-10.047239209794997,-0.5035842396002262,-1.569193728788197
1772649508901656800,5.88465673828125,-8.247711415505409,-0.7119943503241986,-1.29706970917508
1772649508911700700,5.89470068359375,-6.419842492872476,-0.9038056468162685,-0.9150096893325448
1772649508921745000,5.904744873046875,-4.774765840104222,-1.1148279858652501,-0.6399878293860704
1772649508931788800,5.914788818359375,-4.026079808655381,-0.8719258229527622,-0.43344943081811066
1772649508941832700,5.924832763671875,-3.8926375528931616,-0.17552600518874822,-0.35692612657528366
1772649508951876900,5.934876953125,-3.6388615292668343,0.7389271462395787,-0.46075836656950414
1772649508961920800,5.944920654296875,-2.6425655956059693,1.549632265358418,-0.43947559577245265
1772649508971965700,5.954965576171875,-0.7340338212400674,2.007372380085289,-0.37609351265355945
1772649508982009900,5.965009765625,1.554749316111207,2.1406059615328905,-0.13137341359890997
1772649508992053800,5.9750537109375,3.50427185703516,2.10887007618472,0.22776065308311952
1772649509002098000,5.985097900390625,5.012991827899217,1.9581633818887172,0.39423992165364324
1772649509012141800,5.995141845703125,6.072713062766194,1.8062658703729508,0.35977212712354956
1772649509022185700,6.005185791015625,7.005355731683969,1.6884771108165382,0.3424725442111492
1772649509032230000,6.01522998046875,7.93395876982212,1.5519596853926776,0.42869777931161224
1772649509042273800,6.025273681640625,8.647768718200922,1.5839854935981332,0.6998469625432043
1772649509052318000,6.03531787109375,9.018121202984451,1.7747091409839688,0.9313635888926685
1772649509062361900,6.04536181640625,9.054968293866514,1.9996867940187453,1.0152832504644989
1772649509072405800,6.05540576171875,8.867112310871482,2.075275265096873,1.0630347433291376
1772649509082450000,6.065449951171875,8.832161408999562,2.0664295492097735,0.9206317669980227
1772649509092493800,6.075493896484375,8.96030965000689,1.8830838832460344,0.8436494304087012
1772649509102538000,6.0855380859375,9.156385764336585,1.6272941817097364,0.9308364232134073
1772649509112581600,6.09558154296875,9.476873855754732,1.3526865285873413,1.167795825138688
1772649509122625800,6.105625732421875,9.781200501444935,1.180185789503902,1.2877590061247348
1772649509132670000,6.115669921875,9.908290173310041,1.0888121586643158,1.393443924780935
1772649509142713900,6.1257138671875,9.816430220258235,1.0760026537127791,1.3961802178770304
1772649509152757800,6.1357578125,9.629047115471959,1.143658432095498,1.277921941112727
1772649509162801700,6.1458017578125,9.421053768855332,1.152482228411734,1.204902224544063
1772649509172845800,6.155845703125,9.111182933041453,1.1565260969750581,0.6723142279732972
1772649509182890000,6.165889892578125,8.598117675325273,1.2147973764188587,0.08754658336471766
1772649509192934000,6.175933837890625,8.060098593616486,1.3383216108873486,-0.14462247901149095
1772649509202977800,6.185977783203125,7.603487044528126,1.4629473768569528,-0.1746098036592826
1772649509213021700,6.196021728515625,7.236164136698842,1.6218717182695865,-0.0727638055788353
1772649509223067000,6.20606689453125,6.882482216209173,1.7071804961122572,0.07103241520896554
1772649509233110800,6.21611083984375,6.5596081064373255,1.6072246226273477,0.2916027001302689
1772649509243154700,6.22615478515625,6.594793986108899,1.3868994715735314,0.4778345159895718
1772649509253198800,6.23619873046875,6.971926340290904,1.1047037014096974,0.48621425833273674
1772649509263242800,6.24624267578125,7.325966572698951,0.6119089321754873,0.4283117756687104
1772649509273287000,6.256286865234375,7.215798809540272,-0.09548223520219326,0.3171783458156511
1772649509283330800,6.266330810546875,6.292497384941577,-0.8161705449178814,0.26001623319014905
1772649509293374700,6.276374755859375,4.677697797015309,-1.6441327960468828,0.4714482124859467
1772649509303419000,6.2864189453125,2.9809143378853795,-2.5218343528568745,0.8359014466304332
1772649509313462800,6.296462890625,1.411969907683134,-3.2869133007019755,1.048169109565392
1772649509323507000,6.3065068359375,-0.39558278762996196,-3.431495374637842,0.33122444335743784
1772649509333550800,6.31655078125,-2.884569348374009,-2.672025791107118,-0.8428212359562516
1772649509343594800,6.3265947265625,-6.031860827895999,-1.2558654459968208,-1.8174178173758089
1772649509353639000,6.336638916015625,-9.394434057477117,-0.20380100949332117,-1.971489311929792
1772649509363682800,6.346682861328125,-12.477657846236228,0.6539201278224587,-1.900360012217611
1772649509373726700,6.356726806640625,-15.550388882553577,1.5793825298473239,-2.177192501782626
1772649509383771000,6.36677099609375,-17.701826911485195,1.751005755443871,-2.0688255044355985
1772649509393814800,6.376814697265625,-17.656837430679797,1.4473502870135009,-2.1312050959810613
1772649509403859000,6.38685888671875,-15.820526842916012,0.7446478619739413,-2.1532797112755477
1772649509413902800,6.39690283203125,-13.767877689516544,-0.17323840570822358,-2.0477816934935746
1772649509423946800,6.40694677734375,-12.043137132924794,-0.9665502722818404,-2.097250803931057
1772649509433991000,6.416990966796875,-10.641514431732892,-1.5292664998084307,-1.9506975760526954
1772649509444034800,6.427034912109375,-9.633586512467264,-1.7857725329205392,-1.6643857488721607
1772649509454079000,6.437078857421875,-8.962965132951735,-1.8949995080977677,-1.1985794512633234
1772649509464123000,6.447122802734375,-8.482012923333048,-1.9692709052279591,-0.7816260318897664
1772649509474167800,6.457167724609375,-7.897880325224995,-2.073943431971222,-0.5648542259359732
1772649509484212000,6.4672119140625,-7.379550863370299,-2.1770925485394894,-0.5294268291261047
1772649509494255900,6.477255859375,-7.075474977570772,-2.1768545019999146,-0.6067631667848676
1772649509504299800,6.4872998046875,-7.215057635784149,-2.1011057257935404,-0.6633551148395985
1772649509514343700,6.49734375,-7.642715477588772,-1.8137451202124357,-0.7789752251200377
1772649509524387600,6.5073876953125,-7.9311238386571405,-1.3509271176993847,-0.7888981417845934
1772649509534431700,6.517431640625,-7.087672780364751,-0.9266220934540033,-0.6440437537133693
1772649509544476000,6.527475830078125,-5.442011605706811,-0.646079058933258,-0.33035237323064354
1772649509554519600,6.53751953125,-4.260872899392247,-0.25885698015242814,-0.4842877107169479
1772649509564563700,6.547563720703125,-3.57821972129941,0.3456832864185795,-0.6887097016528249
1772649509574607600,6.557607666015625,-2.660017081144452,0.7471337605055421,-0.5298898800605908
1772649509584651800,6.56765185546875,-1.4160703287392853,1.0762916997872292,-0.5591994881099089
1772649509594695700,6.57769580078125,-0.12184417242705821,1.2666571813851595,-0.46993711380325254
1772649509604739600,6.587739501953125,1.1054974821358918,1.2989460244409738,-0.14599744802596978
1772649509614783700,6.59778369140625,2.61029998729527,1.0932869659908115,0.3667485785400495
1772649509624827600,6.60782763671875,4.263243720176816,0.7043210392173379,0.7244118602834642
1772649509634871800,6.617871826171875,5.961905248138308,0.3509435815669596,0.686208532486856
1772649509644915700,6.627915771484375,7.6930328754186625,-0.011916437702486292,0.4007616515725851
1772649509654959600,6.637959716796875,8.943397093650699,-0.3480427455589175,0.1633276178728789
1772649509665003800,6.648003662109375,9.596360651400685,-0.4654400215797126,0.06685014282194897
1772649509675047700,6.658047607421875,9.447053302508593,-0.33080541422776877,0.10873383963173254
1772649509685091800,6.668091796875,8.632541338452697,0.0954166134869214,0.10547343132998793
1772649509695135700,6.6781357421875,7.858283643373847,0.5913215232314541,0.37694340748116373
1772649509705179600,6.6881796875,7.4004253090947865,1.003049645704776,0.7959802820652723
1772649509715223800,6.698223876953125,7.167624853479862,1.206522373091802,1.1085438640944658
1772649509725267700,6.708267822265625,7.375183315810561,1.2192932995986192,1.1587914115585387
1772649509735312600,6.718312744140625,7.939725662785768,0.8921243421770632,1.0952879305496812
1772649509745356800,6.728356689453125,8.717768721622228,0.35326080900076773,0.6808721398949623
1772649509755400700,6.738400634765625,9.522350827816128,-0.07782543634995817,0.2003263008537702
1772649509765444900,6.74844482421875,10.027627331352233,-0.37589243712350723,-0.042847518606949596
1772649509775488500,6.758488525390625,10.060317302554845,-0.503648975399509,-0.30571669354280456
1772649509785532700,6.76853271484375,9.682890933862328,-0.5090109773566946,-0.4664047018934041
1772649509795576800,6.778576904296875,9.071178839433193,-0.3488650947924703,-0.5166852017790079
1772649509805620700,6.788620849609375,8.34125888325274,-0.14373152152113616,-0.4893810883332044
1772649509815665000,6.798664794921875,7.571082904529571,-0.012875811653397977,-0.49159828945863987
1772649509825708500,6.80870849609375,6.887564634039998,0.08676748875100165,-0.501883207836002
1772649509835752700,6.818752685546875,6.278417421662807,0.15316055372152476,-0.7037730499457567
1772649509845796900,6.828796875,5.675895180383324,0.05605108264368027,-0.5740788946706802
1772649509855840800,6.8388408203125,5.497592623153329,-0.1100367937227711,-0.24082692754101007
1772649509865884700,6.848884765625,5.665009629231691,-0.4131307923454791,0.020665406083688137
1772649509875928600,6.858928466796875,5.9161769316643475,-0.7756377512603998,0.24506368832793085
1772649509885972700,6.86897265625,5.572479229572415,-1.1434244772091506,0.3399991398349404
1772649509896016600,6.8790166015625,4.250644935366511,-1.4779492772862315,0.16170714053157717
1772649509906060800,6.889060791015625,2.1263953576117753,-1.6998612591400741,-0.03635517917927354
1772649509916104700,6.899104736328125,-0.3656061670392751,-1.8727561121076344,0.14754446740541607
1772649509926148600,6.909148681640625,-2.1524942599862813,-2.277462555783242,1.0128037816736846
1772649509936192800,6.91919287109375,-2.7124305744707584,-2.364521099902689,1.585327701987326
1772649509946236700,6.929236572265625,-2.7833190511643884,-1.3007640336483717,1.0472709916818885
1772649509956280800,6.93928076171875,-3.835360252922773,-0.25157756373398005,-0.1341235068914946
1772649509966324700,6.94932470703125,-6.900477891626954,0.18107954766266046,-0.6553268528152257
1772649509976369700,6.95936962890625,-10.002048653459548,0.8958271422177553,-1.0544324077438563
1772649509986413800,6.969413818359375,-12.722894005054235,1.4406177638880908,-0.8490908177450299
1772649509996457700,6.979457763671875,-13.978920486831663,1.9283909055680035,-0.05305196475978009
1772649510006501600,6.989501708984375,-14.030826030635833,2.1401751689001918,0.7865742288816719
1772649510016545800,6.9995458984375,-13.261705113923549,1.8278017026156186,1.0807774668991565
1772649510026589700,7.009589599609375,-12.655345486438273,1.190745835028216,0.6255413708824664
1772649510036633900,7.0196337890625,-12.269051336157322,0.7663228104263544,-0.0642985221103765
1772649510046677800,7.029677734375,-11.723881798171996,0.311226999663189,-0.2218430448034778
1772649510056721700,7.0397216796875,-10.834440557599066,0.08540705058537423,-0.2288798298387788
1772649510066765800,7.049765869140625,-9.989210214674472,0.062394058462232345,0.08567246918906457
1772649510076809700,7.059809814453125,-9.16478651293516,-0.0031921471048146485,0.6790682322781533
1772649510086853600,7.069853515625,-8.330134262648224,-0.19132607025839388,0.9944675491899251
1772649510096897500,7.0798974609375,-7.64775580984354,-0.34682189852707085,0.7891103962957858
1772649510106941700,7.089941650390625,-7.236915247327089,-0.4266562635466456,0.527647982885316
1772649510116985900,7.09998583984375,-7.0428539799511425,-0.467049283407256,0.36589981622360646
1772649510127029800,7.11002978515625,-6.841431828418374,-0.6164841311365366,0.3171046229923144
1772649510137073700,7.12007373046875,-6.408320397382974,-0.8084939458753914,0.2600471397850662
1772649510147117600,7.13011767578125,-5.736223100095987,-0.97999778287597,0.08136084393449128
1772649510157161700,7.14016162109375,-5.170366747912764,-1.0289861971244216,-0.3091651717625558
1772649510167206000,7.150205810546875,-4.574565923842788,-0.8968887800998985,-0.5263619981953874
1772649510177249800,7.160249755859375,-3.5414345897376536,-0.6244190157890319,-0.6233659996047616
1772649510187293700,7.170293701171875,-2.393144260057807,-0.26046741102375087,-0.7593859238352626
1772649510197337600,7.180337646484375,-1.8159113583356141,0.205700851765275,-1.0464681508664042
1772649510207381800,7.1903818359375,-1.7554466605007648,0.6790818954773247,-1.1404464112464339
1772649510217426000,7.200426025390625,-1.616924909517169,1.1257157289739697,-0.9706584382530301
1772649510227469600,7.210469482421875,-0.8537246150255203,1.3635399310350418,-0.3167775464624166
1772649510237514800,7.2205146484375,0.5539455496370792,1.3807269204184411,0.36464693008568133
1772649510247559000,7.230558837890625,2.545281279417872,1.227095278586447,0.7521640097577125
1772649510257602800,7.240602783203125,4.832341830760241,0.9085267570540309,0.9775194100636988
1772649510267646700,7.250646728515625,6.6653738352447744,0.7886492085248231,1.1300185407344252
1772649510277690600,7.260690673828125,7.801078824117779,0.7685232430800795,1.2289517201080917
1772649510287734800,7.27073486328125,8.250617073819042,0.854915359180048,1.405691411935538
1772649510297778700,7.28077880859375,7.979781194320321,1.1255971440955996,1.3868804746121168
1772649510307822600,7.290822509765625,7.345813428941368,1.4273518934711813,1.202078618490696
1772649510317866800,7.30086669921875,6.817469353550672,1.6696493684887885,0.9887598390676081
1772649510327910700,7.31091064453125,6.748719642451405,1.6835343937173486,0.9126520202904939
1772649510337954800,7.320954833984375,7.253315762507915,1.438683288694173,0.8904606467485428
1772649510347998700,7.330998779296875,8.205634022754431,1.0294037649493664,0.8600592248745262
1772649510358042600,7.341042724609375,9.455067097616196,0.6714788731276988,0.7272321053359657
1772649510368086800,7.351086669921875,10.572539679706097,0.35829825517870484,0.6714339380074292
1772649510378130700,7.361130615234375,11.080191095679998,0.13664777380526066,0.5624017182173207
1772649510388174800,7.3711748046875,10.944903504312038,-0.000566109450161457,0.3348560778580606
1772649510398218800,7.38121875,10.207553690391778,-0.08084113090932368,0.35898671236690133
1772649510408262700,7.3912626953125,9.150604258325695,0.061151949446648354,0.32729660238921643
1772649510418306800,7.401306884765625,8.181686745455861,0.44312282970100636,0.1023211413115263
1772649510428350700,7.411350830078125,7.354100780293345,0.7282585988394915,-0.15877552579278126
1772649510438395000,7.421394775390625,6.91456545369029,0.9138631496459245,-0.402965810553357
1772649510448438500,7.4314384765625,6.9348051086425775,0.9431668394111097,-0.681052611028403
1772649510458482700,7.441482666015625,6.790563810968399,1.1097712139323352,-1.2785605312772095
1772649510468526600,7.451526611328125,6.619288375896215,1.3465423267439007,-1.6169314853884278
1772649510478570800,7.46157080078125,6.92980218578875,0.9912674379743635,-0.9829930922344327
1772649510488615000,7.471614990234375,7.373104755970835,0.6035217737108469,0.26505780755393205
1772649510498659600,7.48165966796875,6.113886200153828,0.1296177290380001,1.9890126936607062
1772649510508703700,7.491703857421875,5.651206144806743,-1.0112263762891291,2.7735218797713515
1772649510518748200,7.501748046875,4.791932078960538,-0.929868674159795,0.2598220257923007
1772649510528791800,7.511791748046875,2.0286855094879863,-1.935854811707884,-0.237745547334291
1772649510538836000,7.5218359375,-1.4471949503213166,-3.308876710706949,-0.38739378208592534
1772649510548880000,7.5318798828125,-4.137734010979533,-5.202433034259081,0.20124584511779248
1772649510558924000,7.541924072265625,-4.2712084154456855,-4.5012323920845985,-1.3145021977521478
1772649510568968000,7.551968017578125,-3.517111464864015,-3.068085256338119,-2.7712837454557415
