time,seconds_elapsed,z,y,x
1772649168560952600,0.06895263671875,-0.08916530714035034,-0.27532091595828534,2.583808870732784
1772649168570997800,0.078997802734375,-0.05532616590261459,-0.25404504982605575,2.631851309368014
1772649168581042000,0.0890419921875,-0.15440613333582878,-0.24088687756732105,2.599268305671215
1772649168591085600,0.09908544921875,-0.36530806087553497,-0.1439586813405156,2.473794252309203
1772649168601129700,0.109129638671875,-0.6092652857989073,-0.023103812211751937,2.3266027265273035
1772649168611173600,0.119173583984375,-0.8099637992322445,0.021892828986793754,2.304378327498585
1772649168621217800,0.1292177734375,-1.002849008566141,-0.0545208408690989,2.4615344901949165
1772649168631262000,0.139261962890625,-1.051003675404191,-0.11507716251015662,2.61777836035192
1772649168641305600,0.1493056640625,-1.1243892296105622,-0.08098200068473815,2.7309967432528732
1772649168651349800,0.159349853515625,-1.0143757802307605,0.07419862415492534,2.4943401967316863
1772649168661395000,0.16939501953125,-0.7738362547963857,0.20198285415545106,2.0897458351284266
1772649168671438600,0.1794384765625,-0.5897463463366032,0.14428440616354346,1.7503820705875752
1772649168681482800,0.189482666015625,-0.48793607715666293,0.03962693085893988,1.285015260374546
1772649168691526700,0.199526611328125,-0.5194523284047842,-0.05055515210852027,0.6301913886453956
1772649168701570800,0.20957080078125,-0.7781699000865221,-0.11218524046093224,0.06919577436633408
1772649168711614700,0.21961474609375,-1.1492343325316905,-0.04237856765463948,-0.37387207374442366
1772649168721658600,0.22965869140625,-1.540095936858654,0.15679975047409533,-0.766230163706839
1772649168731702800,0.239702880859375,-1.8378958111286163,0.4859906421773135,-1.089053420074284
1772649168741746700,0.24974658203125,-1.9555735115259885,0.8855221674330532,-1.323124626277387
1772649168751791600,0.25979150390625,-1.8893214624613521,1.2973942649543284,-1.4151831706412135
1772649168761835800,0.269835693359375,-1.6344705030798912,1.695456302179396,-1.3607573145791887
1772649168771879700,0.279879638671875,-1.3040057920485735,1.938043115532398,-1.3299997727438806
1772649168781923800,0.289923828125,-1.0508183819651602,2.0286977844476697,-1.2107939859963952
1772649168791967700,0.2999677734375,-0.9648182608574628,2.018296801942587,-1.0186761077731847
1772649168802011600,0.31001171875,-0.7045709953904151,2.0377089200295506,-0.9080924572899937
1772649168812055800,0.320055908203125,-0.36479660422205923,2.0074116891823706,-0.8402442250750959
1772649168822099700,0.330099609375,-0.01727262184023857,1.898901630102843,-0.7836581222392618
1772649168832144000,0.340143798828125,0.24409634113311765,1.8074853291653095,-0.7703763966660946
1772649168842188800,0.350188720703125,0.35335926440656185,1.6816235916599631,-0.8312365966245532
1772649168852232700,0.360232666015625,0.4224053281038999,1.555373147097975,-0.8885470682121813
1772649168862276900,0.37027685546875,0.5471627576291561,1.5171363554231823,-0.8714992681037634
1772649168872320800,0.38032080078125,0.5634808552235364,1.5711745273418725,-0.7012064873933792
1772649168882364700,0.39036474609375,0.565697362229228,1.6851391985654829,-0.3888847878286615
1772649168892408600,0.40040869140625,0.6574678834319114,1.6869861416064202,-0.05132208136040717
1772649168902452700,0.41045263671875,0.6842828251212835,1.6582909391283989,0.25959417185317724
1772649168912497000,0.420496826171875,0.5495119511038065,1.5748901868641376,0.3739018478281796
1772649168922541600,0.43054150390625,0.2766390128195286,1.5007126054972408,0.3436538264175877
1772649168932585700,0.440585693359375,-0.036247955945134164,1.384940446460247,0.2145000616295263
1772649168942630000,0.4506298828125,-0.3338701355606317,1.2677693804107606,0.04556158160492778
1772649168952673800,0.460673828125,-0.5499520960867404,1.1773762850411236,-0.12095135177318006
1772649168962717700,0.4707177734375,-0.7453910815566778,1.1386170769274233,-0.2805283484082669
1772649168972761600,0.48076171875,-0.8333283082067966,1.1520914755284786,-0.36218770036529746
1772649168982805800,0.4908056640625,-0.9016045565754175,1.1597200707107782,-0.3792479946291074
1772649168992850000,0.500849853515625,-0.9748854813635349,1.1828406879268587,-0.340995384330675
1772649169002893600,0.5108935546875,-0.7547223890036344,1.1231143873691558,-0.15327994231749326
1772649169012938800,0.520938720703125,-0.44460839208364483,1.0665922896802424,-0.04224946138225496
1772649169022983000,0.53098291015625,-0.15077625240087508,0.9106310358569025,-0.025741174978017804
1772649169033026800,0.54102685546875,0.06715221277475357,0.6968249113082885,-0.011852697417046873
1772649169043070700,0.55107080078125,0.2159656406700611,0.5037289818331598,0.11320700299041345
1772649169053114600,0.561114501953125,0.3373299206256866,0.3858504981666803,0.22405679359650238
1772649169063158800,0.57115869140625,0.45027708536982536,0.38887013824880123,0.2724651612009853
1772649169073202700,0.58120263671875,0.4598030386060476,0.4813277649328112,0.3337956820849329
1772649169083246600,0.59124658203125,0.4976186822593212,0.7299050508722662,0.5017129658356309
1772649169093290800,0.601290771484375,0.8307938212931155,0.8593941850945352,0.7697663750089705
1772649169103335700,0.611335693359375,1.1733972984075545,0.8027364783272146,1.0696101761966943
1772649169113379800,0.6213798828125,1.352134739923477,0.6667199881628155,1.2148760676782577
1772649169123423700,0.631423828125,1.092727432411909,0.5217366399496793,1.0646491197232157
1772649169133467600,0.641467529296875,0.6069359660685062,0.7865858462542294,1.2538124589897692
1772649169143511800,0.65151171875,0.5431272185027599,1.1834119119435549,0.49906336464229967
1772649169153555700,0.6615556640625,0.24930033951699732,0.8862839455857873,-0.40388453283347187
1772649169163599600,0.671599609375,0.08723930751383305,0.2579278826087713,-0.378818115311861
1772649169173643800,0.681643798828125,0.38367841482460496,-0.12761866417527198,0.06476277862126008
1772649169183689200,0.691689208984375,0.7050310141175985,-0.3594932371169329,-0.07991106525128706
1772649169193733000,0.701733154296875,0.5611082808732986,-0.6052946286022662,-0.3688442721776664
1772649169203777000,0.711777099609375,0.20272621986865996,-0.5411369214683771,-0.4169556113306433
1772649169213821200,0.7218212890625,0.18735913938879967,-0.11314882479608059,-0.3955020870765671
1772649169223865000,0.731864990234375,0.32488135794103146,0.2331412318766117,-0.21200776988975703
1772649169233909200,0.7419091796875,0.4823731823325157,0.41887335458546876,0.08528159757480025
1772649169243953200,0.751953125,0.7730717001646756,0.5103378785789012,0.43538262737039474
1772649169253997000,0.7619970703125,0.8346931668192148,0.4678454752862453,0.6499374879270792
1772649169264042200,0.772042236328125,0.7399515208512544,0.47695115728378296,0.6472916495934128
1772649169274086100,0.782086181640625,0.4715244560599327,0.5450196081206202,0.5613359521493315
1772649169284130000,0.792130126953125,0.31857553579509257,0.6274971080601215,0.48760808731131255
1772649169294174200,0.80217431640625,0.3347486719608307,0.6214508136332034,0.45029001791663464
1772649169304218000,0.812218017578125,0.4168044393569231,0.521091912305355,0.4175079114511609
1772649169314262300,0.82226220703125,0.19833353786766528,0.45692748316973447,0.3580596971824765
1772649169324306200,0.83230615234375,-0.2791770068645477,0.4959384740874171,0.1668414712127298
1772649169334350000,0.84235009765625,-0.31922377057075496,0.5862775011822581,0.11231668482087552
1772649169344394200,0.852394287109375,-0.08845569756627082,0.4374944684252143,0.34723157530650495
1772649169354439000,0.86243896484375,0.1020031614035368,0.3323132615074515,0.612487608846277
1772649169364483000,0.872483154296875,0.4210252719223499,0.30766397341936824,0.12050357147306204
1772649169374527200,0.88252734375,0.33655426007807254,0.34378771846294404,0.3905272578060627
1772649169384571100,0.892571044921875,0.5033388134717941,0.4626578435152769,0.2192971231803298
1772649169394615300,0.902615234375,0.548473840227723,0.3303197496026754,0.2563520846594125
1772649169404659000,0.912658935546875,0.5419266105413436,0.1295028704866767,0.3065152417756617
1772649169414703000,0.922703125,0.48605567023754115,-0.05851122567951679,0.22803528703972695
1772649169424747300,0.932747314453125,0.5167565134495496,-0.044617724883556364,0.15896489261873065
1772649169434791200,0.942791259765625,0.4605617480188608,0.04006839101612568,0.14665215820819139
1772649169444836000,0.952836181640625,0.22032208231389522,0.1959837598711252,0.11372041413895785
1772649169454880300,0.96288037109375,-0.06510112546384335,0.43318946470767256,0.12649221742860972
1772649169464924200,0.972924072265625,-0.2378168224722147,0.7953928375661372,0.2620309340134263
1772649169474968300,0.98296826171875,-0.26918285159468647,0.9739616445168853,0.34914391173385084
1772649169485012000,0.993011962890625,-0.24058862527310848,1.0803989889755845,0.4522705242093652
1772649169495056100,1.00305615234375,-0.20432138010561465,1.0786807868808508,0.42629612499736247
1772649169505100300,1.013100341796875,-0.23332301818430423,0.9808940741285681,0.331708646677807
1772649169515144200,1.023144287109375,-0.5707768574506044,0.7826824090749025,0.14277823938429354
1772649169525189000,1.033189208984375,-0.8691156609028577,0.6524731438845396,-0.13488931276537477
1772649169535233000,1.04323291015625,-0.8897317479521035,0.6295829744234681,-0.5095107801049947
1772649169545277200,1.053277099609375,-0.7880079880118369,0.6617407384455204,-0.7634932130236178
1772649169555321300,1.0633212890625,-0.7302279992163181,0.7154644375875592,-0.8295623067367821
1772649169565365000,1.073364990234375,-0.8140718190729618,0.809649618716538,-0.8645766292337328
1772649169575409200,1.0834091796875,-0.8725415436983108,0.992261563578248,-0.8460471392001956
1772649169585453000,1.093453125,-0.7985030785411595,1.1522349756523966,-0.8175103421542793
1772649169595497200,1.103497314453125,-0.7270750881433486,1.2396499319940806,-0.5181337931521237
1772649169605541000,1.113541015625,-0.6421627622723579,1.27151426602751,-0.14989567017406225
1772649169615586000,1.1235859375,-0.5490905108213424,1.2899533012986182,0.03239259569123387
1772649169625630200,1.133630126953125,-0.43507893171608447,1.2462234651654958,0.19044289421569555
1772649169635674000,1.143674072265625,-0.2982178074210882,1.1533245244547725,0.28443200478330255
1772649169645718000,1.153718017578125,-0.12899287513792515,1.027521385268867,0.31076555616389956
1772649169655762200,1.16376220703125,0.04555120634138584,0.9436712818019092,0.37459362948462366
1772649169665806000,1.17380615234375,0.17078209859728813,0.8415081075310706,0.3877238908231258
1772649169675850200,1.183850341796875,0.050752866637706756,0.7925456314414739,0.3751179090870544
1772649169685894100,1.19389404296875,-0.3796697637051344,0.6840076614417135,0.24372787314690647
1772649169695938000,1.20393798828125,-0.6188058520823717,0.6277820624813437,0.10000869965068995
1772649169705983200,1.213983154296875,-0.7765180412262678,0.5791898810088634,0.11872929180953651
1772649169716027100,1.224027099609375,-0.845235603621602,0.5618270966671407,0.17391889878567307
1772649169726071000,1.234071044921875,-0.8454372636735439,0.6064291855901479,0.3392861692599952
1772649169736115200,1.244115234375,-0.7548316945970058,0.5988191489778458,0.5391641235580668
1772649169746159000,1.2541591796875,-0.6005424656391144,0.5688569953039289,0.7434469617515802
1772649169756203300,1.264203369140625,-0.4628232632100582,0.5004371006809175,0.8693262349136173
1772649169766247000,1.274246826171875,-0.3712456342309713,0.43338717923685904,0.9429441365711391
1772649169776291000,1.284291015625,-0.34243513481020926,0.3864443724066019,0.9337284183278679
1772649169786336300,1.294336181640625,-0.35002573606967924,0.40191374421715736,0.8249300438262521
1772649169796380200,1.304380126953125,-0.45103871739208695,0.4719366901226341,0.7628187478281557
1772649169806424000,1.314424072265625,-0.5988736556440591,0.5416830110438168,0.7326072955682873
1772649169816468200,1.32446826171875,-0.7055033078044652,0.5786706794403493,0.6950571709834039
1772649169826512100,1.33451220703125,-0.7156704815536737,0.6791983614638447,0.669228975309059
1772649169836556300,1.344556396484375,-0.6791203277915716,0.7941698716424405,0.6497652731653303
1772649169846600000,1.354599853515625,-0.6192945123821496,0.8790073787115513,0.7028072005882858
1772649169856644000,1.36464404296875,-0.5005839618057012,0.8947646275527775,0.7445398715548217
1772649169866688300,1.374688232421875,-0.33489187982380386,0.8856871487364173,0.7207309798136353
1772649169876733200,1.384733154296875,-0.129731710806489,0.8865927192740142,0.6654810940176248
1772649169886777000,1.394777099609375,0.05560848997533321,0.9077024350591003,0.6303002558473497
1772649169896821000,1.404821044921875,0.2072556799918413,0.9373119759030639,0.6267165521416813
1772649169906865200,1.414865234375,0.28882512517571446,0.8785368385903537,0.6169252990327775
1772649169916909300,1.424909423828125,0.3184679837673902,0.7877613197743892,0.6071884795248508
1772649169926953000,1.434952880859375,0.4058183504402637,0.7258918697081506,0.5718057986395433
1772649169936997000,1.4449970703125,0.48621173758208747,0.6891327493704855,0.5288806664854288
1772649169947041000,1.455041015625,0.4908253688573837,0.628500586014241,0.47825836742483074
1772649169957085200,1.465085205078125,0.4116653229027986,0.542603925281018,0.3410623486196622
1772649169967130000,1.475130126953125,0.36146249136328695,0.43389615167230366,0.1831316761531867
1772649169977174000,1.485174072265625,0.3191881147354841,0.3857859084978699,0.10185646467553451
1772649169987218200,1.49521826171875,0.2881424036085605,0.28139555969685315,0.2093444324320182
1772649169997262300,1.505262451171875,0.38714229154288765,0.25631270249709487,0.24609584438726304
1772649170007306000,1.515305908203125,0.5370762479007244,0.27715426886528727,0.2991044540625065
1772649170017350100,1.52535009765625,0.7263368369966745,0.14074001155495644,0.5017464662464335
1772649170027394000,1.53539404296875,0.6895008520305156,-0.07364712775200605,0.4828527094777673
1772649170037438200,1.545438232421875,0.22657003679275511,-0.35101284741088745,0.37735144029278306
1772649170047482400,1.555482421875,-0.2644844646453857,-0.45640375155657525,0.13550073179514147
1772649170057527000,1.565527099609375,-0.36566345018446444,-0.2141692587725818,-0.2900553610904142
1772649170067571200,1.5755712890625,-0.3909153803408146,0.02439195232614875,-0.33926282491702586
1772649170077615000,1.585614990234375,-0.2536275550663471,0.3610794833950698,-0.4511731208940968
1772649170087659000,1.595658935546875,-0.4978583362340927,-0.03315349706113338,0.13481145262303762
1772649170097703200,1.605703125,-0.14466858317553996,0.3049710810735822,-0.6082534784078598
1772649170107747000,1.6157470703125,-0.3652466860771179,-0.37045273028761144,0.020049027751013634
1772649170117791200,1.625791259765625,-0.07192483400404452,-0.35371231562793254,-0.13128254784452728
1772649170127835100,1.635835205078125,0.08442541913688183,-0.007285773093998432,-0.21599033671990037
1772649170137880000,1.645880126953125,0.3732113813459873,0.36080841136872766,-0.5626182105122134
1772649170147924200,1.65592431640625,0.40089842969477174,0.3748290456756949,-0.24029815442655234
1772649170157968100,1.665968017578125,0.7520423561394214,0.565708468145132,-0.377181600151211
1772649170168012000,1.676011962890625,0.9142717304468154,0.5514271370753645,-0.5145902022611349
1772649170178056200,1.68605615234375,1.2424211502730846,0.4645575396567583,-0.5574196189558133
1772649170188100000,1.69610009765625,1.4486983406215905,0.43962066679894923,-0.4274504826642573
1772649170198144300,1.706144287109375,1.8925608827739953,0.5288355121694505,-0.4781539937349036
1772649170208188200,1.716188232421875,2.1403823819100856,0.07298238023295998,-0.6887051716081798
1772649170218232000,1.726232177734375,2.4896336264759302,-0.18202376971021295,-0.9889859759736805
1772649170228277200,1.73627734375,2.3456933575749397,-0.34779622345194217,-1.0344039843894541
1772649170238321200,1.746321044921875,2.2009832733452317,-0.17458149088025093,-1.1582798818398266
1772649170248365000,1.756364990234375,2.222106140872836,0.18882877354994415,-1.0544557886194437
1772649170258409000,1.766408935546875,2.507241763880849,0.6680437841124832,-0.7016528429213911
1772649170268453000,1.776453125,2.8389819016754627,1.035621835746616,-0.331397096510604
1772649170278497300,1.786497314453125,3.0683553054511545,1.2662056382253766,-0.16894019705764948
1772649170288541200,1.796541259765625,3.227017927187681,1.408417914289981,-0.17349502908410502
1772649170298585000,1.806585205078125,3.3616707277834412,1.4922010900005698,-0.22674789584400132
1772649170308629000,1.81662890625,3.8688212084978817,2.2143527502670883,-0.6121770815923809
1772649170318674200,1.826674072265625,3.6033494863808153,1.8903136883690952,-0.5132949017535895
1772649170328718000,1.836718017578125,3.5101468865484,1.4047387873858213,-0.2622095237170346
1772649170338762000,1.846761962890625,3.155985658109188,1.1557248635947703,-0.02215507838586345
1772649170348806100,1.85680615234375,2.215325686952472,0.9363609587885439,-0.06441642200215719
1772649170358850300,1.866850341796875,1.0667641391158103,0.7422635971859097,-0.14869476995170117
1772649170368894200,1.876894287109375,0.28870003749132156,0.5471688951089978,-0.1694704497431405
1772649170378938000,1.886938232421875,-0.1429021580249071,0.25128654489815233,0.12604058293728157
1772649170388982000,1.89698193359375,-0.6727426094532013,-0.28057006865814327,0.8189423477187753
1772649170399026200,1.907026123046875,-1.4190426225483417,-0.024241584070026873,0.7132263032719492
1772649170409071000,1.917071044921875,-2.651738497620821,0.6212411164052785,-0.13865774365449324
1772649170419115000,1.927114990234375,-3.1122838790267706,1.4505843004986643,-0.9054493223700671
1772649170429159200,1.9371591796875,-2.6522815184563395,1.5032611209362745,-1.1704551805410532
1772649170439203000,1.947203125,-2.326076218435168,0.8360089255928993,-0.5090532821284607
1772649170449247200,1.957247314453125,-2.0963889264047144,0.16759733108133076,-0.17185856872238217
1772649170459291100,1.967291015625,-2.6623078224301335,-1.1685749928176403,0.23012818593205883
1772649170469335000,1.9773349609375,-3.052725774642825,-2.4965216324239967,0.9218359551560134
1772649170479379200,1.987379150390625,-1.7981722880274056,-1.589561101773381,0.02446359735683072
1772649170489423000,1.997423095703125,-1.5761936706781385,-1.0899456927388906,-0.6386005397461354
1772649170499468000,2.007468017578125,-2.745518020558357,-1.6176105536937713,-0.4142620979303494
1772649170509512200,2.01751220703125,-3.9882016211599107,-1.3425719618082046,-0.49649260083884
1772649170519556000,2.02755615234375,-5.24555262953937,-1.2723705905959009,-0.46955366744361815
1772649170529600300,2.037600341796875,-5.905868888139724,-1.5117244133770464,-0.5099477832827717
1772649170539644200,2.04764404296875,-6.402206298416853,-2.1262416283547876,-0.897758840932697
1772649170549688000,2.05768798828125,-7.264639120554923,-2.7289506243780255,-1.5418151618666947
1772649170559732200,2.067732177734375,-8.344161034435034,-3.0079142807528374,-1.89023492404446
1772649170569776000,2.077776123046875,-8.728903279098867,-3.106076256558299,-1.851818538019061
1772649170579821000,2.087821044921875,-8.040112036642432,-3.235998229239881,-1.6181841157980261
1772649170589865200,2.097865234375,-6.531115586924552,-3.2761744645446536,-1.6743506780475377
1772649170599909000,2.1079091796875,-5.793217491471767,-3.3070369280591607,-1.4313643439829349
1772649170609953300,2.117953369140625,-6.278670519641041,-2.9238340217918157,-0.8534921214438974
1772649170619997000,2.127996826171875,-6.787350694140791,-2.6711276732236144,-0.7765337502520531
1772649170630041000,2.138041015625,-7.428138076406717,-2.8017174621641634,-1.1023103034671395
1772649170640085200,2.148085205078125,-7.093316339209675,-2.7656030694708225,-1.3016411087438464
1772649170650129200,2.158129150390625,-6.373161405718326,-2.3634914645940066,-0.7921670073874294
1772649170660173000,2.168173095703125,-5.049296482467651,-1.482923850828409,-0.19217947221733628
1772649170670217000,2.178217041015625,-3.492583757328987,-0.667179714629054,0.5999733605142682
1772649170680262100,2.18826220703125,-1.521138138410449,-0.15973726523071527,1.0563612569145857
1772649170690306300,2.198306396484375,0.568759672409296,0.16839271924272178,1.1620367501553148
1772649170700350000,2.208349853515625,2.4655998399376866,0.35867680616751313,1.2378989966735243
1772649170710394000,2.21839404296875,3.8925983899265524,0.4710480707198381,1.2014550797648726
1772649170720438300,2.228438232421875,4.510698724088073,0.30256606575846673,0.952873409911245
1772649170730482200,2.238482177734375,4.051086239618063,0.4861448098257184,1.0276740916125475
1772649170740526000,2.248526123046875,4.0878912449240685,1.027034478534758,1.2964499698415397
1772649170750570000,2.258570068359375,5.137982481658458,1.3044687333852052,1.5896525794491172
1772649170760615200,2.268615234375,6.628948769167065,1.3969978178702294,1.5177122556149958
1772649170770659300,2.278659423828125,7.99541130965054,1.5727319859169422,1.2896657165288925
1772649170780703000,2.288702880859375,9.097727823662757,1.7522772366844117,1.0367352768812328
1772649170790747100,2.2987470703125,9.601250761529803,1.7053943433478473,0.9743404877666383
1772649170800791000,2.308791015625,9.576651742324232,1.6762670330628753,0.8241065255489199
1772649170810835200,2.318835205078125,9.333420493587852,1.5672471247650681,0.6793366008907556
1772649170820879000,2.328879150390625,9.040385641762613,1.3023773140639066,0.6286239201329649
1772649170830923000,2.338923095703125,8.799485466322302,1.0024063793651758,0.5756943305106833
1772649170840967200,2.34896728515625,8.478585871493816,0.7996820591926574,0.2966505215717479
1772649170851012400,2.359012451171875,8.067969765383005,0.6079127021461724,0.025750563860870896
1772649170861056000,2.369055908203125,7.733163225755095,0.7358718503221869,-0.2396876943780109
1772649170871100200,2.37910009765625,7.774783522388338,0.9937759136639535,-0.34311409351769834
1772649170881144000,2.38914404296875,8.016421948975324,1.2331294441841543,-0.4763368613103404
1772649170891188200,2.399188232421875,7.980984724891186,1.5130622378520666,-0.6657074501194059
1772649170901232000,2.409232177734375,7.548814958620071,1.8141789815850555,-0.7890702834811061
1772649170911276000,2.419276123046875,6.912741160872578,2.0701514923423527,-0.994247403633222
1772649170921320200,2.4293203125,6.142237849891186,2.3253641246430576,-1.1128248293492942
1772649170931364000,2.439364013671875,5.236074607098102,2.504875034749508,-1.0528172276321799
1772649170941409000,2.449408935546875,4.468651141953468,2.5340736567050217,-0.8909587324637919
1772649170951453200,2.459453125,3.997091614580154,2.330787610996514,-0.633068770712614
1772649170961497000,2.4694970703125,3.8335722004622217,2.0360180443331597,-0.43432683470714833
1772649170971541200,2.479541259765625,3.810091956153512,1.7891221356093883,-0.2815419458976015
1772649170981585200,2.489585205078125,3.384558266896009,1.296057025001198,0.055320941738225514
1772649170991629000,2.499629150390625,2.450927755984664,0.6537455019079148,0.4186544876703992
1772649171001673200,2.509673095703125,1.0488029504895209,0.03289294642880559,0.39403826160170136
1772649171011717000,2.519717041015625,-0.9195739285081624,-0.3358722691632807,0.12587565643284468
1772649171021761300,2.52976123046875,-3.360736661803722,-0.9907147725276648,0.24501301758661864
1772649171031806200,2.53980615234375,-5.360000261974334,-1.0725228487730025,-0.23921505363127216
1772649171041850000,2.54985009765625,-6.589497633266449,-0.17681304932460187,-0.8760215678337961
1772649171051894300,2.559894287109375,-7.5510741357237094,0.39537411331534383,-0.8431907268557697
1772649171061938000,2.56993798828125,-8.477747082582116,0.3840715057954192,-0.38645460153967137
1772649171071982000,2.579982177734375,-9.718189626258612,0.2218929848924279,0.1271991418552585
1772649171082026200,2.590026123046875,-10.8343423579216,0.11172639077752827,0.40166999858915803
1772649171092070100,2.600070068359375,-11.238436368787289,-0.13050941718071699,0.5111239143900573
1772649171102114300,2.6101142578125,-11.203152289438247,-0.5073651463784277,0.3524225680783391
1772649171112158000,2.620157958984375,-11.15269869800806,-0.9283619228586554,-0.04757312235673889
1772649171122203100,2.630203125,-11.146619670355319,-1.2560714899629353,-0.40677448212131856
1772649171132247300,2.640247314453125,-11.083856047928332,-1.384978294252604,-0.7507750396173447
1772649171142291000,2.650291015625,-10.890624801635742,-1.416222742822021,-0.8622992588862777
1772649171152335000,2.660335205078125,-10.435616596090792,-1.4500313427910207,-0.6036251610200852
1772649171162379000,2.67037890625,-9.767198279577492,-1.6018905681230127,-0.03772065884619951
1772649171172423200,2.680423095703125,-8.777516211098431,-1.7507411131583153,0.5580572958048433
1772649171182466300,2.69046630859375,-7.710213142800331,-1.9569621894054114,0.8602002407804131
1772649171192510200,2.70051025390625,-6.971912311765551,-1.9038054764963686,0.773763554886356
1772649171202554000,2.71055419921875,-6.735363901793956,-1.7636160845614968,0.3891881181567907
1772649171212599300,2.720599365234375,-6.6944333409905425,-1.8446276036016642,-0.05241630633790045
1772649171222643200,2.730643310546875,-6.409608099105954,-2.033033767825365,-0.2440376149495132
1772649171232687400,2.740687255859375,-5.80757393360436,-2.2481945218533275,-0.3398473833393305
1772649171242731300,2.750731201171875,-4.987813547500967,-2.3189441745981574,-0.0834838822367601
1772649171252775200,2.760775146484375,-4.264281246531009,-2.0706538889065382,0.4571160645443946
1772649171262819300,2.7708193359375,-3.5249072333067653,-1.408679926227033,0.728469099785015
1772649171272863200,2.78086328125,-3.0031916361451145,-0.8302787113778293,0.8115908159121871
1772649171282907100,2.7909072265625,-2.6402976506739853,-0.23716157343387603,0.5130851314604282
1772649171292951000,2.800950927734375,-2.307327094301581,0.1777569060459733,-0.038605990313366055
1772649171302996200,2.810996337890625,-1.9464514629155396,0.4558560545459389,-0.5452363196112215
1772649171313040400,2.821040283203125,-1.3636527437597512,0.7790047434754669,-0.8697690102450549
1772649171323084000,2.831083984375,-0.5119628494322299,0.9524224512733519,-0.7780811258245259
1772649171333128200,2.841128173828125,1.0483680662035941,1.135563680706173,-0.40526429675407705
1772649171343172400,2.85117236328125,3.349162543866038,1.2263301394328474,0.16865794605016707
1772649171353216300,2.86121630859375,5.989685235467553,1.141571835079789,0.5507897524872795
1772649171363260200,2.87126025390625,8.412433191150427,1.0491745602808893,0.6761152276914566
1772649171373304000,2.881303955078125,10.161192921233177,1.0418446557842194,0.6391812622435391
1772649171383348200,2.89134814453125,11.197263815921545,1.0949985922142862,0.4459494314290583
1772649171393393200,2.90139306640625,11.389307313734292,1.1873841765753925,-0.09053705215128138
1772649171403437000,2.91143701171875,11.202593486511706,1.1992715982459485,-0.37539763934388753
1772649171413481200,2.921481201171875,10.950898360812664,1.329626993908733,-0.2249692139999941
1772649171423525400,2.931525390625,10.53053359862566,1.3790294688507914,0.3371750223249197
1772649171433569300,2.9415693359375,10.0742394449234,1.1544624424435197,0.9623696986615657
1772649171443613200,2.95161328125,9.763201318895817,0.9126344846338034,1.4847849685251713
1772649171453657000,2.961656982421875,9.639939680886268,0.8163442940495907,1.7398276510864494
1772649171463701200,2.971701171875,9.750117380917072,0.803998461087048,1.5881398367986082
1772649171473745200,2.9817451171875,10.065022703766822,0.7686693735525012,1.2869374606087802
1772649171483790000,2.9917900390625,10.472775821661948,0.7770344663158059,0.8591098151952028
1772649171493834200,3.001834228515625,10.69819435033202,0.8398679391086101,0.35724918451718984
1772649171503878100,3.011878173828125,10.535645827072859,0.8650247383274138,-0.12269454217869788
1772649171513922300,3.02192236328125,9.841583366215229,0.7999956551864743,-0.43259405609779056
1772649171523966200,3.03196630859375,8.78449306437373,0.8643729964204132,-0.6704504068627953
1772649171534010000,3.042010009765625,7.619617510595917,0.9727278649382293,-0.698880236402899
1772649171544054300,3.05205419921875,6.662877342253923,1.138472700020671,-0.5685027750387788
1772649171554098200,3.06209814453125,5.95414338196516,1.2426473602443933,-0.4079954752836376
1772649171564142300,3.072142333984375,5.456641604083776,1.3372050279475747,-0.2670957613886334
1772649171574187300,3.082187255859375,5.317580923917889,1.297586426525563,-0.11625607009641825
1772649171584231200,3.092231201171875,5.338627219077944,1.0487158567279578,0.007250172057654708
1772649171594275300,3.102275390625,5.380907440924644,0.6434969334855676,0.02390393134718761
1772649171604319200,3.1123193359375,5.212704252904653,-0.143293057038635,0.23898265138119457
1772649171614363100,3.122363037109375,4.558706091409921,-1.601532986856997,0.8447335723835975
1772649171624407300,3.1324072265625,3.4624037231206892,-3.2715164096057414,1.072300145933032
1772649171634451200,3.142451171875,2.3426298783510924,-3.437405183203518,-0.3617180004943162
1772649171644495400,3.152495361328125,0.2374362987220287,-3.007439648978412,-1.3968173467367886
1772649171654540300,3.162540283203125,-3.1187083591163156,-3.3379683651566503,-0.7127956567697227
1772649171664584200,3.172584228515625,-5.938555352210998,-2.3485958010181784,-1.106933360157907
1772649171674628400,3.18262841796875,-7.568557769966125,-0.8945566838905215,-1.7592856541417539
1772649171684672000,3.192672119140625,-8.208518053758144,0.11838694464527069,-1.6854706224769354
1772649171694716200,3.202716064453125,-9.047513301685452,0.3866461785890162,-1.074113040573895
1772649171704760300,3.21276025390625,-10.909635791575909,0.009948197236284612,-0.7276653091214597
1772649171714804200,3.22280419921875,-13.232958327388763,-0.1817608809903264,-0.7233502224013209
1772649171724848400,3.232848388671875,-14.728782576322555,-0.18274017435126005,-0.6256084447693079
1772649171734892000,3.24289208984375,-15.414990232026575,-0.6090102150592953,-0.23418818364627658
1772649171744937200,3.252937255859375,-15.38536783170104,-1.0820872343234718,-0.316347228753753
1772649171754981400,3.2629814453125,-14.88019128140807,-1.1993415947422386,-0.9482498417638242
1772649171765025000,3.27302490234375,-14.739250194323063,-0.7348526633422822,-1.961595402164012
1772649171775069200,3.283069091796875,-14.971274989390372,-0.49484987513311207,-2.0606465818941593
1772649171785113300,3.29311328125,-15.103063632726668,-0.12502280246317385,-1.5474338785313069
1772649171795157200,3.3031572265625,-14.94455532476902,0.0645236909020692,-0.698775241658464
1772649171805201400,3.313201416015625,-14.323926348912716,0.3871379806939512,-0.017162147203087806
1772649171815245000,3.3232451171875,-13.235995503127574,0.6488354449693113,0.5628184457920491
1772649171825289200,3.333289306640625,-11.739593746566772,0.8931105036702006,0.7347764563009143
1772649171835334400,3.34333447265625,-10.245824676597119,0.45888387793451546,0.8559148916114121
1772649171845378000,3.3533779296875,-8.257758762267231,-0.16116948999091982,0.4986584005706012
1772649171855422200,3.363422119140625,-6.182784964334965,-0.8523726158946752,0.29106011768616735
1772649171865466000,3.373466064453125,-4.207464549809694,-1.3937743257790802,0.3288062762998044
1772649171875510300,3.38351025390625,-2.299996020761132,-1.3595574372701347,0.292170417015627
1772649171885554400,3.393554443359375,-0.6859907980829477,-0.9719126030325889,0.05825915061458945
1772649171895598000,3.40359814453125,0.5021797065645456,-0.4084820166915655,-0.23151034273914992
1772649171905642200,3.413642333984375,1.4758441217005251,0.28279490510076283,-0.8275785855736583
1772649171915686100,3.42368603515625,2.3040946882516145,1.1224028780989348,-1.396309689475596
1772649171925731000,3.43373095703125,3.733898358789086,2.57986276345551,-1.7471055331349372
1772649171935775200,3.443775146484375,4.122877218109369,2.553838972143829,-1.856087593640387
1772649171945819100,3.453819091796875,4.191038900187611,1.8120292562052607,-1.1087566300623117
1772649171955863300,3.46386328125,4.300318774595857,1.4278209722876547,-0.021275720001757144
1772649171965907500,3.473907470703125,3.759745332229137,0.7283645434319973,0.9519797490071504
1772649171975951000,3.483951171875,3.651948389855027,-0.3979666870918125,2.116466084271669
1772649171985995300,3.493995361328125,5.404968115469813,-1.1191356929965317,3.59643079303354
1772649171996039200,3.5040390625,8.101875542116165,0.655823258030042,3.364401614052057
1772649172006083300,3.514083251953125,9.833519302225112,1.667733013473451,2.30943721832335
1772649172016128300,3.524128173828125,10.603653779894113,1.7067041107721626,2.208508992674947
1772649172026172200,3.534172119140625,11.99937514808774,1.9115807866729795,2.8844094816371797
1772649172036216300,3.54421630859375,13.225144438767432,2.5040309851408002,2.5309260063290595
1772649172046260200,3.55426025390625,13.510788595819472,2.4252866803802546,1.3327205760098992
1772649172056304000,3.56430419921875,13.046245669209956,1.6651001807518302,0.8172669618524611
1772649172066348300,3.574348388671875,12.299066535192727,1.2456883353754877,1.5511920620210469
1772649172076392200,3.58439208984375,10.766925941252708,1.2427971439786254,2.5161808571398256
1772649172086436400,3.594436279296875,9.577013561373949,1.3086571249857544,2.548991239851713
1772649172096480300,3.604480224609375,9.301309199056028,1.620231257586181,2.0051589418195186
1772649172106525200,3.614525146484375,8.661248962020874,1.4471252460859716,1.736225242680311
1772649172116569300,3.6245693359375,8.463300039556621,1.3159804536111652,1.0821779082816094
1772649172126613200,3.63461328125,8.116670375666022,1.298877781510353,0.7303858931917697
1772649172136657200,3.6446572265625,7.815989393001795,1.404141552145034,0.4433901023350656
1772649172146701300,3.654701416015625,7.4974284702539435,1.3750022591613231,0.253872542803362
1772649172156745200,3.6647451171875,7.0446531383275985,1.3070908985823393,0.21079225662015377
1772649172166789400,3.674789306640625,6.678492260015011,1.4194142323397099,0.16121376752406358
1772649172176833300,3.684833251953125,6.201445241141319,1.256029404386878,0.19977394593432546
1772649172186877200,3.694877197265625,5.769387703073025,0.8742400181792676,0.43418446709439157
1772649172196922400,3.70492236328125,5.324190697446465,0.41910891690701246,0.6686789402108639
1772649172206966300,3.71496630859375,4.325816203945875,-0.3962020885720849,1.0534197966352103
1772649172217010200,3.72501025390625,3.4019045384943483,-1.5464758471541107,1.4289979071125387
1772649172227054000,3.73505419921875,3.5023213074892756,-2.52495686879158,0.8929408461917191
1772649172237098200,3.74509814453125,3.447590184870362,-2.8217586719349024,-0.6186623519584536
1772649172247142400,3.755142333984375,1.5638181732296943,-3.4682349134922026,-1.3454234057165682
1772649172257186000,3.76518603515625,-2.2850042033344504,-4.401294346517324,-1.1706778103157878
1772649172267230200,3.775230224609375,-6.77607117523551,-3.530385372456908,-1.41813193744421
1772649172277274000,3.785274169921875,-9.652752400708199,-1.3908281893245875,-1.6736178337283432
1772649172287319300,3.7953193359375,-10.49677629045248,-0.18575360388830303,-1.4366231412939727
1772649172297363200,3.80536328125,-11.260393349051474,-0.029065497095137834,-0.9976445717908441
1772649172307407000,3.815406982421875,-12.658268095886706,0.3811081259451806,-0.7034015132196247
1772649172317451300,3.825451171875,-13.832970047152042,0.7674887854658067,-0.4410531838200986
1772649172327495400,3.835495361328125,-15.018375763261318,0.5743821154009551,-0.846352917213738
1772649172337539000,3.8455390625,-15.930540876817702,0.32421259183399376,-1.1418016252476721
1772649172347583200,3.855583251953125,-16.0538960383296,0.4323286831598729,-0.7744818592235445
1772649172357627100,3.865627197265625,-15.754813723033665,0.5570163353845476,-0.4862023852318525
1772649172367671300,3.87567138671875,-15.086783529055118,0.3991184874754399,-0.3773596601318568
1772649172377716200,3.88571630859375,-14.078721754276751,0.025295623167604208,-0.2516954910252243
1772649172387760000,3.895760009765625,-13.010696216922998,-0.4050647555939853,-0.08766525957463309
1772649172397804300,3.90580419921875,-11.960316226375102,-0.8077948576953261,-0.12636099226437508
1772649172407848200,3.91584814453125,-10.904732821965217,-0.8635195213962346,-0.32084983740262685
1772649172417892000,3.92589208984375,-9.782225752839446,-0.8230999788548797,-0.5632403975311666
1772649172427936300,3.935936279296875,-8.631035610064863,-0.8697040552500634,-0.6644278586376458
1772649172437980200,3.945980224609375,-7.50868285471797,-1.1457749858580528,-0.683590897334367
1772649172448024300,3.9560244140625,-6.357734119483828,-1.6366744428649544,-0.6040280427325516
1772649172458068200,3.966068115234375,-5.081178644418716,-2.079848710492253,-0.5589606743853539
1772649172468113200,3.976113037109375,-3.5751036351054903,-2.2217091043792663,-0.965212740067765
1772649172478157300,3.9861572265625,-1.9656804795205591,-2.022855049768835,-1.5990091674678026
1772649172488201200,3.996201171875,-0.8513917881637811,-1.3750944674894212,-2.1206777106173336
1772649172498245000,4.0062451171875,-0.42809506417810916,-0.8018591109707951,-2.0769566423125565
1772649172508289300,4.016289306640625,-0.1373603059887886,-0.11554989458844064,-1.7468946668632328
1772649172518333200,4.026333251953125,-0.15304244376718998,1.4194050261199473,-2.132576238203794
1772649172528377300,4.03637744140625,0.0014846855998039245,1.7424296502783894,-1.3581214131176471
1772649172538421200,4.046421142578125,1.2849965556740761,1.4904123068876565,-0.3297248524494469
1772649172548466200,4.056466064453125,2.952787729075551,1.4192511507324874,-0.29831569657130164
1772649172558510300,4.06651025390625,4.84869909132123,1.0921600077874958,-0.1892700510440394
1772649172568554200,4.07655419921875,7.113557163205742,0.920955884385854,0.006074519299337407
1772649172578598100,4.08659814453125,9.40774303638339,0.8032472043283283,0.08154588164519518
1772649172588642000,4.09664208984375,11.689660379618406,0.8411619244419037,0.32678185780011115
1772649172598686200,4.106686279296875,13.148424771702288,1.00635248664245,0.22162755715558305
1772649172608730400,4.11673046875,13.3517261611104,0.9611620764374732,-0.6467209370333701
1772649172618774300,4.126774169921875,12.361569460856915,1.518030820044875,-0.004301186058949679
1772649172628818200,4.136818115234375,10.960835232937335,1.8862943697251378,0.39770405410025267
1772649172638862000,4.146862060546875,9.896607918822765,2.078848447408527,0.9195873725116253
1772649172648907300,4.1569072265625,9.273684694549441,1.7922070960126817,1.4251342174217103
1772649172658951200,4.166951171875,9.250100405344366,1.5624074296489356,1.4670340616486965
1772649172668995000,4.1769951171875,9.87711060667038,1.6191922699272632,1.0854415131874382
1772649172679039200,4.187039306640625,10.509974794721602,1.5896755219332872,0.6575106996603309
1772649172689083400,4.19708349609375,10.545043770015239,1.5774987619273364,0.3706198670154437
1772649172699127300,4.207127197265625,10.044122539079188,1.6789495501451193,0.2163213953051716
1772649172709171200,4.217171142578125,9.295948548805713,1.7349905863188206,0.13363752260599285
1772649172719215000,4.227215087890625,8.504148182773589,1.7823792372204361,0.20267076335437595
1772649172729260300,4.23726025390625,7.6628323829442255,1.7479134885169565,0.37994839798342434
1772649172739304200,4.24730419921875,6.8854521719306705,1.5245796571664512,0.6613939708344638
1772649172749348000,4.25734814453125,6.361583780649304,2.1107450762763618,-0.03471022498384118
1772649172759392300,4.267392333984375,5.998752339020371,2.2975591490030287,-0.2034981906218454
1772649172769436200,4.277436279296875,5.519603963953256,1.6205558133654296,0.21802812615782022
1772649172779480300,4.287480224609375,4.931927994149923,0.6319223771564663,0.5118476986199617
1772649172789524200,4.297524169921875,4.414923058897257,-0.3397949955649674,0.7015439026542007
1772649172799568100,4.307568115234375,3.878921746751666,-1.2867122735507786,0.7170656622391194
1772649172809612300,4.3176123046875,3.32200448782742,-2.3762518697068096,0.7602708899762481
1772649172819656200,4.32765625,2.201542660793662,-3.6685856364011764,0.6294318024497478
1772649172829701000,4.337701171875,0.5587982503652572,-4.245987464949488,0.01816737872287631
1772649172839745300,4.347745361328125,-1.945999627494812,-3.90232921808511,-0.4218341771524399
1772649172849789200,4.3577890625,-4.713740585777163,-3.482237135359645,-0.2540102342410013
1772649172859833300,4.367833251953125,-6.986568613627552,-2.2318175336785613,-0.5210483654245734
1772649172869877200,4.377877197265625,-8.671872647365927,-0.18708645992726086,-1.095383938270062
1772649172879921200,4.387921142578125,-10.043146387523413,0.9852147138066589,-0.7085225094951689
1772649172889965300,4.39796533203125,-10.626489881080388,1.2307884340159594,0.19006770422775296
1772649172900009200,4.40800927734375,-11.094985344707965,1.1575332281909883,0.9061232030436396
1772649172910053400,4.418053466796875,-11.593871270424128,1.0806873043976724,0.8839942272134125
1772649172920098300,4.428098388671875,-12.260970905554293,0.5700220935605466,0.3864323166426271
1772649172930142200,4.43814208984375,-12.04676233768463,0.18764248637482522,0.461646584113501
1772649172940186400,4.448186279296875,-11.206161408126354,-0.24419819407239554,-0.1780163241671398
1772649172950230000,4.45822998046875,-9.808286661291122,-0.8232637180492282,-0.6209880184270441
1772649172960274200,4.468274169921875,-9.015006870356201,-1.3580464481852947,-0.07917290543615818
1772649172970318300,4.478318359375,-8.200845619434117,-1.6035890426039694,0.5894424314865843
1772649172980362200,4.4883623046875,-8.310569145956634,-1.6756190905481576,0.8521238287653774
1772649172990406400,4.498406494140625,-7.911051941487193,-1.659961502689123,1.120240366302803
1772649173000451300,4.508451416015625,-7.229548517951369,-2.065879367981106,1.8332208050549028
1772649173010495200,4.5184951171875,-6.2936991619467735,-2.3410658439047634,2.0944253712467846
1772649173020539400,4.528539306640625,-5.386830985754728,-2.452598319545388,1.5601422611959277
1772649173030583000,4.5385830078125,-5.204473600175977,-2.3385095835506915,0.968193582509458
1772649173040627200,4.548627197265625,-5.648607360485196,-2.2974651871092617,0.5259976583950221
1772649173050671400,4.55867138671875,-6.580854308083653,-2.3142801283098757,0.26605902048572894
1772649173060715300,4.56871533203125,-6.920972398123145,-2.07548087067157,-0.0420283294448629
1772649173070759400,4.578759521484375,-6.578003010305762,-1.8259775559283793,-0.4571610727299005
1772649173080803000,4.588802978515625,-5.63028493733108,-1.308822690811008,-0.681375924698636
1772649173090848300,4.59884814453125,-4.853852820822596,-0.4716521740928292,-0.5945828631149604
1772649173100892400,4.608892333984375,-3.7600785097062586,0.4047542283400893,-0.571622331831418
1772649173110936000,4.61893603515625,-2.0917782177388666,0.7475016439698636,-0.6886004691246896
1772649173120980200,4.628980224609375,-0.04017068234682083,1.2719466660954057,-1.1685791575361042
1772649173131024100,4.639024169921875,1.3711965832680464,1.3882586310975253,-1.2879938377939164
1772649173141068300,4.649068359375,2.302467379310727,0.20649740897044538,-0.2968582643046044
1772649173151112200,4.6591123046875,3.738458214050531,-0.03691650285646319,0.2235108501515351
1772649173161156000,4.669156005859375,5.028325006109476,0.36550416796952484,0.5145658715374768
1772649173171200300,4.6792001953125,5.678925926381349,0.12778028447777032,0.7404176039930432
1772649173181245400,4.689245361328125,6.0797536289274685,-0.01946253309994936,1.1179435606025159
1772649173191289300,4.699289306640625,6.974422833281755,0.3240330705486238,0.7549611661955714
1772649173201333200,4.709333251953125,7.611713605603575,0.9390094274707138,0.05738728141719475
1772649173211377400,4.71937744140625,7.813105361998081,1.1578018159992993,-0.08500557537870482
1772649173221421300,4.72942138671875,8.079928498724103,1.4055498115077614,-0.11835519780013709
1772649173231465200,4.73946533203125,8.125899976304172,1.6556950774163006,0.026679076882638035
1772649173241509400,4.74950927734375,7.756247164222597,1.7956883622571824,0.3650582508329302
1772649173251553300,4.75955322265625,7.254008420947193,1.817065789067745,0.25225175493480634
1772649173261597400,4.769597412109375,7.175777180275321,1.347356127344817,0.6940926368001848
1772649173271642400,4.779642333984375,7.984933170256018,1.5712698044098912,-0.05909768836454022
1772649173281686300,4.789686279296875,8.683588219600916,1.3172352759778498,-0.39362226467933503
1772649173291730400,4.79973046875,9.28187501526773,1.1821857311494648,-0.8381558744937181
1772649173301774300,4.8097744140625,9.582756488940118,0.9022902007520198,-1.4070511559814214
1772649173311818200,4.819818359375,9.086765115621686,-0.11882745495438575,-0.21888152811676262
1772649173321862400,4.8298623046875,8.756233769094944,0.7374344234637915,-0.8132531231012194
1772649173331906300,4.83990625,8.017368289914726,1.193828822670132,-0.6921470556903631
1772649173341950500,4.849950439453125,8.080591931068897,1.1986388533003627,-0.04047529131658375
1772649173351994400,4.859994384765625,8.393208266198634,1.2483522938877343,0.21485567013416437
1772649173362039300,4.870039306640625,8.772340854287147,1.4556426068015396,0.13488458179133012
1772649173372083500,4.88008349609375,8.639494810852408,1.5704352532818913,-0.16567918596770614
1772649173382127400,4.89012744140625,7.714574260619282,1.346724697573483,-0.3440835230717435
1772649173392171300,4.900171142578125,6.611226065471768,0.9285599296487868,-0.4378497481362894
1772649173402215200,4.910215087890625,5.931846794483065,0.21935776732638476,-0.19432583659626543
1772649173412259300,4.92025927734375,5.915923833686113,-0.11639043706580995,-0.17259360499866305
1772649173422303500,4.930303466796875,5.167645798516273,-1.9152029226928948,1.3475724004440008
1772649173432346400,4.940346435546875,5.164242712074518,-1.8872778278045355,1.394952868039161
1772649173442390500,4.950390625,4.747773203760385,-2.6095021149158475,1.3838821695789694
1772649173452434200,4.96043408203125,3.903957403808832,-2.8356556798622012,0.05119746860004961
1772649173462478300,4.970478271484375,1.2818179256379603,-2.6055226898908614,-1.2409589687660336
1772649173472522200,4.980522216796875,-2.4168197346776723,-2.307982489470392,-1.5328559026025235
1772649173482566400,4.99056640625,-5.21804386036694,-1.845357817572355,-1.1401667175222188
1772649173492610600,5.000610595703125,-6.559504061540961,-0.6519396215297282,-1.641068440040201
1772649173502655200,5.0106552734375,-7.312093530169129,0.12178367441147565,-1.7280536266624926
1772649173512699400,5.020699462890625,-8.774884693551064,0.6697542412921786,-1.4674457111895083
1772649173522743600,5.03074365234375,-11.054499020540714,0.826415021687001,-0.7729108835797757
1772649173532787200,5.040787109375,-13.077068677496909,0.250452578292042,0.3179964937981218
1772649173542831400,5.050831298828125,-13.566231666100025,0.1023434992738068,0.48681795984692866
1772649173552875300,5.060875244140625,-13.1980495110929,-0.2435726095199585,0.250812314982526
1772649173562919400,5.07091943359375,-12.657657855033873,-0.7749076834201812,0.03647650857057888
1772649173572963300,5.08096337890625,-12.038095047104358,-1.2643427669629455,-0.4280402287183329
1772649173583007200,5.09100732421875,-11.491715548807383,-1.3301678227871656,-0.8186994058083742
1772649173593052400,5.101052490234375,-11.517082629776,-1.2021315177217125,-0.774266462907195
1772649173603096300,5.111096435546875,-11.889147179174422,-1.2947631857983768,-0.1083434429415036
1772649173613140200,5.12114013671875,-11.53770923821926,-1.5528613104075193,0.5306899078644812
1772649173623184400,5.131184326171875,-10.446561183953285,-1.831509763353318,0.7109405304223299
1772649173633228300,5.141228271484375,-9.530886016449331,-1.9217897537373005,0.4549207464572042
1772649173643272400,5.1512724609375,-9.156931707781553,-1.8733214909054339,-0.16449225947177037
1772649173653316400,5.16131640625,-9.163546157485246,-1.8060135030470787,-0.9978972313776612
1772649173663360300,5.1713603515625,-9.265849763140082,-1.8300148486204444,-1.8143408941484986
1772649173673404400,5.181404296875,-9.289713453808426,-1.7284059472315012,-2.2650052252702415
1772649173683448300,5.1914482421875,-9.02459478291273,-1.4329188799485564,-2.327698851200938
1772649173693493200,5.2014931640625,-8.017013485127688,-0.9184092686429619,-2.142088016784191
1772649173703537200,5.211537109375,-6.006009762802719,-0.46138387805670494,-1.7666041604615748
1772649173713581300,5.221581298828125,-3.553092294305563,-0.13005480528101324,-1.6753681845270096
1772649173723625500,5.23162548828125,-1.1190759256333112,0.1164778230883181,-1.701115789245814
1772649173733669400,5.24166943359375,1.1191706181794405,0.10214256987422704,-1.4519190562337636
1772649173743713300,5.25171337890625,2.9086826298892494,0.12700374714732168,-0.9925249637547879
1772649173753757200,5.261757080078125,4.1833179505467415,0.27833880247473713,-0.3598655775606632
1772649173763801300,5.27180126953125,5.233800816947221,0.39737303204759955,0.3615696415321901
1772649173773845500,5.281845458984375,6.329834305167198,0.5525178549215197,0.8637204507958144
1772649173783890200,5.29189013671875,7.495994053536653,0.7513073198631406,0.9276447875652462
1772649173793934300,5.301934326171875,8.421542380279302,0.9651571374230086,0.7337384915553032
1772649173803978500,5.311978515625,9.159064628157019,1.1040209798425435,0.5638024153281003
1772649173814022400,5.3220224609375,9.350405530658364,1.362534991776198,0.4268242405246943
1772649173824067300,5.3320673828125,8.891333144414425,1.8094449388004838,0.33253742565214633
1772649173834111500,5.342111572265625,8.193180199372767,2.1828969970345495,0.4199672873020172
1772649173844155400,5.3521552734375,7.632038016229868,2.3193927951484916,0.7835280661188065
1772649173854199300,5.36219921875,7.6258520210713145,2.2498257763169707,1.190686798317358
1772649173864243200,5.3722431640625,8.412481121945381,2.236999320230633,1.5427075806617736
1772649173874287400,5.382287353515625,9.506780333718657,2.0181858889140187,1.7174818176351487
1772649173884331300,5.392331298828125,10.545334861916302,1.7515660196751355,1.8243194134578107
1772649173894375400,5.40237548828125,11.224795965969562,1.489996711824089,1.757336565900594
1772649173904419300,5.41241943359375,11.452495299053192,1.246638329576701,1.6375212689526377
1772649173914464300,5.42246435546875,11.108637437963486,1.096645044247061,1.4600963713400066
1772649173924508400,5.43250830078125,10.318246938729285,1.0261601799182594,1.2153046683538704
1772649173934552300,5.44255224609375,9.641509706681965,1.0864290629200637,0.829966357493028
1772649173944596200,5.45259619140625,9.052699179890752,1.0474239172212778,0.41229682573936877
1772649173954640400,5.462640380859375,8.343222876802086,1.0543854267969728,0.06237045839093625
1772649173964684300,5.472684326171875,7.692163106846809,1.1698133024409412,-0.33225203283950683
1772649173974728400,5.482728515625,7.24530664357543,1.3355350489087403,-0.5845222915453836
1772649173984772400,5.4927724609375,7.0859402574837205,1.607296811080724,-0.7118996577780693
1772649173994816300,5.502816162109375,6.82528733382523,1.7295771829679607,-0.5966598520521074
1772649174004860400,5.5128603515625,6.367054321014881,1.6071386979095637,-0.4585663364179432
1772649174014905300,5.5229052734375,5.548035693189502,1.1164470384344458,-0.18909147960674016
1772649174024949200,5.53294921875,4.658264197748899,0.29284166734069583,0.2697517740564421
1772649174034993400,5.542993408203125,4.218837007695436,-0.6443231551766395,0.9204474964722991
1772649174045037300,5.553037353515625,4.127759144932031,-1.2956623265951872,1.2360809874661267
1772649174055081500,5.56308154296875,3.855767665657401,-1.5827723184160887,1.1117284854799507
1772649174065125000,5.573125,2.4255004692614075,-1.103751515251398,0.18399791932739315
1772649174075169300,5.583169189453125,-1.3084686166763304,-1.1559677324399351,-0.18424758323952556
1772649174085213400,5.59321337890625,-5.877524252665043,-1.7097215588971972,0.27376396883986887
1772649174095257300,5.60325732421875,-8.582671684390306,-0.5750105494976043,-1.1123423795945941
1772649174105302300,5.61330224609375,-9.171990745225548,0.6861001036763191,-2.704207812787592
1772649174115346400,5.623346435546875,-9.255029678440094,1.0299546037651597,-2.5771350920572877
1772649174125390300,5.633390380859375,-10.444940889275074,1.1061956935331225,-1.9308065884076058
1772649174135434500,5.6434345703125,-12.857531608080864,1.2694824679389596,-1.4369021043658257
1772649174145478100,5.65347802734375,-15.170826086354255,1.4646027428485453,-1.243284196843207
1772649174155522300,5.663522216796875,-16.304578772115708,1.241339638646692,-0.9052687781713903
1772649174165566500,5.67356640625,-16.058775627064705,0.6712013713605701,-0.37542266418728976
1772649174175610400,5.6836103515625,-14.632861365181206,0.07110021974816919,-0.20387467751773072
1772649174185654500,5.693654541015625,-12.886458427357672,-0.39489699732288713,-0.22619521213099358
1772649174195698400,5.703698486328125,-11.805119819444418,-0.8167882384248077,-0.053865089507261286
1772649174205743600,5.71374365234375,-11.203245812940597,-1.2521608923904597,0.32324140871427953
1772649174215787800,5.723787841796875,-10.742296526908873,-1.5798028010860083,0.7647571685448289
1772649174225831400,5.73383154296875,-10.186970336568354,-1.8348090971596538,1.2325718103013932
1772649174235875600,5.74387548828125,-9.327519160589576,-2.0103911433845756,1.3492986397147178
1772649174245919700,5.753919677734375,-8.329720421150327,-2.1211625715248283,1.158318825610727
1772649174255963600,5.763963623046875,-7.4463985402405255,-2.0408589084930715,0.8230540938865393
1772649174266007600,5.774007568359375,-6.912693230077624,-2.099902633614093,0.6340580740109085
1772649174276051500,5.784051513671875,-6.4563143207013605,-2.1188092863969503,0.3716547630211338
1772649174286095600,5.794095703125,-5.736755599537491,-2.0307503330633043,0.024893773501599208
1772649174296140500,5.804140625,-4.655492979469895,-1.6179744185701013,-0.24077954473532734
1772649174306184400,5.814184326171875,-3.226523421669006,-1.1729832377139477,-0.26389599723294377
1772649174316228600,5.824228515625,-1.672141769826412,-0.7128337237577885,-0.37610786997247486
1772649174326272500,5.8342724609375,-0.3162473851084709,-0.26000753842703994,-0.6980116368748247
1772649174336316700,5.844316650390625,0.6475988158464432,0.06797397748641669,-0.8813087144564836
1772649174346360600,5.854360595703125,1.605277726343274,0.3800036718346178,-0.8500306558784096
1772649174356404500,5.864404541015625,2.7985230500370264,0.5507279758300632,-0.4908192679101601
1772649174366448600,5.87444873046875,4.140765926021337,0.5894633646767586,-0.054040510006248946
1772649174376492500,5.884492431640625,5.282661586228013,0.6137513451717793,0.2949530700040981
1772649174386536700,5.89453662109375,6.269377206116914,0.5251667605288326,0.6847993232760577
1772649174396581600,5.90458154296875,7.342492175564169,0.4825063071928918,0.9405810607016086
1772649174406625500,5.91462548828125,8.886319700166583,0.49652474954277276,1.194471066096425
1772649174416669700,5.924669677734375,10.689889463323354,0.5401492256052792,1.633514955920726
1772649174426713600,5.934713623046875,11.90733750038147,0.7662801403284072,1.9776302989028394
1772649174436757500,5.944757568359375,12.39413902055025,1.0899816408351064,1.911401484583318
1772649174446801700,5.9548017578125,11.751359003162383,1.1322799828603862,1.781533872437477
1772649174456845600,5.964845458984375,10.34446040739417,1.0902544664271174,1.5513215336196124
1772649174466889700,5.9748896484375,9.173605194684862,1.2072101361602543,1.113926872307062
1772649174476933400,5.984933349609375,8.40912596629858,1.1432621262542904,0.8297212966907769
1772649174486978600,5.994978515625,7.855459233602881,0.9853408244043588,0.5476927728526294
1772649174497022700,6.005022705078125,7.555843249821662,0.9967883933529257,0.35561069659516215
1772649174507066400,6.01506640625,7.611783163708448,1.0822829030260444,0.16080007215663789
1772649174517110500,6.025110595703125,7.976645234382152,1.110121780935675,0.007059490057453513
1772649174527154700,6.03515478515625,8.353668867492676,1.1200935782432555,0.0882927620895207
1772649174537198600,6.045198486328125,8.696890184244513,1.154821923405677,0.2487904902987182
1772649174547242800,6.05524267578125,8.631924083337188,1.1398946956478058,0.3336755628366023
1772649174557286400,6.065286376953125,8.458447338828444,1.1436001260370015,0.36775563669074324
1772649174567330600,6.07533056640625,8.290364562317729,1.2479234009511768,0.34051713582705706
1772649174577375700,6.085375732421875,8.08608994396329,1.3778737229444085,0.2988013977290131
1772649174587419400,6.09541943359375,8.005204973912239,1.4215547514997422,0.1567219725301489
1772649174597463600,6.105463623046875,7.692074844041466,1.2548685439139604,-0.09897844328749925
1772649174607507700,6.1155078125,6.925509457030892,0.8253390630185604,-0.02086088299001567
1772649174617551600,6.125551513671875,6.003591595745086,0.2899446307249367,0.24187713071368633
1772649174627595800,6.135595703125,5.208939931935071,-0.24819296279698608,0.514607518722117
1772649174637639400,6.145639404296875,4.262312576806545,-0.9254882671184838,0.6551664015565067
1772649174647683600,6.15568359375,3.2007261325895784,-1.4943532995983957,0.42421738249454644
1772649174657727500,6.1657275390625,1.360376498568058,-1.7373058775238692,-0.37757231650184836
1772649174667771600,6.175771728515625,-1.5435224041759967,-1.7366450755275784,-1.1260482488639652
1772649174677816600,6.185816650390625,-4.539918388831615,-2.020290021586418,-0.9877489084593951
1772649174687860500,6.195860595703125,-6.155421156591177,-2.0565388543143865,-0.7554374784704297
1772649174697904600,6.205904541015625,-6.017924072480201,-1.0850599665239453,-1.5571867723912
1772649174707948800,6.21594873046875,-5.933541907963156,-0.5310656093090772,-1.8237199862599371
1772649174717992400,6.225992431640625,-7.078240350630879,-0.3936236163862049,-1.3386232241824267
1772649174728036600,6.23603662109375,-9.243439193889499,-0.29033655265197156,-1.1568643890187145
1772649174738080500,6.24608056640625,-11.522056911057232,0.10064758207611739,-1.3115638062126933
1772649174748124700,6.256124755859375,-13.423909938311576,0.5701835677325725,-1.251115036599338
1772649174758168600,6.26616845703125,-14.872502480471134,0.772321831645444,-1.016507385431975
1772649174768212500,6.27621240234375,-15.491663137340545,0.690336937528476,-0.915868571184203
1772649174778257700,6.286257568359375,-15.34685251534581,0.563302210721001,-1.123765690884739
1772649174788301800,6.2963017578125,-14.770318701803683,0.4258667936693877,-1.3395460381157696
1772649174798345500,6.306345458984375,-13.861569534170627,0.1596579163841903,-1.3464146087110043
1772649174808389600,6.3163896484375,-12.863991744005679,-0.13900303169451653,-1.0113252335537224
1772649174818433500,6.32643359375,-12.035827102172375,-0.31879020145907994,-0.43736214728243644
1772649174828477700,6.336477783203125,-10.921347272157668,-0.49150838268548247,0.16034936924707144
1772649174838521600,6.346521484375,-9.538360297852755,-0.7159438186023384,0.5397310732584446
1772649174848565500,6.3565654296875,-6.91887396453917,-1.1220359444826842,0.175311047263816
1772649174858609700,6.366609619140625,-6.919143429130315,-1.1235952296886593,0.14126061049611308
1772649174868654600,6.376654541015625,-6.078532562699913,-1.3449316766768693,-0.11467431733030825
1772649174878698500,6.386698486328125,-5.547056619024277,-1.4924559415444731,-0.26594118452602994
1772649174888742700,6.39674267578125,-5.235974069333076,-1.576720909422636,-0.3347422787526622
1772649174898786600,6.40678662109375,-4.93562684866786,-1.4311936635911464,-0.3066733549468219
1772649174908830700,6.416830810546875,-4.507984204432368,-1.1308088143292814,-0.32057825391963124
1772649174918874600,6.42687451171875,-3.9725492939978837,-0.78318823970519,-0.5148129781663418
1772649174928918500,6.43691845703125,-3.395812066838145,-0.43781485948599874,-0.6300714885927736
1772649174938962700,6.446962646484375,-2.8092840980261564,-0.020724296664074063,-0.6781191148597747
1772649174949006600,6.457006591796875,-2.1241215674608944,0.3442258906845003,-0.6580334083601832
1772649174959050800,6.46705078125,-0.9952309347778558,0.5010745948668569,-0.49551330747790634
1772649174969095700,6.477095703125,0.4127554562270641,0.5806474594060331,-0.3160799561196938
1772649174979139600,6.4871396484375,1.8758324508130548,0.5452061436686665,-0.10885556631525978
1772649174989183700,6.497183837890625,3.613361761829257,0.45086051128096877,0.13398161420277319
1772649174999227600,6.5072275390625,5.344551348429918,0.16566913949772716,0.25033410301152614
1772649175009271600,6.517271484375,6.886282777535915,-0.09168189307115972,0.09797914831815287
1772649175019315500,6.5273154296875,8.173581180411576,-0.3001849427755922,-0.05583974144794047
1772649175029359600,6.537359619140625,8.940787203413247,-0.22419622033350167,-0.21853978374069555
1772649175039403800,6.54740380859375,8.953300063505768,-0.004077697767689824,-0.33028431296311317
1772649175049447400,6.557447509765625,8.561642924886941,0.3063946841359138,-0.1488529927207157
1772649175059491600,6.56749169921875,8.179155181151629,0.6890544234372675,0.24428406399125233
1772649175069536800,6.577536865234375,8.05148975522518,1.08329551413469,0.5809793217089027
1772649175079580700,6.58758056640625,8.258343868678807,1.2616302931338548,0.756583360569924
1772649175089624600,6.59762451171875,8.78248172455132,1.3702578411132096,0.885127030635625
1772649175099668500,6.60766845703125,9.362283015456795,1.282943422536552,0.8542671244043857
1772649175109712600,6.617712646484375,9.50946095110476,1.122813650856912,0.7235763593073934
1772649175119756800,6.6277568359375,9.510164130938053,1.0832255907036363,0.641787791480124
1772649175129800400,6.637800537109375,9.62971405494809,1.1190564902804792,0.4305731812620535
1772649175139844600,6.6478447265625,9.57175052627921,1.1877495027564466,0.27802602846482766
1772649175149888500,6.657888427734375,9.249208424940704,1.1770112511210142,0.29170307349851354
1772649175159933400,6.667933349609375,8.829411233508587,1.1427531538188458,0.2507878929273225
1772649175169977600,6.6779775390625,8.220148285797238,1.1668204773005098,-0.2215417055030353
1772649175180021500,6.688021484375,7.521007498762011,1.2397864178553224,-0.664226929238066
1772649175190065200,6.698065185546875,7.089587089553475,1.2532380201026796,-0.8029668530169874
1772649175200109300,6.708109375,6.853905525544286,1.2215559107683598,-0.8980223872397094
1772649175210153200,6.7181533203125,6.814359697097539,1.0968095871590078,-0.8300046436768025
1772649175220197000,6.728197021484375,7.20088181091547,0.759959266743809,-0.4892970633115619
1772649175230241300,6.7382412109375,7.69419315136969,0.20333105389401315,-0.06962106884000822
1772649175240285200,6.74828515625,7.665420061349868,-0.31730171646699307,0.1058039053933695
1772649175250329300,6.758329345703125,7.001338897258043,-0.5969776127643883,-0.010985793230781565
1772649175260374300,6.768374267578125,5.558766346040367,-0.6420218924969434,-0.43827926212735474
1772649175270418200,6.778418212890625,3.7281589383542535,-0.5123439577043056,-1.0925826901789755
1772649175280462300,6.78846240234375,1.7592331933021543,-0.5796468309961259,-1.319517833957076
1772649175290506200,6.79850634765625,-0.696320468917489,-1.052074227245152,-0.8965174625694752
1772649175300550100,6.808550048828125,-3.4657197158008812,-1.7710753145262599,-0.04842022243905812
1772649175310594300,6.81859423828125,-5.353683918434381,-2.2304124891862274,0.8220443323221057
1772649175320638200,6.82863818359375,-5.738291138541698,-1.690560639092326,0.6409376043915748
1772649175330682400,6.838682373046875,-5.703095321998,-0.9653133508980274,0.19607156601874157
1772649175340726300,6.848726318359375,-6.448188881912827,-0.7515437589675188,0.11753765260586514
1772649175350770200,6.858770263671875,-8.276047283151746,-0.49216567755043505,-0.1817279285687953
1772649175360815400,6.8688154296875,-11.01153666164875,0.31185046532377597,-0.7430833160709589
1772649175370859300,6.878859375,-13.981758925127982,1.1571627874433994,-1.0827084349617362
1772649175380903200,6.888903076171875,-16.580519865798948,1.6230729107528925,-0.9590727029427886
1772649175390947300,6.898947265625,-18.24343437307477,1.762026038891077,-0.8387992138985544
1772649175400991200,6.9089912109375,-18.309815016955135,1.602053211338818,-0.8245263583961874
1772649175411035400,6.919035400390625,-16.780232290804385,1.0418162334073335,-0.7354153387263417
1772649175421079000,6.9290791015625,-14.573881937468052,0.43675453677810727,-0.39425270806998014
1772649175431123200,6.939123291015625,-12.366828988820314,-0.31538433853834863,0.2667291200333275
1772649175441167400,6.94916748046875,-10.437277807301282,-0.9462520920753479,0.7954998781371861
1772649175451211300,6.959211181640625,-8.847116401547193,-1.426908533617854,1.2671581166446209
1772649175461256200,6.969256103515625,-7.591163569527864,-1.8500627803929148,1.5900200975872576
1772649175471300400,6.97930029296875,-6.831952052411436,-2.0607557413570583,1.564016326150298
1772649175481344300,6.98934423828125,-6.35530660007596,-2.0887023174248633,1.5384201126009225
1772649175491388400,6.999388427734375,-5.797807741871476,-1.954056092700362,1.44910925951004
1772649175501432000,7.00943212890625,-5.148315659624338,-1.8027467563360928,1.3751783463805913
1772649175511476200,7.019476318359375,-4.241227703201771,-1.7750879111684859,1.235980303570628
1772649175521520400,7.029520263671875,-3.298071239054203,-1.683294739742577,0.9619956777174026
1772649175531564300,7.039564208984375,-2.367445755177736,-1.484065129818022,0.4988931226419285
1772649175541608400,7.0496083984375,-1.366592304342985,-1.2866145122647286,-0.008735862304456532
1772649175551653000,7.059653076171875,-0.5746469768822193,-0.9908047888986766,-0.5466588997602463
1772649175561697300,7.069697265625,0.06452829401195048,-0.704453798751533,-0.8856670557964592
1772649175571741400,7.079741455078125,0.7544558470219374,-0.51383711887151,-1.0350720929093657
1772649175581785000,7.08978515625,1.5357213750362395,-0.27629575233981013,-1.182240237815678
1772649175591829200,7.099829345703125,2.671149300533533,0.09118453800827264,-1.0033377419311553
1772649175601873200,7.109873046875,4.233578649753332,0.24536110037192702,-0.5609284307943657
1772649175611917300,7.119917236328125,5.856232458311319,0.4225004590414464,-0.35259777851477264
1772649175621961500,7.12996142578125,7.488443784287571,0.6369225235313176,-0.1846821021992713
1772649175632005000,7.140005126953125,9.119289082607626,0.8499241998292505,-0.014685290494468062
1772649175642049300,7.15004931640625,10.244919836711883,1.1376885639056562,-0.0027366036233492192
1772649175652094500,7.160094482421875,10.566160207802056,1.5364834454499183,-0.10444008796056732
1772649175662138000,7.17013818359375,10.225261196517943,1.9510580799281596,-0.19516360259465873
1772649175672182300,7.180182373046875,9.572220481878519,2.2511337901756168,-0.1450489607952535
1772649175682226200,7.19022607421875,8.998590573084353,2.3409883947543797,0.09682312841713428
1772649175692270300,7.200270263671875,8.77595319956541,2.2209265756994485,0.37189543990921226
1772649175702314500,7.210314453125,8.940307310941815,1.9564646151468157,0.5757448551215231
1772649175712358100,7.220358154296875,9.573230535703896,1.7073489845469594,0.8129974678397178
1772649175722402300,7.23040234375,10.510057796829939,1.4521291918531058,1.065458171083778
1772649175732446200,7.2404462890625,11.345274110740423,1.3418797417603432,1.07067196020931
1772649175742490400,7.250490478515625,11.812902143883704,1.4162269806057215,0.8431745794385671
1772649175752535300,7.260535400390625,11.56391569262147,1.5436210422448813,0.4883708153121173
1772649175762579200,7.2705791015625,10.471832403331994,1.661363332311064,0.13226134801511652
1772649175772623400,7.280623291015625,9.192585789486765,1.8403060871407388,-0.2764152505336329
1772649175782667300,7.290667236328125,7.890926852825284,1.9297770992293952,-0.6814831844653934
1772649175792711200,7.300711181640625,6.76221274575293,1.9364727974757552,-0.857586697281152
1772649175802755300,7.31075537109375,6.034919630944729,1.9240503921456633,-0.8190411319181322
1772649175812799200,7.32079931640625,5.5879480168610804,1.676864414434135,-0.5735819414665922
1772649175822843400,7.330843505859375,5.278995464935899,1.0370957076914609,-0.38226135110091414
1772649175832887300,7.34088720703125,5.135132352924346,0.28399069075658917,-0.5199870563359931
1772649175842932200,7.35093212890625,5.035332254523039,-0.3978304204262793,-0.6532382830381394
1772649175852976400,7.360976318359375,4.597624143347144,-0.8871940461680292,-0.8227190897785127
1772649175863020300,7.371020263671875,3.490654835093021,-1.224245734374225,-1.11718046727553
1772649175873064200,7.381064208984375,1.8007137892037628,-1.5587369244426488,-1.140889698034525
1772649175883108400,7.3911083984375,-0.3818640588790178,-2.052978969875723,-0.87902842149958
1772649175893152300,7.40115234375,-2.6472762575149535,-2.679153158769011,-0.3812529777759686
1772649175903196400,7.411196533203125,-4.314666448900104,-3.3041444214880467,0.3705016839958727
1772649175913240300,7.421240234375,-5.434080228185653,-3.216068663150072,0.7170733340889215
1772649175923284200,7.4312841796875,-6.364468980696797,-2.0862927720651028,0.3051298700981773
1772649175933328100,7.441328125,-7.24122083556652,-1.0619821655362844,0.3051058864343911
1772649175943373300,7.451373291015625,-8.458486501795052,-0.3852455180108547,0.8486628015913069
1772649175953417200,7.461417236328125,-10.741022269189358,0.17146072851121424,1.3755935030527413
1772649175963461000,7.471461181640625,-13.876575380122661,0.7280599344622344,1.452177414909005
1772649175973505300,7.48150537109375,-16.103945140612126,1.0013928914736956,1.1119799760229885
1772649175983549400,7.491549560546875,-16.73564496105909,0.6969177041582763,0.32026246596872804
1772649175993593000,7.501593017578125,-16.589120520883796,0.3286856455948204,-0.38003205767888576
1772649176003637200,7.51163720703125,-15.776404792594908,-0.020729338165372608,-0.4366806678242981
1772649176013681200,7.52168115234375,-14.227934995144604,-0.2709193199984729,-0.302113901544176
1772649176023725300,7.531725341796875,-12.449725883215665,-0.547838172672689,-0.04069072416555136
1772649176033770200,7.541770263671875,-11.02849013453722,-0.9282913418404758,0.37553452706392854
1772649176043814100,7.551814208984375,-10.1946474470675,-1.1679796572729944,0.8617854641452432
1772649176053858300,7.5618583984375,-9.727551328843832,-1.1888433624077588,1.0615763612143694
1772649176063902500,7.57190234375,-9.333376069924235,-1.1386129122089594,0.9093529056798666
1772649176073946000,7.581946044921875,-8.701963834246992,-1.1517438311345876,0.4480751183461398
1772649176083990300,7.591990234375,-7.928459003362059,-1.1597278156258166,0.05141421662326902
1772649176094034200,7.6020341796875,-6.964787574452162,-1.2875513547234236,-0.1391492717647925
1772649176104078300,7.612078369140625,-5.85360035624206,-1.4193170555755494,-0.2380808802358806
1772649176114122200,7.622122314453125,-4.641227722752094,-1.441562205131352,-0.17695258565945549
1772649176124166100,7.632166259765625,-3.8792742134511466,-1.1906522384606302,-0.014732636767532675
1772649176134210300,7.642210205078125,-3.3366397469013926,-0.7553593717329203,0.2082732047376223
1772649176144255200,7.652255126953125,-2.7111510560542342,-0.33654154672697184,0.38316739656254645
1772649176154299100,7.662299072265625,-1.7549568311572075,0.25520152638480065,0.19727025601770729
1772649176164343300,7.67234326171875,-0.9162561822623014,0.6897535116173327,0.16982899912353605
1772649176174387200,7.68238720703125,0.5005705178022384,0.7871046094313263,0.3420383905775845
1772649176184431400,7.692431396484375,1.7124825480431318,0.9973179701849818,0.42120917712189254
1772649176194476000,7.70247607421875,2.8099159661889073,1.0395251267954706,0.6459236491758376
1772649176204520000,7.71252001953125,4.001972372359037,1.0217860564872623,0.6751699096653611
1772649176214564000,7.722564208984375,5.300003766173124,0.9221317962974309,0.703029757297784
1772649176224608000,7.73260791015625,6.57153469107449,0.8456929920002818,0.669669120291993
1772649176234653000,7.74265283203125,7.534989846885204,0.7714528667911886,0.6724269676327705
1772649176244697000,7.752697021484375,8.231457615318893,0.7796846885636448,0.7222578971199691
1772649176254741000,7.762740966796875,8.64178321405053,1.0331685973756015,0.6404245403029024
1772649176264785200,7.77278515625,8.817849390530586,1.2321306424051524,0.6332479997370392
1772649176274828800,7.782828857421875,8.841031528675556,1.5107619980856775,0.5198863724404945
1772649176284873000,7.792873046875,8.349470246759056,1.816780542385578,0.42702772720754145
1772649176294917000,7.802917236328125,7.607053212577104,2.176310604381561,0.5006065389636903
1772649176304961000,7.8129609375,7.247118661433458,2.4894480407759545,0.4863485157042742
1772649176315005200,7.823005126953125,7.365619368651509,2.63331378313601,0.3545329843610525
1772649176325048800,7.833048828125,7.952050891351699,2.588374863474071,0.06472969833556562
1772649176335094000,7.843093994140625,9.047638973891734,2.29949625454545,-0.36555849197264756
1772649176345138200,7.85313818359375,9.891516733163595,2.00953028877154,-0.6881470993340015
1772649176355181800,7.863181884765625,10.17374026811719,1.888298987545818,-0.8027054986670613
1772649176365226000,7.87322607421875,10.069668483746051,1.8160237326689064,-0.49543425089232623
1772649176375270100,7.883270263671875,8.795726990571618,2.1516607317715883,-0.14853567039985208
1772649176385314000,7.89331396484375,8.259260983523726,2.2525724446766078,-0.5580877640083431
1772649176395358200,7.903358154296875,8.166234909301997,2.108726283799857,-0.7983490570232271
1772649176405401900,7.91340185546875,7.55023476229012,2.099262436014414,-1.1359521685671061
1772649176415446000,7.923446044921875,6.640620502260327,2.133019890318066,-1.2638229808725416
1772649176425490000,7.933489990234375,6.013019349303841,2.174825772651285,-1.096960832197964
1772649176435534800,7.943534912109375,5.449042234995961,1.8475769549265504,-0.8931451365921645
