time,seconds_elapsed,z,y,x
1772649168560952600,0.06895263671875,0.3059138357639313,0.10454093664884567,0.1460753232240677
1772649168570997800,0.078997802734375,0.3588084578514099,0.13167865574359894,0.10060857981443405
1772649168581042000,0.0890419921875,0.4022209048271179,0.14857029914855957,0.07186667621135712
1772649168591085600,0.09908544921875,0.44422826170921326,0.1942964643239975,0.0693630650639534
1772649168601129700,0.109129638671875,0.4727365970611572,0.27549439668655396,0.08983345329761505
1772649168611173600,0.119173583984375,0.5046802163124084,0.3872162401676178,0.11922140419483185
1772649168621217800,0.1292177734375,0.5231345891952515,0.5306061506271362,0.14460664987564087
1772649168631262000,0.139261962890625,0.6172978281974792,0.6337965130805969,0.17827078700065613
1772649168641305600,0.1493056640625,0.7511932849884033,0.7332615852355957,0.19093331694602966
1772649168651349800,0.159349853515625,0.861177921295166,0.8114720582962036,0.16917894780635834
1772649168661395000,0.16939501953125,0.9600285887718201,0.8444366455078125,0.11113908141851425
1772649168671438600,0.1794384765625,1.0573152303695679,0.814224123954773,0.020968986675143242
1772649168681482800,0.189482666015625,1.1153348684310913,0.7199581265449524,-0.09779441356658936
1772649168691526700,0.199526611328125,1.1264946460723877,0.6076977849006653,-0.2228900045156479
1772649168701570800,0.20957080078125,1.1076240539550781,0.48631995916366577,-0.3064890205860138
1772649168711614700,0.21961474609375,1.064535140991211,0.38067635893821716,-0.3279951214790344
1772649168721658600,0.22965869140625,1.0122919082641602,0.30015355348587036,-0.2876357138156891
1772649168731702800,0.239702880859375,0.9662752151489258,0.23857760429382324,-0.19478674232959747
1772649168741746700,0.24974658203125,0.9060811400413513,0.23317724466323853,-0.08409272134304047
1772649168751791600,0.25979150390625,0.8725762367248535,0.3059866726398468,0.017955752089619637
1772649168761835800,0.269835693359375,0.881431519985199,0.39991772174835205,0.08042418956756592
1772649168771879700,0.279879638671875,0.8874566555023193,0.45814839005470276,0.09346293658018112
1772649168781923800,0.289923828125,0.9482390880584717,0.4817708730697632,0.1278052031993866
1772649168791967700,0.2999677734375,1.029920220375061,0.5292046070098877,0.18302232027053833
1772649168802011600,0.31001171875,1.11233389377594,0.5804182887077332,0.24371123313903809
1772649168812055800,0.320055908203125,1.1830475330352783,0.5859116911888123,0.2986118197441101
1772649168822099700,0.330099609375,1.2444747686386108,0.5586265325546265,0.3552783131599426
1772649168832144000,0.340143798828125,1.2874455451965332,0.5096774101257324,0.40932250022888184
1772649168842188800,0.350188720703125,1.296650767326355,0.46110105514526367,0.46182113885879517
1772649168852232700,0.360232666015625,1.2879091501235962,0.4192150831222534,0.5000816583633423
1772649168862276900,0.37027685546875,1.29331374168396,0.3814104497432709,0.5222988128662109
1772649168872320800,0.38032080078125,1.3490759134292603,0.4359738528728485,0.5095972418785095
1772649168882364700,0.39036474609375,1.43760347366333,0.46960052847862244,0.413971871137619
1772649168892408600,0.40040869140625,1.568088412284851,0.40678995847702026,0.29962825775146484
1772649168902452700,0.41045263671875,1.738664150238037,0.3440576195716858,0.22437451779842377
1772649168912497000,0.420496826171875,1.8934603929519653,0.32734590768814087,0.19080860912799835
1772649168922541600,0.43054150390625,1.9902878999710083,0.2927093505859375,0.18271712958812714
1772649168932585700,0.440585693359375,2.0159802436828613,0.23949821293354034,0.20006456971168518
1772649168942630000,0.4506298828125,1.9826641082763672,0.16752254962921143,0.2425057739019394
1772649168952673800,0.460673828125,1.9111878871917725,0.10793061554431915,0.3072110414505005
1772649168962717700,0.4707177734375,1.8190803527832031,0.07475029677152634,0.409463107585907
1772649168972761600,0.48076171875,1.7264658212661743,0.08140476793050766,0.540055513381958
1772649168982805800,0.4908056640625,1.650514841079712,0.13362295925617218,0.6998542547225952
1772649168992850000,0.500849853515625,1.5904017686843872,0.20768457651138306,0.8794340491294861
1772649169002893600,0.5108935546875,1.5523641109466553,0.263200581073761,1.0314483642578125
1772649169012938800,0.520938720703125,1.5127373933792114,0.3564658761024475,1.1551191806793213
1772649169022983000,0.53098291015625,1.4713995456695557,0.48450639843940735,1.2556617259979248
1772649169033026800,0.54102685546875,1.399392008781433,0.6085457801818848,1.309125304222107
1772649169043070700,0.55107080078125,1.3035110235214233,0.6480159759521484,1.2907449007034302
1772649169053114600,0.561114501953125,1.2159658670425415,0.6452860236167908,1.2352091073989868
1772649169063158800,0.57115869140625,1.1548329591751099,0.6612290143966675,1.1841216087341309
1772649169073202700,0.58120263671875,1.1429706811904907,0.7057989239692688,1.167673945426941
1772649169083246600,0.59124658203125,1.191896677017212,0.7118020057678223,1.1469310522079468
1772649169093290800,0.601290771484375,1.2908543348312378,0.5989325642585754,1.1045558452606201
1772649169103335700,0.611335693359375,1.4061793088912964,0.4828467071056366,1.0287127494812012
1772649169113379800,0.6213798828125,1.4993133544921875,0.38469600677490234,0.9027333855628967
1772649169123423700,0.631423828125,1.550537109375,0.41321977972984314,0.7706778645515442
1772649169133467600,0.641467529296875,1.5898691415786743,0.6201202869415283,0.6614751815795898
1772649169143511800,0.65151171875,1.6107491254806519,0.5137829184532166,0.5787779092788696
1772649169153555700,0.6615556640625,1.6106785535812378,0.5623904466629028,0.5360320210456848
1772649169163599600,0.671599609375,1.622761845588684,0.77846360206604,0.4876117706298828
1772649169173643800,0.681643798828125,1.6033464670181274,0.8565794229507446,0.3581993877887726
1772649169183689200,0.691689208984375,1.4737740755081177,0.8604418039321899,0.1682795137166977
1772649169193733000,0.701733154296875,1.3205024003982544,0.9098372459411621,-0.021566903218626976
1772649169203777000,0.711777099609375,1.2018084526062012,1.0561187267303467,-0.12822571396827698
1772649169213821200,0.7218212890625,1.1373544931411743,1.1346919536590576,-0.23547683656215668
1772649169223865000,0.731864990234375,1.1113157272338867,1.2478212118148804,-0.31897786259651184
1772649169233909200,0.7419091796875,1.1594958305358887,1.223860502243042,-0.4128343164920807
1772649169243953200,0.751953125,1.242059350013733,1.1935955286026,-0.5229703783988953
1772649169253997000,0.7619970703125,1.3284358978271484,1.1430703401565552,-0.62421053647995
1772649169264042200,0.772042236328125,1.4117242097854614,1.0750186443328857,-0.6991220712661743
1772649169274086100,0.782086181640625,1.4873374700546265,1.0367869138717651,-0.726963222026825
1772649169284130000,0.792130126953125,1.5513904094696045,1.0338984727859497,-0.725598931312561
1772649169294174200,0.80217431640625,1.5942350625991821,0.9981186985969543,-0.7081143260002136
1772649169304218000,0.812218017578125,1.6126476526260376,0.9574988484382629,-0.6894186735153198
1772649169314262300,0.82226220703125,1.622982144355774,0.9546575546264648,-0.6359214782714844
1772649169324306200,0.83230615234375,1.622967004776001,1.0503758192062378,-0.5049235224723816
1772649169334350000,0.84235009765625,1.6023973226547241,1.0884270668029785,-0.3429567813873291
1772649169344394200,0.852394287109375,1.565635085105896,0.9384711384773254,-0.24256837368011475
1772649169354439000,0.86243896484375,1.5586458444595337,0.8090577721595764,-0.18507657945156097
1772649169364483000,0.872483154296875,1.584104299545288,0.5554452538490295,-0.18371064960956573
1772649169374527200,0.88252734375,1.5932133197784424,0.5627092719078064,-0.2064371407032013
1772649169384571100,0.892571044921875,1.575685977935791,0.5625439286231995,-0.29372039437294006
1772649169394615300,0.902615234375,1.5684043169021606,0.5910283327102661,-0.41406333446502686
1772649169404659000,0.912658935546875,1.5452529191970825,0.6005980968475342,-0.5413808226585388
1772649169414703000,0.922703125,1.496498465538025,0.5897801518440247,-0.6504364609718323
1772649169424747300,0.932747314453125,1.4194246530532837,0.544032096862793,-0.7394284009933472
1772649169434791200,0.942791259765625,1.320302963256836,0.45559853315353394,-0.7921363115310669
1772649169444836000,0.952836181640625,1.2399348020553589,0.3378913700580597,-0.802212655544281
1772649169454880300,0.96288037109375,1.231310486793518,0.3046524226665497,-0.7970534563064575
1772649169464924200,0.972924072265625,1.3229031562805176,0.31302592158317566,-0.8108843564987183
1772649169474968300,0.98296826171875,1.4605939388275146,0.28540557622909546,-0.7913169860839844
1772649169485012000,0.993011962890625,1.60469388961792,0.30243462324142456,-0.7678346037864685
1772649169495056100,1.00305615234375,1.7230501174926758,0.3129054307937622,-0.7568516731262207
1772649169505100300,1.013100341796875,1.8182830810546875,0.3060288727283478,-0.7447028756141663
1772649169515144200,1.023144287109375,1.8791654109954834,0.33673524856567383,-0.6841022372245789
1772649169525189000,1.033189208984375,1.8927687406539917,0.3874644935131073,-0.6088165044784546
1772649169535233000,1.04323291015625,1.8527015447616577,0.41747111082077026,-0.559321939945221
1772649169545277200,1.053277099609375,1.7902032136917114,0.40277713537216187,-0.5400747656822205
1772649169555321300,1.0633212890625,1.7338248491287231,0.34144631028175354,-0.5335268974304199
1772649169565365000,1.073364990234375,1.6919002532958984,0.3223668932914734,-0.514310359954834
1772649169575409200,1.0834091796875,1.6317634582519531,0.3553312420845032,-0.49911409616470337
1772649169585453000,1.093453125,1.5752077102661133,0.30299586057662964,-0.4850672781467438
1772649169595497200,1.103497314453125,1.5604281425476074,0.27673864364624023,-0.46953752636909485
1772649169605541000,1.113541015625,1.5737061500549316,0.26766738295555115,-0.459775447845459
1772649169615586000,1.1235859375,1.5976006984710693,0.25660231709480286,-0.45404407382011414
1772649169625630200,1.133630126953125,1.6232839822769165,0.2620655298233032,-0.45503583550453186
1772649169635674000,1.143674072265625,1.6268861293792725,0.2553013563156128,-0.4642961621284485
1772649169645718000,1.153718017578125,1.626449704170227,0.22824259102344513,-0.4844166040420532
1772649169655762200,1.16376220703125,1.6226729154586792,0.19815343618392944,-0.529726505279541
1772649169665806000,1.17380615234375,1.6188504695892334,0.1509246677160263,-0.5937025547027588
1772649169675850200,1.183850341796875,1.611970067024231,0.10252408683300018,-0.6202862858772278
1772649169685894100,1.19389404296875,1.5766264200210571,0.15228044986724854,-0.5764056444168091
1772649169695938000,1.20393798828125,1.5235339403152466,0.19010239839553833,-0.483572393655777
1772649169705983200,1.213983154296875,1.4500056505203247,0.24219968914985657,-0.37209275364875793
1772649169716027100,1.224027099609375,1.3769731521606445,0.25556719303131104,-0.25755491852760315
1772649169726071000,1.234071044921875,1.3111919164657593,0.25446969270706177,-0.14366590976715088
1772649169736115200,1.244115234375,1.2634435892105103,0.241206556558609,-0.04916149005293846
1772649169746159000,1.2541591796875,1.2251513004302979,0.19399109482765198,0.013071526773273945
1772649169756203300,1.264203369140625,1.1891382932662964,0.11545591056346893,0.05034012719988823
1772649169766247000,1.274246826171875,1.1589852571487427,0.04723425209522247,0.06277468800544739
1772649169776291000,1.284291015625,1.130833625793457,-0.0115100909024477,0.05795198678970337
1772649169786336300,1.294336181640625,1.0913554430007935,-0.05199333280324936,0.03982677683234215
1772649169796380200,1.304380126953125,1.054547905921936,-0.08949147164821625,0.022423483431339264
1772649169806424000,1.314424072265625,1.015528678894043,-0.08441655337810516,0.02816792204976082
1772649169816468200,1.32446826171875,0.973189115524292,-0.032325346022844315,0.034750375896692276
1772649169826512100,1.33451220703125,0.9354158639907837,0.045472513884305954,0.02888423204421997
1772649169836556300,1.344556396484375,0.9127617478370667,0.13249239325523376,0.01502600871026516
1772649169846600000,1.354599853515625,0.9099547863006592,0.21738570928573608,-0.0034171808511018753
1772649169856644000,1.36464404296875,0.9136427640914917,0.29946914315223694,-0.02408224530518055
1772649169866688300,1.374688232421875,0.9144057035446167,0.3602201044559479,-0.04323463514447212
1772649169876733200,1.384733154296875,0.9096082448959351,0.38287994265556335,-0.0769818127155304
1772649169886777000,1.394777099609375,0.9064726233482361,0.37455809116363525,-0.11214299499988556
1772649169896821000,1.404821044921875,0.9144662618637085,0.36537256836891174,-0.1472470760345459
1772649169906865200,1.414865234375,0.9206410646438599,0.3539193868637085,-0.1787802278995514
1772649169916909300,1.424909423828125,0.9267891049385071,0.324436753988266,-0.19878271222114563
1772649169926953000,1.434952880859375,0.9256982207298279,0.2919515073299408,-0.228995218873024
1772649169936997000,1.4449970703125,0.925000786781311,0.24912655353546143,-0.2579520642757416
1772649169947041000,1.455041015625,0.9242473840713501,0.1919306516647339,-0.2796618640422821
1772649169957085200,1.465085205078125,0.9074609875679016,0.1460789442062378,-0.2792055308818817
1772649169967130000,1.475130126953125,0.8500456213951111,0.10681381821632385,-0.2694391906261444
1772649169977174000,1.485174072265625,0.8148554563522339,0.05955080687999725,-0.2409391850233078
1772649169987218200,1.49521826171875,0.799694299697876,0.04363842308521271,-0.2087405025959015
1772649169997262300,1.505262451171875,0.8026431798934937,0.015019351616501808,-0.19375662505626678
1772649170007306000,1.515305908203125,0.8137179017066956,-0.009959768503904343,-0.2111707627773285
1772649170017350100,1.52535009765625,0.8532140851020813,-0.05379043519496918,-0.2640460133552551
1772649170027394000,1.53539404296875,0.8754048347473145,-0.1534251570701599,-0.3126641511917114
1772649170037438200,1.545438232421875,0.892496645450592,-0.2365991473197937,-0.28891927003860474
1772649170047482400,1.555482421875,0.8771349787712097,-0.23808544874191284,-0.18800170719623566
1772649170057527000,1.565527099609375,0.817906379699707,-0.2682132124900818,-0.08566358685493469
1772649170067571200,1.5755712890625,0.7642013430595398,-0.2297707498073578,0.020129956305027008
1772649170077615000,1.585614990234375,0.7384118437767029,-0.16481563448905945,0.10214918106794357
1772649170087659000,1.595658935546875,0.7767475247383118,0.05857856199145317,0.22424446046352386
1772649170097703200,1.605703125,0.7247266173362732,0.049588195979595184,0.25701919198036194
1772649170107747000,1.6157470703125,0.7669989466667175,0.15784169733524323,0.3394767940044403
1772649170117791200,1.625791259765625,0.7745846509933472,0.10167156159877777,0.34300148487091064
1772649170127835100,1.635835205078125,0.8284201622009277,-0.06679441034793854,0.3201763331890106
1772649170137880000,1.645880126953125,0.8932315707206726,-0.15354782342910767,0.29489845037460327
1772649170147924200,1.65592431640625,0.988760769367218,-0.02498132921755314,0.27396705746650696
1772649170157968100,1.665968017578125,1.0502961874008179,0.18476082384586334,0.24128852784633636
1772649170168012000,1.676011962890625,1.0809789896011353,0.4112789034843445,0.2188204973936081
1772649170178056200,1.68605615234375,1.057983160018921,0.594119668006897,0.19797460734844208
1772649170188100000,1.69610009765625,0.9879900217056274,0.6441130638122559,0.198409765958786
1772649170198144300,1.706144287109375,0.8166648745536804,0.6423353552818298,0.16451598703861237
1772649170208188200,1.716188232421875,0.5996897220611572,0.5057028532028198,0.14842911064624786
1772649170218232000,1.726232177734375,0.3861025273799896,0.23291818797588348,0.1637091338634491
1772649170228277200,1.73627734375,0.20732475817203522,-0.012497437186539173,0.2237042933702469
1772649170238321200,1.746321044921875,0.05644375458359718,-0.2276749312877655,0.3076591491699219
1772649170248365000,1.756364990234375,-0.02764609083533287,-0.4086647033691406,0.38526099920272827
1772649170258409000,1.766408935546875,-0.05925843492150307,-0.5628563165664673,0.44797831773757935
1772649170268453000,1.776453125,-0.06318819522857666,-0.6246035695075989,0.4673493504524231
1772649170278497300,1.786497314453125,-0.04609295725822449,-0.5790530443191528,0.4443383514881134
1772649170288541200,1.796541259765625,-0.007880856283009052,-0.43540719151496887,0.3770006000995636
1772649170298585000,1.806585205078125,0.049765754491090775,-0.23193509876728058,0.2543618977069855
1772649170308629000,1.81662890625,0.07203057408332825,-0.12438680231571198,0.03619068115949631
1772649170318674200,1.826674072265625,0.12676329910755157,0.17889802157878876,-0.17745749652385712
1772649170328718000,1.836718017578125,0.18374961614608765,0.4151933789253235,-0.42371121048927307
1772649170338762000,1.846761962890625,0.23915570974349976,0.5322449207305908,-0.6357430219650269
1772649170348806100,1.85680615234375,0.2888159453868866,0.6149342060089111,-0.667492687702179
1772649170358850300,1.866850341796875,0.32011649012565613,0.7375099062919617,-0.5387319326400757
1772649170368894200,1.876894287109375,0.32709717750549316,0.8707044720649719,-0.35331249237060547
1772649170378938000,1.886938232421875,0.34576988220214844,0.8632774353027344,-0.20024941861629486
1772649170388982000,1.89698193359375,0.4422903060913086,0.6503643989562988,-0.04403344541788101
1772649170399026200,1.907026123046875,0.491550087928772,0.2144382894039154,0.15629267692565918
1772649170409071000,1.917071044921875,0.446681946516037,-0.04051198810338974,0.5156245231628418
1772649170419115000,1.927114990234375,0.31633317470550537,-0.33360716700553894,0.7651667594909668
1772649170429159200,1.9371591796875,0.2742701470851898,-0.4902154207229614,0.90412837266922
1772649170439203000,1.947203125,0.30269718170166016,-0.4537738561630249,0.9115384221076965
1772649170449247200,1.957247314453125,0.32285013794898987,-0.2616336941719055,0.890807569026947
1772649170459291100,1.967291015625,0.34040504693984985,0.14704124629497528,0.9189068675041199
1772649170469335000,1.9773349609375,0.4373970925807953,0.46616649627685547,0.8032692074775696
1772649170479379200,1.987379150390625,0.41354259848594666,0.470929354429245,0.3918573558330536
1772649170489423000,1.997423095703125,0.36893677711486816,0.4858616888523102,0.05195678025484085
1772649170499468000,2.007468017578125,0.3566732406616211,0.4045582413673401,-0.19512447714805603
1772649170509512200,2.01751220703125,0.37417182326316833,0.3832305669784546,-0.3359854519367218
1772649170519556000,2.02755615234375,0.4460899233818054,0.4471539258956909,-0.41965222358703613
1772649170529600300,2.037600341796875,0.5360006093978882,0.5032283663749695,-0.5213207602500916
1772649170539644200,2.04764404296875,0.5204270482063293,0.4865279495716095,-0.6203226447105408
1772649170549688000,2.05768798828125,0.36311277747154236,0.3976753056049347,-0.597211480140686
1772649170559732200,2.067732177734375,0.14412780106067657,0.20072275400161743,-0.4246736466884613
1772649170569776000,2.077776123046875,-0.041745129972696304,-0.08353320509195328,-0.2127360999584198
1772649170579821000,2.087821044921875,-0.1737954318523407,-0.4595794379711151,-0.12174329161643982
1772649170589865200,2.097865234375,-0.24546216428279877,-0.9868097305297852,-0.16960802674293518
1772649170599909000,2.1079091796875,-0.26677125692367554,-1.3030948638916016,-0.3130026161670685
1772649170609953300,2.117953369140625,-0.18234959244728088,-1.4032707214355469,-0.4366132318973541
1772649170619997000,2.127996826171875,-0.11343184113502502,-1.4515955448150635,-0.4295770823955536
1772649170630041000,2.138041015625,-0.17764011025428772,-1.4197680950164795,-0.36002594232559204
1772649170640085200,2.148085205078125,-0.31799641251564026,-1.1627826690673828,-0.3183450698852539
1772649170650129200,2.158129150390625,-0.4111822843551636,-0.7060619592666626,-0.36572057008743286
1772649170660173000,2.168173095703125,-0.3802274763584137,-0.18793697655200958,-0.4051354229450226
1772649170670217000,2.178217041015625,-0.28210464119911194,0.21425761282444,-0.4912987947463989
1772649170680262100,2.18826220703125,-0.1623287796974182,0.42540284991264343,-0.5786057710647583
1772649170690306300,2.198306396484375,-0.04452625289559364,0.42347630858421326,-0.6660985946655273
1772649170700350000,2.208349853515625,0.04464263096451759,0.37464430928230286,-0.7161027789115906
1772649170710394000,2.21839404296875,0.09315156936645508,0.23820710182189941,-0.7799725532531738
1772649170720438300,2.228438232421875,0.03501979261636734,0.09907003492116928,-0.7541061639785767
1772649170730482200,2.238482177734375,0.02255167067050934,0.01566116139292717,-0.5257015228271484
1772649170740526000,2.248526123046875,0.07214681059122086,-0.04821889474987984,-0.19304148852825165
1772649170750570000,2.258570068359375,0.11487563699483871,-0.1441163867712021,0.06529951095581055
1772649170760615200,2.268615234375,0.16026844084262848,-0.27577418088912964,0.19164085388183594
1772649170770659300,2.278659423828125,0.1812267154455185,-0.2995002567768097,0.18396694958209991
1772649170780703000,2.288702880859375,0.18800243735313416,-0.2357664257287979,0.05109808221459389
1772649170790747100,2.2987470703125,0.2032591551542282,-0.08649945259094238,-0.11715617030858994
1772649170800791000,2.308791015625,0.21746200323104858,0.10778447240591049,-0.2847653925418854
1772649170810835200,2.318835205078125,0.22553136944770813,0.30183276534080505,-0.39391183853149414
1772649170820879000,2.328879150390625,0.2303655445575714,0.46877703070640564,-0.4386675953865051
1772649170830923000,2.338923095703125,0.21980024874210358,0.6028780937194824,-0.4459662437438965
1772649170840967200,2.34896728515625,0.17940044403076172,0.7163223028182983,-0.4190623164176941
1772649170851012400,2.359012451171875,0.10978594422340393,0.8062393665313721,-0.34669065475463867
1772649170861056000,2.369055908203125,0.029437487944960594,0.841732382774353,-0.2280258685350418
1772649170871100200,2.37910009765625,-0.038011327385902405,0.7735288143157959,-0.13792313635349274
1772649170881144000,2.38914404296875,-0.10996352881193161,0.6300207376480103,-0.11028093844652176
1772649170891188200,2.399188232421875,-0.18800640106201172,0.4899981617927551,-0.11710689216852188
1772649170901232000,2.409232177734375,-0.2518494725227356,0.41155749559402466,-0.10705319046974182
1772649170911276000,2.419276123046875,-0.31915685534477234,0.39292389154434204,-0.08598598837852478
1772649170921320200,2.4293203125,-0.3743622899055481,0.43181899189949036,-0.040092382580041885
1772649170931364000,2.439364013671875,-0.402495414018631,0.4875810444355011,0.06207100301980972
1772649170941409000,2.449408935546875,-0.4034125506877899,0.5384728312492371,0.21842241287231445
1772649170951453200,2.459453125,-0.379162073135376,0.5349004864692688,0.3696478605270386
1772649170961497000,2.4694970703125,-0.3561035096645355,0.46026450395584106,0.43759337067604065
1772649170971541200,2.479541259765625,-0.35938745737075806,0.29577887058258057,0.40614596009254456
1772649170981585200,2.489585205078125,-0.340816468000412,0.0680546760559082,0.29730620980262756
1772649170991629000,2.499629150390625,-0.3129155933856964,-0.2028958648443222,0.15892967581748962
1772649171001673200,2.509673095703125,-0.3254932463169098,-0.5412724018096924,0.01824873685836792
1772649171011717000,2.519717041015625,-0.3604605495929718,-0.8208398818969727,-0.04402582347393036
1772649171021761300,2.52976123046875,-0.3881125748157501,-0.9935682415962219,-0.012257862836122513
1772649171031806200,2.53980615234375,-0.47648078203201294,-1.0449835062026978,0.021020730957388878
1772649171041850000,2.54985009765625,-0.5564318895339966,-0.9506455659866333,-0.010176216252148151
1772649171051894300,2.559894287109375,-0.563422441482544,-0.7134796380996704,-0.12035198509693146
1772649171061938000,2.56993798828125,-0.49527785181999207,-0.39684736728668213,-0.25652560591697693
1772649171071982000,2.579982177734375,-0.37982290983200073,-0.06727131456136703,-0.2792391777038574
1772649171082026200,2.590026123046875,-0.2426755279302597,0.15849173069000244,-0.17304250597953796
1772649171092070100,2.600070068359375,-0.09506769478321075,0.20569440722465515,-0.025982478633522987
1772649171102114300,2.6101142578125,0.010461737401783466,0.09341412037611008,0.11971309781074524
1772649171112158000,2.620157958984375,0.06757349520921707,-0.06261089444160461,0.2697449326515198
1772649171122203100,2.630203125,0.07717420160770416,-0.23444485664367676,0.42555707693099976
1772649171132247300,2.640247314453125,0.043327294290065765,-0.3944217562675476,0.5726402401924133
1772649171142291000,2.650291015625,0.005529172718524933,-0.4557459056377411,0.6898494362831116
1772649171152335000,2.660335205078125,0.0008241662289947271,-0.4123949706554413,0.7643380165100098
1772649171162379000,2.67037890625,0.057670846581459045,-0.2767643928527832,0.7794086933135986
1772649171172423200,2.680423095703125,0.1781029999256134,-0.1186477318406105,0.6809242367744446
1772649171182466300,2.69046630859375,0.32409629225730896,-0.014715724624693394,0.4940820336341858
1772649171192510200,2.70051025390625,0.46202564239501953,0.01699480041861534,0.2696225643157959
1772649171202554000,2.71055419921875,0.5714797973632812,0.06976775825023651,0.0967395082116127
1772649171212599300,2.720599365234375,0.6132325530052185,0.1437101662158966,-0.0035279684234410524
1772649171222643200,2.730643310546875,0.5899455547332764,0.17631103098392487,-0.05702962353825569
1772649171232687400,2.740687255859375,0.4822428226470947,0.10940682888031006,-0.11693530529737473
1772649171242731300,2.750731201171875,0.3857424557209015,-0.035785604268312454,-0.20343859493732452
1772649171252775200,2.760775146484375,0.3396540582180023,-0.2962872087955475,-0.31797635555267334
1772649171262819300,2.7708193359375,0.3489612340927124,-0.5744695663452148,-0.4542381465435028
1772649171272863200,2.78086328125,0.4142387807369232,-0.7719660997390747,-0.5891096591949463
1772649171282907100,2.7909072265625,0.47245946526527405,-0.8034356236457825,-0.7003270387649536
1772649171292951000,2.800950927734375,0.5186131000518799,-0.5960565805435181,-0.765826404094696
1772649171302996200,2.810996337890625,0.5298106074333191,-0.14458709955215454,-0.7845282554626465
1772649171313040400,2.821040283203125,0.5119295716285706,0.4507836103439331,-0.7224603891372681
1772649171323084000,2.831083984375,0.4968458414077759,0.9946540594100952,-0.5398344993591309
1772649171333128200,2.841128173828125,0.5002272129058838,1.3248220682144165,-0.2909224033355713
1772649171343172400,2.85117236328125,0.5209736227989197,1.2694088220596313,-0.045785386115312576
1772649171353216300,2.86121630859375,0.5310385227203369,0.8146253228187561,0.15242330729961395
1772649171363260200,2.87126025390625,0.5022749304771423,0.21657122671604156,0.26287513971328735
1772649171373304000,2.881303955078125,0.4498271942138672,-0.2923537790775299,0.26194700598716736
1772649171383348200,2.89134814453125,0.354635626077652,-0.620872437953949,0.16645680367946625
1772649171393393200,2.90139306640625,0.20486532151699066,-0.7128292918205261,0.0338154062628746
1772649171403437000,2.91143701171875,0.04149700701236725,-0.585038959980011,-0.10363462567329407
1772649171413481200,2.921481201171875,-0.07553426921367645,-0.39036932587623596,-0.23872825503349304
1772649171423525400,2.931525390625,-0.12555524706840515,-0.18368986248970032,-0.3150291442871094
1772649171433569300,2.9415693359375,-0.11872051656246185,-0.011564448475837708,-0.30388885736465454
1772649171443613200,2.95161328125,-0.06840113550424576,0.09620366990566254,-0.23312874138355255
1772649171453657000,2.961656982421875,-0.007066939491778612,0.14796753227710724,-0.1321169137954712
1772649171463701200,2.971701171875,0.040868666023015976,0.16456857323646545,-0.02757791057229042
1772649171473745200,2.9817451171875,0.06116408109664917,0.13966456055641174,0.021028773859143257
1772649171483790000,2.9917900390625,0.05456347391009331,0.08986624330282211,-0.0015634765150025487
1772649171493834200,3.001834228515625,-0.00015703181270509958,0.040239568799734116,-0.1089695617556572
1772649171503878100,3.011878173828125,-0.08587194979190826,0.012552255764603615,-0.2640691101551056
1772649171513922300,3.02192236328125,-0.18638712167739868,0.0416259840130806,-0.3800966441631317
1772649171523966200,3.03196630859375,-0.296267032623291,0.13933731615543365,-0.4187183380126953
1772649171534010000,3.042010009765625,-0.3728640675544739,0.3075127601623535,-0.3688032627105713
1772649171544054300,3.05205419921875,-0.41621682047843933,0.4895459711551666,-0.24935273826122284
1772649171554098200,3.06209814453125,-0.41739633679389954,0.6691098809242249,-0.07436441630125046
1772649171564142300,3.072142333984375,-0.38472190499305725,0.8260415196418762,0.11334402114152908
1772649171574187300,3.082187255859375,-0.3243696093559265,0.8829565048217773,0.2799822688102722
1772649171584231200,3.092231201171875,-0.2512066066265106,0.8024871349334717,0.4183221459388733
1772649171594275300,3.102275390625,-0.21447710692882538,0.5816277265548706,0.4663003385066986
1772649171604319200,3.1123193359375,-0.19766263663768768,0.30235329270362854,0.418262779712677
1772649171614363100,3.122363037109375,-0.17230935394763947,0.034798286855220795,0.3155640959739685
1772649171624407300,3.1324072265625,-0.22326576709747314,-0.3705695569515228,0.14213699102401733
1772649171634451200,3.142451171875,-0.48643428087234497,-0.9994071125984192,-0.17736004292964935
1772649171644495400,3.152495361328125,-0.7541854977607727,-1.440636396408081,-0.4605417549610138
1772649171654540300,3.162540283203125,-0.8670274019241333,-1.632743239402771,-0.577488362789154
1772649171664584200,3.172584228515625,-0.9608010053634644,-1.5406688451766968,-0.587393045425415
1772649171674628400,3.18262841796875,-1.00115966796875,-1.2275782823562622,-0.6412395238876343
1772649171684672000,3.192672119140625,-0.9365414977073669,-0.8220897316932678,-0.8469533920288086
1772649171694716200,3.202716064453125,-0.8085536956787109,-0.4518405795097351,-1.0903141498565674
1772649171704760300,3.21276025390625,-0.6950610280036926,-0.15503236651420593,-1.1375272274017334
1772649171714804200,3.22280419921875,-0.5763841867446899,0.08523910492658615,-0.9707550406455994
1772649171724848400,3.232848388671875,-0.43645769357681274,0.2174074649810791,-0.7075873017311096
1772649171734892000,3.24289208984375,-0.23589450120925903,0.2038850039243698,-0.3806394934654236
1772649171744937200,3.252937255859375,-0.07714003324508667,0.05904378741979599,-0.12566328048706055
1772649171754981400,3.2629814453125,-0.061537373811006546,-0.09837300330400467,0.02300688996911049
1772649171765025000,3.27302490234375,-0.16565704345703125,-0.3303104341030121,0.15228913724422455
1772649171775069200,3.283069091796875,-0.27866217494010925,-0.5384734869003296,0.3046368658542633
1772649171785113300,3.29311328125,-0.31596606969833374,-0.6223312616348267,0.49075281620025635
1772649171795157200,3.3031572265625,-0.25247472524642944,-0.5744843482971191,0.6785746216773987
1772649171805201400,3.313201416015625,-0.11502571403980255,-0.3452240824699402,0.8730630874633789
1772649171815245000,3.3232451171875,0.114373117685318,-0.12086635082960129,1.0071449279785156
1772649171825289200,3.333289306640625,0.3631129264831543,0.14105325937271118,1.0921801328659058
1772649171835334400,3.34333447265625,0.5915924310684204,0.35829102993011475,1.1250123977661133
1772649171845378000,3.3533779296875,0.705219566822052,0.41802024841308594,1.0894861221313477
1772649171855422200,3.363422119140625,0.7403919100761414,0.3229893445968628,1.0276240110397339
1772649171865466000,3.373466064453125,0.7650646567344666,0.06884601712226868,0.9135575890541077
1772649171875510300,3.38351025390625,0.7625157237052917,-0.28653499484062195,0.731817364692688
1772649171885554400,3.393554443359375,0.7526554465293884,-0.6169627904891968,0.45910367369651794
1772649171895598000,3.40359814453125,0.7052711844444275,-0.8826195001602173,0.1331189125776291
1772649171905642200,3.413642333984375,0.5598454475402832,-1.0345454216003418,-0.2477426677942276
1772649171915686100,3.42368603515625,0.5303429365158081,-1.3997492790222168,-0.8109143972396851
1772649171925731000,3.43373095703125,0.46876761317253113,-1.3152390718460083,-1.3498643636703491
1772649171935775200,3.443775146484375,0.22431500256061554,-0.8027254343032837,-1.6493384838104248
1772649171945819100,3.453819091796875,-0.014648426324129105,-0.14328508079051971,-1.739392876625061
1772649171955863300,3.46386328125,-0.1729118376970291,0.5868045091629028,-1.416678547859192
1772649171965907500,3.473907470703125,-0.21907132863998413,1.115854024887085,-0.6312601566314697
1772649171975951000,3.483951171875,-0.12725059688091278,1.487549066543579,0.3763883709907532
1772649171985995300,3.493995361328125,0.14856122434139252,0.9345877766609192,1.180193305015564
1772649171996039200,3.5040390625,0.24925534427165985,0.1856943666934967,1.5918254852294922
1772649172006083300,3.514083251953125,0.17354272305965424,-0.36563780903816223,1.8832206726074219
1772649172016128300,3.524128173828125,0.09949912875890732,-0.6903809905052185,2.0508198738098145
1772649172026172200,3.534172119140625,0.21701037883758545,-0.8508487939834595,1.834902286529541
1772649172036216300,3.54421630859375,0.19220437109470367,-0.9143199324607849,1.28154718875885
1772649172046260200,3.55426025390625,0.0399179644882679,-0.8438235521316528,0.6323263049125671
1772649172056304000,3.56430419921875,-0.12485074251890182,-0.5087236166000366,0.06506738811731339
1772649172066348300,3.574348388671875,-0.13699118793010712,-0.016467930749058723,-0.4018217921257019
1772649172076392200,3.58439208984375,-0.038351163268089294,0.432547390460968,-0.6099928617477417
1772649172086436400,3.594436279296875,0.05892878398299217,0.7946524024009705,-0.6366335153579712
1772649172096480300,3.604480224609375,0.12234850227832794,0.891901969909668,-0.6111239194869995
1772649172106525200,3.614525146484375,0.13279415667057037,0.8678346276283264,-0.5460692644119263
1772649172116569300,3.6245693359375,0.09051249176263809,0.8234916925430298,-0.45629727840423584
1772649172126613200,3.63461328125,0.05781291797757149,0.742168128490448,-0.33646994829177856
1772649172136657200,3.6446572265625,0.022180089727044106,0.6324706673622131,-0.20958788692951202
1772649172146701300,3.654701416015625,-0.0075763314962387085,0.49994122982025146,-0.07201187312602997
1772649172156745200,3.6647451171875,-0.06804926693439484,0.4124310612678528,0.08589253574609756
1772649172166789400,3.674789306640625,-0.016722211614251137,0.39972344040870667,0.23180155456066132
1772649172176833300,3.684833251953125,-0.02655353769659996,0.5342322587966919,0.3701581060886383
1772649172186877200,3.694877197265625,0.06818204373121262,0.7158969640731812,0.44673454761505127
1772649172196922400,3.70492236328125,0.11992859095335007,0.8214657306671143,0.4779427945613861
1772649172206966300,3.71496630859375,0.24959710240364075,0.8953458070755005,0.4997794032096863
1772649172217010200,3.72501025390625,0.3722231686115265,0.901131272315979,0.4700547754764557
1772649172227054000,3.73505419921875,0.4150155186653137,0.5853376388549805,0.15315550565719604
1772649172237098200,3.74509814453125,0.24507121741771698,0.06639275699853897,-0.43418681621551514
1772649172247142400,3.755142333984375,-0.023893609642982483,-0.2994314730167389,-1.0124789476394653
1772649172257186000,3.76518603515625,-0.28752607107162476,-0.37246572971343994,-1.289473295211792
1772649172267230200,3.775230224609375,-0.5197169780731201,-0.14325015246868134,-1.2187315225601196
1772649172277274000,3.785274169921875,-0.5890821814537048,0.07731897383928299,-1.0683656930923462
1772649172287319300,3.7953193359375,-0.5792096853256226,-0.21212045848369598,-0.9329454302787781
1772649172297363200,3.80536328125,-0.509328305721283,-0.17045077681541443,-0.9601685404777527
1772649172307407000,3.815406982421875,-0.39229249954223633,0.28344282507896423,-1.1077216863632202
1772649172317451300,3.825451171875,-0.12238673120737076,0.649311363697052,-1.1045490503311157
1772649172327495400,3.835495361328125,-0.03732550889253616,0.8494542837142944,-0.8871768712997437
1772649172337539000,3.8455390625,0.09426021575927734,0.9301600456237793,-0.6140284538269043
1772649172347583200,3.855583251953125,0.1303233951330185,0.8517258167266846,-0.3252101242542267
1772649172357627100,3.865627197265625,0.28023990988731384,0.6817485094070435,-0.002512226114049554
1772649172367671300,3.87567138671875,0.26987701654434204,0.5086565017700195,0.269832044839859
1772649172377716200,3.88571630859375,0.380422443151474,0.41848480701446533,0.46113571524620056
1772649172387760000,3.895760009765625,0.3199819028377533,0.3471538722515106,0.5702964663505554
1772649172397804300,3.90580419921875,0.3883420526981354,0.264070987701416,0.658717691898346
1772649172407848200,3.91584814453125,0.2646043002605438,0.16868098080158234,0.7230277061462402
1772649172417892000,3.92589208984375,0.33180493116378784,0.08474933356046677,0.7335789203643799
1772649172427936300,3.935936279296875,0.19718056917190552,0.007867738604545593,0.6965177059173584
1772649172437980200,3.945980224609375,0.2306101769208908,-0.08984284102916718,0.6629786491394043
1772649172448024300,3.9560244140625,0.03948861360549927,-0.16197732090950012,0.629072904586792
1772649172458068200,3.966068115234375,0.0699184238910675,-0.19043372571468353,0.5831083655357361
1772649172468113200,3.976113037109375,-0.14002569019794464,-0.23957960307598114,0.44780319929122925
1772649172478157300,3.9861572265625,-0.1402517855167389,-0.30011990666389465,0.2059682309627533
1772649172488201200,3.996201171875,-0.3715769648551941,-0.4169001579284668,-0.06879591941833496
1772649172498245000,4.0062451171875,-0.3159496486186981,-0.6548464298248291,-0.2543924152851105
1772649172508289300,4.016289306640625,-0.575810968875885,-0.8563840985298157,-0.2964401841163635
1772649172518333200,4.026333251953125,-0.5941351652145386,-0.7621582746505737,-0.09014960378408432
1772649172528377300,4.03637744140625,-0.6641690731048584,-0.43444326519966125,0.24438290297985077
1772649172538421200,4.046421142578125,-0.47926631569862366,-0.11445832997560501,0.5123105049133301
1772649172548466200,4.056466064453125,-0.4155983626842499,0.23573441803455353,0.7477287650108337
1772649172558510300,4.06651025390625,-0.3699520528316498,0.5319964289665222,0.9517572522163391
1772649172568554200,4.07655419921875,-0.3414634168148041,0.6753023266792297,1.03561532497406
1772649172578598100,4.08659814453125,-0.33634722232818604,0.6258854866027832,0.9586212635040283
1772649172588642000,4.09664208984375,-0.31524717807769775,0.47323012351989746,0.6800045967102051
1772649172598686200,4.106686279296875,-0.4071187674999237,0.28767701983451843,0.2825898826122284
1772649172608730400,4.11673046875,-0.5686513781547546,0.09918974339962006,-0.09539071470499039
1772649172618774300,4.126774169921875,-0.6197283864021301,0.13021530210971832,-0.31834444403648376
1772649172628818200,4.136818115234375,-0.5931050181388855,0.24713502824306488,-0.3505968451499939
1772649172638862000,4.146862060546875,-0.5162240862846375,0.35781973600387573,-0.24822333455085754
1772649172648907300,4.1569072265625,-0.40256020426750183,0.4017617404460907,-0.05269080400466919
1772649172658951200,4.166951171875,-0.30172839760780334,0.392513632774353,0.14484038949012756
1772649172668995000,4.1769951171875,-0.252930223941803,0.3158983886241913,0.21574151515960693
1772649172679039200,4.187039306640625,-0.26022809743881226,0.16759414970874786,0.1522996872663498
1772649172689083400,4.19708349609375,-0.291161447763443,-0.0005294336006045341,0.039664652198553085
1772649172699127300,4.207127197265625,-0.3215867280960083,-0.10645213723182678,-0.07979116588830948
1772649172709171200,4.217171142578125,-0.34397897124290466,-0.10270960628986359,-0.18530865013599396
1772649172719215000,4.227215087890625,-0.35212984681129456,-0.038435813039541245,-0.25270766019821167
1772649172729260300,4.23726025390625,-0.2991887032985687,0.05578999221324921,-0.2978115677833557
1772649172739304200,4.24730419921875,-0.25413545966148376,0.2048119604587555,-0.3052833378314972
1772649172749348000,4.25734814453125,-0.28900954127311707,0.43368756771087646,-0.27177438139915466
1772649172759392300,4.267392333984375,-0.2924599051475525,0.6225094199180603,-0.2298136204481125
1772649172769436200,4.277436279296875,-0.2348373532295227,0.7228541374206543,-0.16410411894321442
1772649172779480300,4.287480224609375,-0.1510113924741745,0.7649962306022644,-0.08763723075389862
1772649172789524200,4.297524169921875,-0.10637213289737701,0.6910485625267029,-0.009349587373435497
1772649172799568100,4.307568115234375,-0.10914501547813416,0.43357259035110474,0.032943274825811386
1772649172809612300,4.3176123046875,-0.15976040065288544,-0.11891189962625504,0.07258990406990051
1772649172819656200,4.32765625,-0.3257746696472168,-0.6339104771614075,-0.018155980855226517
1772649172829701000,4.337701171875,-0.5881309509277344,-1.1624950170516968,-0.1665390431880951
1772649172839745300,4.347745361328125,-0.8557261824607849,-1.5329275131225586,-0.244044229388237
1772649172849789200,4.3577890625,-1.018345832824707,-1.7067869901657104,-0.24908459186553955
1772649172859833300,4.367833251953125,-1.1251729726791382,-1.5936797857284546,-0.2875345051288605
1772649172869877200,4.377877197265625,-1.1672545671463013,-1.1110796928405762,-0.35310545563697815
1772649172879921200,4.387921142578125,-1.0572320222854614,-0.3416185975074768,-0.42368561029434204
1772649172889965300,4.39796533203125,-0.7763878703117371,0.2888866066932678,-0.496734619140625
1772649172900009200,4.40800927734375,-0.4503650367259979,0.7486501932144165,-0.5340849757194519
1772649172910053400,4.418053466796875,-0.1738685667514801,0.9082345366477966,-0.36558839678764343
1772649172920098300,4.428098388671875,0.005186672322452068,0.9004865884780884,-0.09735002368688583
1772649172930142200,4.43814208984375,0.07119505107402802,0.7569594383239746,0.20176678895950317
1772649172940186400,4.448186279296875,0.00031049572862684727,0.45093345642089844,0.5920120477676392
1772649172950230000,4.45822998046875,-0.07488009333610535,-0.1939622163772583,0.7911321520805359
1772649172960274200,4.468274169921875,-0.11412150412797928,-0.5188670754432678,0.9275057315826416
1772649172970318300,4.478318359375,-0.04611451178789139,-0.8131516575813293,0.907112717628479
1772649172980362200,4.4883623046875,-0.0019129617139697075,-0.7308700680732727,0.9311836957931519
1772649172990406400,4.498406494140625,0.0664886087179184,-0.7137834429740906,0.7833132743835449
1772649173000451300,4.508451416015625,0.18571992218494415,-0.4834415316581726,0.5691360235214233
1772649173010495200,4.5184951171875,0.3588863015174866,-0.35687994956970215,0.19885362684726715
1772649173020539400,4.528539306640625,0.5095328092575073,-0.2405477613210678,-0.2245202660560608
1772649173030583000,4.5385830078125,0.5914515852928162,-0.16509020328521729,-0.6183266043663025
1772649173040627200,4.548627197265625,0.6399392485618591,-0.07434352487325668,-0.8540568351745605
1772649173050671400,4.55867138671875,0.6644018888473511,0.0537768229842186,-0.9102034568786621
1772649173060715300,4.56871533203125,0.585567831993103,0.1243511214852333,-0.8361095190048218
1772649173070759400,4.578759521484375,0.440484881401062,-0.004043976776301861,-0.7048043608665466
1772649173080803000,4.588802978515625,0.31637704372406006,-0.12025100737810135,-0.5824254155158997
1772649173090848300,4.59884814453125,0.2848527431488037,-0.009202448651194572,-0.48010629415512085
1772649173100892400,4.608892333984375,0.2548884451389313,0.1544826179742813,-0.4002721905708313
1772649173110936000,4.61893603515625,0.16502030193805695,0.22252365946769714,-0.3412882089614868
1772649173120980200,4.628980224609375,-0.02415948174893856,0.04820084944367409,-0.33591556549072266
1772649173131024100,4.639024169921875,-0.15122202038764954,-0.0946892723441124,-0.228867769241333
1772649173141068300,4.649068359375,-0.1457284539937973,-0.301774799823761,-0.12298901379108429
1772649173151112200,4.6591123046875,-0.09201499819755554,-0.48684751987457275,-0.07059135288000107
1772649173161156000,4.669156005859375,-0.017490427941083908,-0.6038833260536194,0.0047404151409864426
1772649173171200300,4.6792001953125,0.05831728130578995,-0.532794713973999,0.13296277821063995
1772649173181245400,4.689245361328125,0.13166794180870056,-0.3710644245147705,0.20564177632331848
1772649173191289300,4.699289306640625,0.19949769973754883,-0.4250549376010895,0.1543787270784378
1772649173201333200,4.709333251953125,0.1619039922952652,-0.2906627953052521,0.10392115265130997
1772649173211377400,4.71937744140625,0.12891751527786255,-0.16549338400363922,-0.0056107500568032265
1772649173221421300,4.72942138671875,0.1317359358072281,-0.08229170739650726,-0.12500397861003876
1772649173231465200,4.73946533203125,0.15574003756046295,0.09976649284362793,-0.16777779161930084
1772649173241509400,4.74950927734375,0.2360609769821167,0.19870132207870483,-0.1333034336566925
1772649173251553300,4.75955322265625,0.32075580954551697,0.4600374102592468,0.020214056596159935
1772649173261597400,4.769597412109375,0.4610823094844818,0.5642178654670715,0.14581964910030365
1772649173271642400,4.779642333984375,0.48209935426712036,0.5829992294311523,0.20877830684185028
1772649173281686300,4.789686279296875,0.46989142894744873,0.477141797542572,0.20223093032836914
1772649173291730400,4.79973046875,0.36515945196151733,0.1847132444381714,0.1364334523677826
1772649173301774300,4.8097744140625,0.23075875639915466,0.3706599473953247,0.18394051492214203
1772649173311818200,4.819818359375,0.21875251829624176,0.24164313077926636,0.14470289647579193
1772649173321862400,4.8298623046875,0.10476629436016083,0.29027512669563293,0.18620853126049042
1772649173331906300,4.83990625,0.06925901770591736,0.3941555917263031,0.27646487951278687
1772649173341950500,4.849950439453125,0.08549471944570541,0.45579206943511963,0.37227076292037964
1772649173351994400,4.859994384765625,0.13129618763923645,0.4670286774635315,0.39204469323158264
1772649173362039300,4.870039306640625,0.16504056751728058,0.4685347080230713,0.3409343659877777
1772649173372083500,4.88008349609375,0.2003350853919983,0.49239394068717957,0.2728734612464905
1772649173382127400,4.89012744140625,0.1862666755914688,0.4848383069038391,0.2796890437602997
1772649173392171300,4.900171142578125,0.1492374688386917,0.3353356719017029,0.35021793842315674
1772649173402215200,4.910215087890625,0.0971982330083847,0.03535294905304909,0.41770777106285095
1772649173412259300,4.92025927734375,0.03664863482117653,-0.03954325616359711,0.48071911931037903
1772649173422303500,4.930303466796875,0.11805055290460587,-0.27796515822410583,0.3870874345302582
1772649173432346400,4.940346435546875,0.078091561794281,-0.6711942553520203,0.16208972036838531
1772649173442390500,4.950390625,-0.07567403465509415,-1.1060147285461426,-0.17421771585941315
1772649173452434200,4.96043408203125,-0.30151885747909546,-1.2740716934204102,-0.44474607706069946
1772649173462478300,4.970478271484375,-0.4467788636684418,-1.1364328861236572,-0.5838587284088135
1772649173472522200,4.980522216796875,-0.4809839427471161,-0.8476616144180298,-0.6591198444366455
1772649173482566400,4.99056640625,-0.49738606810569763,-0.4774555563926697,-0.7886112332344055
1772649173492610600,5.000610595703125,-0.46135464310646057,-0.1328759640455246,-0.9842768311500549
1772649173502655200,5.0106552734375,-0.39270341396331787,0.16890332102775574,-1.0749404430389404
1772649173512699400,5.020699462890625,-0.2764546871185303,0.4397222399711609,-0.9302093386650085
1772649173522743600,5.03074365234375,-0.10195663571357727,0.47115474939346313,-0.5908555388450623
1772649173532787200,5.040787109375,0.003690703772008419,0.25951850414276123,-0.20123963057994843
1772649173542831400,5.050831298828125,0.05457838624715805,-0.044463783502578735,0.11431752145290375
1772649173552875300,5.060875244140625,0.08023969829082489,-0.2518607974052429,0.30384835600852966
1772649173562919400,5.07091943359375,0.06887013465166092,-0.2949827015399933,0.3406292498111725
1772649173572963300,5.08096337890625,0.04362010210752487,-0.22807520627975464,0.2910782992839813
1772649173583007200,5.09100732421875,0.057888783514499664,-0.01935449056327343,0.257472425699234
1772649173593052400,5.101052490234375,0.12739607691764832,0.24939163029193878,0.2849002480506897
1772649173603096300,5.111096435546875,0.21209685504436493,0.38694900274276733,0.2802186906337738
1772649173613140200,5.12114013671875,0.2742938995361328,0.3208569288253784,0.19027742743492126
1772649173623184400,5.131184326171875,0.2960418164730072,0.118244968354702,0.059773221611976624
1772649173633228300,5.141228271484375,0.26963821053504944,-0.09908905625343323,-0.0649607926607132
1772649173643272400,5.1512724609375,0.18033389747142792,-0.19296680390834808,-0.15480999648571014
1772649173653316400,5.16131640625,0.03525546193122864,-0.1533999741077423,-0.18119694292545319
1772649173663360300,5.1713603515625,-0.10857627540826797,0.0008750846609473228,-0.112449049949646
1772649173673404400,5.181404296875,-0.24337142705917358,0.19733862578868866,0.07613679021596909
1772649173683448300,5.1914482421875,-0.3543194830417633,0.29149386286735535,0.33436673879623413
1772649173693493200,5.2014931640625,-0.45146414637565613,0.19178710877895355,0.5535972714424133
1772649173703537200,5.211537109375,-0.5775046348571777,0.03800208121538162,0.6828607320785522
1772649173713581300,5.221581298828125,-0.7041998505592346,-0.06290256977081299,0.7136591076850891
1772649173723625500,5.23162548828125,-0.814835250377655,-0.15464234352111816,0.638338029384613
1772649173733669400,5.24166943359375,-0.8723618388175964,-0.1872677206993103,0.5059458613395691
1772649173743713300,5.25171337890625,-0.8643656969070435,-0.1273583024740219,0.3678494989871979
1772649173753757200,5.261757080078125,-0.7795444130897522,0.024240221828222275,0.23639516532421112
1772649173763801300,5.27180126953125,-0.6649901270866394,0.1814708560705185,0.08949014544487
1772649173773845500,5.281845458984375,-0.577437698841095,0.2786391079425812,-0.06825309991836548
1772649173783890200,5.29189013671875,-0.5324270725250244,0.31804004311561584,-0.2144651710987091
1772649173793934300,5.301934326171875,-0.5170174241065979,0.24203921854496002,-0.3310782015323639
1772649173803978500,5.311978515625,-0.5193729996681213,0.10008421540260315,-0.3724123239517212
1772649173814022400,5.3220224609375,-0.5159078240394592,-0.017476512119174004,-0.29733285307884216
1772649173824067300,5.3320673828125,-0.4899041950702667,-0.07979314774274826,-0.11075524985790253
1772649173834111500,5.342111572265625,-0.4294734299182892,-0.10898381471633911,0.15304383635520935
1772649173844155400,5.3521552734375,-0.3349493145942688,-0.11939997971057892,0.40593066811561584
1772649173854199300,5.36219921875,-0.21108947694301605,-0.12173525989055634,0.5657591223716736
1772649173864243200,5.3722431640625,-0.09440813213586807,-0.17756257951259613,0.6213060021400452
1772649173874287400,5.382287353515625,0.021036209538578987,-0.2219708263874054,0.5804875493049622
1772649173884331300,5.392331298828125,0.1117703765630722,-0.268322616815567,0.4712127447128296
1772649173894375400,5.40237548828125,0.18189769983291626,-0.3136533796787262,0.32990989089012146
1772649173904419300,5.41241943359375,0.22106587886810303,-0.372096449136734,0.22415922582149506
1772649173914464300,5.42246435546875,0.24859830737113953,-0.37993866205215454,0.17763128876686096
1772649173924508400,5.43250830078125,0.2340044379234314,-0.3479596674442291,0.14916981756687164
1772649173934552300,5.44255224609375,0.19506032764911652,-0.2895298898220062,0.130199134349823
1772649173944596200,5.45259619140625,0.13877947628498077,-0.17972750961780548,0.12890084087848663
1772649173954640400,5.462640380859375,0.08512258529663086,-0.03006618469953537,0.14131303131580353
1772649173964684300,5.472684326171875,0.02833493985235691,0.13577178120613098,0.14405982196331024
1772649173974728400,5.482728515625,0.017344003543257713,0.30843445658683777,0.1329454928636551
1772649173984772400,5.4927724609375,0.02960999123752117,0.45015138387680054,0.12524868547916412
1772649173994816300,5.502816162109375,0.04869333282113075,0.5310031175613403,0.16149388253688812
1772649174004860400,5.5128603515625,0.05290405824780464,0.5000910758972168,0.25047624111175537
1772649174014905300,5.5229052734375,0.032556600868701935,0.35495713353157043,0.3485356867313385
1772649174024949200,5.53294921875,0.016348864883184433,0.03447581082582474,0.373678594827652
1772649174034993400,5.542993408203125,-0.016718022525310516,-0.4129195511341095,0.2537333369255066
1772649174045037300,5.553037353515625,-0.04328038915991783,-0.8872184157371521,-0.04569067060947418
1772649174055081500,5.56308154296875,-0.09335323423147202,-1.2475521564483643,-0.40839090943336487
1772649174065125000,5.573125,-0.10968932509422302,-1.2964584827423096,-0.6197121739387512
1772649174075169300,5.583169189453125,-0.03841160237789154,-1.1005229949951172,-0.6376274228096008
1772649174085213400,5.59321337890625,-0.051550574600696564,-0.6365450620651245,-0.6301583051681519
1772649174095257300,5.60325732421875,-0.10387270152568817,-0.10617205500602722,-0.7713215351104736
1772649174105302300,5.61330224609375,-0.09540917724370956,0.19328255951404572,-1.0517339706420898
1772649174115346400,5.623346435546875,-0.056807227432727814,0.3381149172782898,-1.2411761283874512
1772649174125390300,5.633390380859375,0.011736681684851646,0.4600487947463989,-1.1838518381118774
1772649174135434500,5.6434345703125,0.06330158561468124,0.574018120765686,-0.8907560110092163
1772649174145478100,5.65347802734375,0.10139917582273483,0.5560055375099182,-0.45987918972969055
1772649174155522300,5.663522216796875,0.13975518941879272,0.4248575270175934,-0.0677466094493866
1772649174165566500,5.67356640625,0.1445416957139969,0.2760307788848877,0.15399058163166046
1772649174175610400,5.6836103515625,0.11463241279125214,0.1486048549413681,0.19112059473991394
1772649174185654500,5.693654541015625,0.07972051203250885,0.06494750827550888,0.1448518931865692
1772649174195698400,5.703698486328125,0.05059605464339256,0.017714938148856163,0.08805058896541595
1772649174205743600,5.71374365234375,0.04812464118003845,-0.03189416229724884,0.05335865169763565
1772649174215787800,5.723787841796875,0.07849043607711792,-0.0806090235710144,0.028002390637993813
1772649174225831400,5.73383154296875,0.11226411163806915,-0.12740501761436462,-0.03808368369936943
1772649174235875600,5.74387548828125,0.1338678002357483,-0.10977090895175934,-0.17277184128761292
1772649174245919700,5.753919677734375,0.15328730642795563,-0.034892674535512924,-0.33298736810684204
1772649174255963600,5.763963623046875,0.15225040912628174,0.05706717446446419,-0.462528258562088
1772649174266007600,5.774007568359375,0.09990756958723068,0.12331170588731766,-0.5269463658332825
1772649174276051500,5.784051513671875,-0.01854255422949791,0.14111807942390442,-0.5236489772796631
1772649174286095600,5.794095703125,-0.13916350901126862,0.04050438851118088,-0.4316468834877014
1772649174296140500,5.804140625,-0.21150410175323486,-0.14386795461177826,-0.3295396566390991
1772649174306184400,5.814184326171875,-0.25266268849372864,-0.288785457611084,-0.2590327560901642
1772649174316228600,5.824228515625,-0.27305924892425537,-0.28938961029052734,-0.188293918967247
1772649174326272500,5.8342724609375,-0.2941517233848572,-0.13739901781082153,-0.10362829267978668
1772649174336316700,5.844316650390625,-0.3068939745426178,0.04987240582704544,0.004120136145502329
1772649174346360600,5.854360595703125,-0.3034696877002716,0.1500871479511261,0.10786304622888565
1772649174356404500,5.864404541015625,-0.27973634004592896,0.19647203385829926,0.20648229122161865
1772649174366448600,5.87444873046875,-0.2629126310348511,0.2393294870853424,0.3241894841194153
1772649174376492500,5.884492431640625,-0.23518915474414825,0.24390697479248047,0.4637986719608307
1772649174386536700,5.89453662109375,-0.2183433324098587,0.19195722043514252,0.5969383716583252
1772649174396581600,5.90458154296875,-0.1965661644935608,-0.02860056422650814,0.6505934000015259
1772649174406625500,5.91462548828125,-0.1418858766555786,-0.3849184811115265,0.5817360877990723
1772649174416669700,5.924669677734375,-0.054959509521722794,-0.699324905872345,0.38802626729011536
1772649174426713600,5.934713623046875,0.04812319949269295,-0.833135187625885,0.09741415828466415
1772649174436757500,5.944757568359375,0.174005389213562,-0.7239567041397095,-0.16996818780899048
1772649174446801700,5.9548017578125,0.3089914619922638,-0.4142124056816101,-0.323288232088089
1772649174456845600,5.964845458984375,0.40890783071517944,-0.04946555942296982,-0.37214192748069763
1772649174466889700,5.9748896484375,0.46718525886535645,0.13054335117340088,-0.31772926449775696
1772649174476933400,5.984933349609375,0.48278942704200745,0.17259155213832855,-0.1710129678249359
1772649174486978600,5.994978515625,0.47706443071365356,0.16688041388988495,0.020135946571826935
1772649174497022700,6.005022705078125,0.44207534193992615,0.13131102919578552,0.1749689280986786
1772649174507066400,6.01506640625,0.38458356261253357,0.06700208783149719,0.2575346529483795
1772649174517110500,6.025110595703125,0.3292789161205292,-0.05607152357697487,0.28455936908721924
1772649174527154700,6.03515478515625,0.29245057702064514,-0.11397796124219894,0.26025667786598206
1772649174537198600,6.045198486328125,0.270585834980011,-0.04243990778923035,0.2308994084596634
1772649174547242800,6.05524267578125,0.2705477476119995,0.11289162188768387,0.18565788865089417
1772649174557286400,6.065286376953125,0.2822655141353607,0.3110642433166504,0.14226162433624268
1772649174567330600,6.07533056640625,0.3147059977054596,0.5098732113838196,0.10449960827827454
1772649174577375700,6.085375732421875,0.3306620419025421,0.6468525528907776,0.04360095039010048
1772649174587419400,6.09541943359375,0.3081231713294983,0.6604114770889282,0.011857138015329838
1772649174597463600,6.105463623046875,0.28167951107025146,0.5625635385513306,0.025557423010468483
1772649174607507700,6.1155078125,0.25360608100891113,0.38366246223449707,0.06198893487453461
1772649174617551600,6.125551513671875,0.22483643889427185,0.13390450179576874,0.07555988430976868
1772649174627595800,6.135595703125,0.195670023560524,-0.12359601259231567,0.04782625660300255
1772649174637639400,6.145639404296875,0.12877947092056274,-0.39432862401008606,-0.04936555400490761
1772649174647683600,6.15568359375,-0.010112904012203217,-0.6859860420227051,-0.12645740807056427
1772649174657727500,6.1657275390625,-0.18449828028678894,-0.8785033822059631,-0.08197802305221558
1772649174667771600,6.175771728515625,-0.2752324640750885,-0.8934109210968018,0.03726581111550331
1772649174677816600,6.185816650390625,-0.3062080144882202,-0.7084388136863708,0.027991658076643944
1772649174687860500,6.195860595703125,-0.36020520329475403,-0.4098814129829407,-0.229263573884964
1772649174697904600,6.205904541015625,-0.33845055103302,-0.08833619952201843,-0.6490839123725891
1772649174707948800,6.21594873046875,-0.23524320125579834,0.23880676925182343,-1.0665279626846313
1772649174717992400,6.225992431640625,-0.12985926866531372,0.5236728191375732,-1.3348760604858398
1772649174728036600,6.23603662109375,-0.040301430970430374,0.7219353318214417,-1.412874460220337
1772649174738080500,6.24608056640625,0.03729281947016716,0.7686282396316528,-1.2927926778793335
1772649174748124700,6.256124755859375,0.12049183249473572,0.7129812240600586,-1.0198854207992554
1772649174758168600,6.26616845703125,0.16943907737731934,0.5957857966423035,-0.6725757122039795
1772649174768212500,6.27621240234375,0.16835810244083405,0.4544590711593628,-0.3427266776561737
1772649174778257700,6.286257568359375,0.1352885514497757,0.36299240589141846,-0.06788118928670883
1772649174788301800,6.2963017578125,0.08018241822719574,0.2887783646583557,0.11775472015142441
1772649174798345500,6.306345458984375,0.0358620285987854,0.2156563103199005,0.24835143983364105
1772649174808389600,6.3163896484375,0.04541505128145218,0.190964013338089,0.3531303107738495
1772649174818433500,6.32643359375,0.1133398786187172,0.19660596549510956,0.4067336618900299
1772649174828477700,6.336477783203125,0.20919397473335266,0.23988553881645203,0.36638757586479187
1772649174838521600,6.346521484375,0.2879718244075775,0.3286360502243042,0.23462620377540588
1772649174848565500,6.3565654296875,0.3172450363636017,0.3801160156726837,0.06447631865739822
1772649174858609700,6.366609619140625,0.2904326021671295,0.35868367552757263,-0.09943591803312302
1772649174868654600,6.376654541015625,0.22095870971679688,0.2917155623435974,-0.21298405528068542
1772649174878698500,6.386698486328125,0.10639890283346176,0.2017921507358551,-0.2766099274158478
1772649174888742700,6.39674267578125,0.007300015538930893,0.09034258872270584,-0.31650009751319885
1772649174898786600,6.40678662109375,-0.0907520055770874,-0.012215683236718178,-0.33420753479003906
1772649174908830700,6.416830810546875,-0.18716855347156525,-0.11133534461259842,-0.31459522247314453
1772649174918874600,6.42687451171875,-0.2773705720901489,-0.2243301123380661,-0.23333118855953217
1772649174928918500,6.43691845703125,-0.34529823064804077,-0.3274940252304077,-0.06740026921033859
1772649174938962700,6.446962646484375,-0.3810022473335266,-0.3636874258518219,0.1429227590560913
1772649174949006600,6.457006591796875,-0.37626874446868896,-0.3101709485054016,0.3197840750217438
1772649174959050800,6.46705078125,-0.3358420729637146,-0.19704769551753998,0.4320741593837738
1772649174969095700,6.477095703125,-0.2585243880748749,0.016078684478998184,0.5101617574691772
1772649174979139600,6.4871396484375,-0.1599600911140442,0.16827481985092163,0.4816270172595978
1772649174989183700,6.497183837890625,-0.07116098701953888,0.27960482239723206,0.3879905343055725
1772649174999227600,6.5072275390625,-0.034967582672834396,0.35631269216537476,0.21894656121730804
1772649175009271600,6.517271484375,-0.034170765429735184,0.3849741518497467,0.011590434238314629
1772649175019315500,6.5273154296875,-0.08655034750699997,0.35580065846443176,-0.18319083750247955
1772649175029359600,6.537359619140625,-0.16951501369476318,0.3075766861438751,-0.2701835036277771
1772649175039403800,6.54740380859375,-0.21954618394374847,0.2236688733100891,-0.23808856308460236
1772649175049447400,6.557447509765625,-0.2182055413722992,0.14805959165096283,-0.1073976531624794
1772649175059491600,6.56749169921875,-0.16445736587047577,0.08537126332521439,0.06965188682079315
1772649175069536800,6.577536865234375,-0.09051735699176788,0.03591955825686455,0.24254538118839264
1772649175079580700,6.58758056640625,-0.003165852976962924,-0.03441982343792915,0.3533390760421753
1772649175089624600,6.59762451171875,0.07227031886577606,-0.0983538031578064,0.3957381844520569
1772649175099668500,6.60766845703125,0.13320903480052948,-0.12182911485433578,0.40924662351608276
1772649175109712600,6.617712646484375,0.19467025995254517,-0.11303003132343292,0.3946668803691864
1772649175119756800,6.6277568359375,0.2364124357700348,-0.10239329934120178,0.34205690026283264
1772649175129800400,6.637800537109375,0.26641881465911865,-0.11941489577293396,0.28887462615966797
1772649175139844600,6.6478447265625,0.31182897090911865,-0.1759384423494339,0.2627483904361725
1772649175149888500,6.657888427734375,0.34498584270477295,-0.2342938929796219,0.27010059356689453
1772649175159933400,6.667933349609375,0.3272976577281952,-0.2517313063144684,0.33282580971717834
1772649175169977600,6.6779775390625,0.29053059220314026,-0.217279314994812,0.44314566254615784
1772649175180021500,6.688021484375,0.2508346438407898,-0.16960865259170532,0.5670843720436096
1772649175190065200,6.698065185546875,0.2156958281993866,-0.11010006070137024,0.6850153207778931
1772649175200109300,6.708109375,0.1910437047481537,-0.037941135466098785,0.7710515260696411
1772649175210153200,6.7181533203125,0.19770294427871704,0.0028747394680976868,0.7667633295059204
1772649175220197000,6.728197021484375,0.2044191062450409,-0.05857273191213608,0.655005693435669
1772649175230241300,6.7382412109375,0.18843933939933777,-0.22101916372776031,0.4986155331134796
1772649175240285200,6.74828515625,0.13591311872005463,-0.4817929267883301,0.31841251254081726
1772649175250329300,6.758329345703125,0.03248552605509758,-0.7156943678855896,0.17139695584774017
1772649175260374300,6.768374267578125,-0.1038522720336914,-0.8085227012634277,0.03705582022666931
1772649175270418200,6.778418212890625,-0.23383796215057373,-0.758376955986023,-0.09188484400510788
1772649175280462300,6.78846240234375,-0.3262983560562134,-0.5146949291229248,-0.13782952725887299
1772649175290506200,6.79850634765625,-0.3782539665699005,-0.15185199677944183,-0.06281467527151108
1772649175300550100,6.808550048828125,-0.3918437063694,0.07379831373691559,-0.008117102086544037
1772649175310594300,6.81859423828125,-0.4077896475791931,0.12088167667388916,-0.1362931728363037
1772649175320638200,6.82863818359375,-0.387906938791275,0.056595031172037125,-0.48828572034835815
1772649175330682400,6.838682373046875,-0.34090667963027954,-0.06552901118993759,-0.9638993740081787
1772649175340726300,6.848726318359375,-0.2989656627178192,-0.12272905558347702,-1.387763500213623
1772649175350770200,6.858770263671875,-0.27678340673446655,-0.06395389139652252,-1.5838794708251953
1772649175360815400,6.8688154296875,-0.23438307642936707,0.03636143356561661,-1.4952222108840942
1772649175370859300,6.878859375,-0.16615767776966095,0.24874906241893768,-1.1270471811294556
1772649175380903200,6.888903076171875,-0.10405001789331436,0.5735671520233154,-0.5478517413139343
1772649175390947300,6.898947265625,-0.07399198412895203,0.7571537494659424,0.01780264638364315
1772649175400991200,6.9089912109375,-0.09195119142532349,0.7702950239181519,0.4509217143058777
1772649175411035400,6.919035400390625,-0.11537129431962967,0.6687207221984863,0.695747971534729
1772649175421079000,6.9290791015625,-0.11873820424079895,0.47814545035362244,0.7695783972740173
1772649175431123200,6.939123291015625,-0.0944746732711792,0.3400650918483734,0.7088702917098999
1772649175441167400,6.94916748046875,-0.02333083003759384,0.2578723132610321,0.5468071103096008
1772649175451211300,6.959211181640625,0.06385466456413269,0.25531649589538574,0.3363391160964966
1772649175461256200,6.969256103515625,0.1323043704032898,0.3146335482597351,0.14838242530822754
1772649175471300400,6.97930029296875,0.18875326216220856,0.3772343397140503,0.012415536679327488
1772649175481344300,6.98934423828125,0.2282540649175644,0.3875599503517151,-0.0658278688788414
1772649175491388400,6.999388427734375,0.2757342457771301,0.3636631369590759,-0.09627126157283783
1772649175501432000,7.00943212890625,0.304517537355423,0.26274675130844116,-0.12345648556947708
1772649175511476200,7.019476318359375,0.3115951716899872,0.12385808676481247,-0.1397118866443634
1772649175521520400,7.029520263671875,0.2917616069316864,-0.09246741235256195,-0.14288942515850067
1772649175531564300,7.039564208984375,0.2444729059934616,-0.3171346187591553,-0.13597506284713745
1772649175541608400,7.0496083984375,0.17666786909103394,-0.4205659329891205,-0.09275021404027939
1772649175551653000,7.059653076171875,0.11261086910963058,-0.38167262077331543,-0.014377914369106293
1772649175561697300,7.069697265625,0.055147960782051086,-0.2503200173377991,0.09794244915246964
1772649175571741400,7.079741455078125,-0.026865147054195404,-0.02705443650484085,0.25124090909957886
1772649175581785000,7.08978515625,-0.07404947280883789,0.1881600022315979,0.4101284444332123
1772649175591829200,7.099829345703125,-0.10362307727336884,0.26405104994773865,0.529900074005127
1772649175601873200,7.109873046875,-0.13184215128421783,0.2375570833683014,0.5955859422683716
1772649175611917300,7.119917236328125,-0.14461466670036316,0.136530339717865,0.5742127299308777
1772649175621961500,7.12996142578125,-0.14878472685813904,-0.02637329325079918,0.44035255908966064
1772649175632005000,7.140005126953125,-0.14935864508152008,-0.14772900938987732,0.24670107662677765
1772649175642049300,7.15004931640625,-0.14148499071598053,-0.14988553524017334,0.064942367374897
1772649175652094500,7.160094482421875,-0.13141265511512756,-0.033524300903081894,-0.04834211245179176
1772649175662138000,7.17013818359375,-0.10026286542415619,0.15197941660881042,-0.05675482749938965
1772649175672182300,7.180182373046875,-0.05814017355442047,0.3137083947658539,0.03386934846639633
1772649175682226200,7.19022607421875,-0.016388682648539543,0.40011194348335266,0.17994432151317596
1772649175692270300,7.200270263671875,0.003677437547594309,0.37348806858062744,0.33136633038520813
1772649175702314500,7.210314453125,0.010909377597272396,0.19545894861221313,0.436353862285614
1772649175712358100,7.220358154296875,0.014524086378514767,-0.12294699251651764,0.4504837989807129
1772649175722402300,7.23040234375,0.0006536704022437334,-0.4843944013118744,0.3663616180419922
1772649175732446200,7.2404462890625,-0.02664080262184143,-0.7488127946853638,0.1816762089729309
1772649175742490400,7.250490478515625,-0.06115812063217163,-0.8284394145011902,-0.05861103907227516
1772649175752535300,7.260535400390625,-0.06752493977546692,-0.6848638653755188,-0.25945597887039185
1772649175762579200,7.2705791015625,-0.07339966297149658,-0.3981342017650604,-0.4154983162879944
1772649175772623400,7.280623291015625,-0.08927343040704727,-0.04685260355472565,-0.48372822999954224
1772649175782667300,7.290667236328125,-0.09534630924463272,0.26611775159835815,-0.4583221673965454
1772649175792711200,7.300711181640625,-0.08831050246953964,0.466562420129776,-0.36468008160591125
1772649175802755300,7.31075537109375,-0.05280225723981857,0.5346307754516602,-0.22676299512386322
1772649175812799200,7.32079931640625,-0.02324063703417778,0.4792149066925049,-0.09141847491264343
1772649175822843400,7.330843505859375,-0.05101507902145386,0.2983490526676178,-0.018556416034698486
1772649175832887300,7.34088720703125,-0.10803921520709991,0.013668594881892204,-0.03538040071725845
1772649175842932200,7.35093212890625,-0.19536396861076355,-0.27729812264442444,-0.12183099240064621
1772649175852976400,7.360976318359375,-0.3116775155067444,-0.4790576100349426,-0.22735154628753662
1772649175863020300,7.371020263671875,-0.41937312483787537,-0.49950629472732544,-0.30131569504737854
1772649175873064200,7.381064208984375,-0.5072843432426453,-0.3907521367073059,-0.3123677968978882
1772649175883108400,7.3911083984375,-0.5881336331367493,-0.20733237266540527,-0.2923465073108673
1772649175893152300,7.40115234375,-0.6412320137023926,-0.13110579550266266,-0.34151723980903625
1772649175903196400,7.411196533203125,-0.6676872372627258,-0.08254579454660416,-0.47482454776763916
1772649175913240300,7.421240234375,-0.6604519486427307,0.04326273500919342,-0.6763939261436462
1772649175923284200,7.4312841796875,-0.5830733180046082,0.13587185740470886,-0.9443354606628418
1772649175933328100,7.441328125,-0.4080597460269928,0.12532652914524078,-1.206852674484253
1772649175943373300,7.451373291015625,-0.18505722284317017,0.10760727524757385,-1.2548032999038696
1772649175953417200,7.461417236328125,0.0586547777056694,0.11957978457212448,-0.9932031631469727
1772649175963461000,7.471461181640625,0.2590380012989044,0.16543389856815338,-0.5796036124229431
1772649175973505300,7.48150537109375,0.33540016412734985,0.24673087894916534,-0.15639671683311462
1772649175983549400,7.491549560546875,0.32530030608177185,0.34517839550971985,0.2491368055343628
1772649175993593000,7.501593017578125,0.29837867617607117,0.4192798137664795,0.5824436545372009
1772649176003637200,7.51163720703125,0.2665748596191406,0.4030986428260803,0.7698468565940857
1772649176013681200,7.52168115234375,0.23964497447013855,0.30774548649787903,0.8125908374786377
1772649176023725300,7.531725341796875,0.23464617133140564,0.15925262868404388,0.776984691619873
1772649176033770200,7.541770263671875,0.2820022404193878,0.04601128026843071,0.7408650517463684
1772649176043814100,7.551814208984375,0.36024168133735657,-0.055030420422554016,0.7603714466094971
1772649176053858300,7.5618583984375,0.4405439794063568,-0.11991141736507416,0.8007732033729553
1772649176063902500,7.57190234375,0.47038283944129944,-0.14574913680553436,0.8179417848587036
1772649176073946000,7.581946044921875,0.4567820727825165,-0.13812637329101562,0.8024834990501404
1772649176083990300,7.591990234375,0.39146220684051514,-0.11208826303482056,0.7579928636550903
1772649176094034200,7.6020341796875,0.2780238091945648,-0.12948590517044067,0.6699588894844055
1772649176104078300,7.612078369140625,0.1610831469297409,-0.2171744406223297,0.5494303703308105
1772649176114122200,7.622122314453125,0.06807491183280945,-0.25712424516677856,0.4537888467311859
1772649176124166100,7.632166259765625,0.018124299123883247,-0.2613791525363922,0.395305335521698
1772649176134210300,7.642210205078125,0.008055951446294785,-0.3090271055698395,0.3617907762527466
1772649176144255200,7.652255126953125,-0.02459362894296646,-0.243135467171669,0.40678679943084717
1772649176154299100,7.662299072265625,-0.006791196297854185,-0.14821428060531616,0.4519311189651489
1772649176164343300,7.67234326171875,-0.0004457184986677021,-0.09052057564258575,0.4475533366203308
1772649176174387200,7.68238720703125,0.03870727866888046,0.02466540038585663,0.4394075274467468
1772649176184431400,7.692431396484375,0.09656840562820435,0.1987680047750473,0.43547263741493225
1772649176194476000,7.70247607421875,0.15133976936340332,0.3401584029197693,0.4297636151313782
1772649176204520000,7.71252001953125,0.1907399594783783,0.4094280004501343,0.3905467987060547
1772649176214564000,7.722564208984375,0.20914852619171143,0.3612234592437744,0.3052915334701538
1772649176224608000,7.73260791015625,0.2153642624616623,0.2779528796672821,0.21245969831943512
1772649176234653000,7.74265283203125,0.22139152884483337,0.2074158638715744,0.10994664579629898
1772649176244697000,7.752697021484375,0.2242942452430725,0.22958427667617798,0.01392489392310381
1772649176254741000,7.762740966796875,0.22981125116348267,0.2825939655303955,-0.07076895236968994
1772649176264785200,7.77278515625,0.22117166221141815,0.26036471128463745,-0.12199979275465012
1772649176274828800,7.782828857421875,0.21456488966941833,0.18070821464061737,-0.06706596910953522
1772649176284873000,7.792873046875,0.2434995472431183,0.14073462784290314,0.09123286604881287
1772649176294917000,7.802917236328125,0.28445178270339966,0.16361331939697266,0.28219643235206604
1772649176304961000,7.8129609375,0.33000385761260986,0.2609451711177826,0.4498201310634613
1772649176315005200,7.823005126953125,0.3689666986465454,0.3745436370372772,0.5331714749336243
1772649176325048800,7.833048828125,0.3556545376777649,0.39513835310935974,0.4658389687538147
1772649176335094000,7.843093994140625,0.31251904368400574,0.4153147339820862,0.33406388759613037
1772649176345138200,7.85313818359375,0.24792978167533875,0.21328572928905487,0.19817732274532318
1772649176355181800,7.863181884765625,0.27736276388168335,-0.08275845646858215,0.08139210939407349
1772649176365226000,7.87322607421875,0.3658621609210968,-0.037922706454992294,0.11116337776184082
1772649176375270100,7.883270263671875,0.4409925937652588,0.01262755412608385,0.10125961154699326
1772649176385314000,7.89331396484375,0.4908244013786316,0.11090812087059021,0.046425651758909225
1772649176395358200,7.903358154296875,0.4982125461101532,0.1912146806716919,0.04764910787343979
1772649176405401900,7.91340185546875,0.5055801272392273,0.12083716690540314,0.16553303599357605
1772649176415446000,7.923446044921875,0.49679166078567505,0.017770975828170776,0.2938973903656006
1772649176425490000,7.933489990234375,0.4960342347621918,-0.1684482991695404,0.3934009373188019
1772649176435534800,7.943534912109375,0.4716729521751404,-0.39126861095428467,0.48389995098114014
