time,seconds_elapsed,z,y,x
1772649503086156300,0.06915625,1.1742315292358398,-0.09648630768060684,-0.08624095469713211
1772649503096200200,0.0792001953125,1.129870057106018,-0.025642845779657364,-0.016390221193432808
1772649503106244400,0.089244384765625,1.1671863794326782,0.017661750316619873,0.03605754300951958
1772649503116288300,0.099288330078125,1.2357126474380493,0.004351004958152771,0.05212279409170151
1772649503126332200,0.109332275390625,1.277587890625,-0.004202003590762615,0.035144075751304626
1772649503136376000,0.1193759765625,1.307081937789917,0.014702706597745419,0.010659731924533844
1772649503146420200,0.129420166015625,1.299633264541626,0.07150127738714218,-0.005870243068784475
1772649503156464400,0.13946435546875,1.3169832229614258,0.10531167685985565,-0.008350590243935585
1772649503166508300,0.14950830078125,1.350785732269287,0.11750601977109909,-0.002294828649610281
1772649503176552200,0.15955224609375,1.3690773248672485,0.1781771034002304,0.006655523087829351
1772649503186596000,0.16959619140625,1.3332085609436035,0.20572270452976227,-0.0035076322965323925
1772649503196640300,0.17964013671875,1.2879739999771118,0.18719743192195892,-0.025011125952005386
1772649503206684400,0.189684326171875,1.2624497413635254,0.19627641141414642,-0.05507634952664375
1772649503216728300,0.199728271484375,1.2678539752960205,0.2253454029560089,-0.07048262655735016
1772649503226773200,0.209773193359375,1.2884225845336914,0.29955917596817017,-0.07881619036197662
1772649503236817400,0.2198173828125,1.3246278762817383,0.34099605679512024,-0.0690421313047409
1772649503246861300,0.229861328125,1.3694355487823486,0.3428533375263214,-0.05087750405073166
1772649503256905200,0.2399052734375,1.4240645170211792,0.31309279799461365,-0.007060396485030651
1772649503266949000,0.24994921875,1.4512323141098022,0.22248004376888275,0.03316132351756096
1772649503276993300,0.2599931640625,1.4418175220489502,0.09858758002519608,0.08554762601852417
1772649503287037400,0.270037353515625,1.391548991203308,0.015056736767292023,0.15534642338752747
1772649503297081300,0.280081298828125,1.3303875923156738,-0.04927331581711769,0.22690406441688538
1772649503307125200,0.290125244140625,1.280462384223938,-0.09304609894752502,0.3066292703151703
1772649503317169200,0.300169189453125,1.2664659023284912,-0.09804139286279678,0.3874681890010834
1772649503327213300,0.31021337890625,1.2827730178833008,-0.045990969985723495,0.47334128618240356
1772649503337257200,0.32025732421875,1.329363226890564,0.05127773433923721,0.5456220507621765
1772649503347301000,0.330301025390625,1.3933539390563965,0.15814027190208435,0.6148839592933655
1772649503357345300,0.34034521484375,1.4542707204818726,0.2428886890411377,0.6789051294326782
1772649503367389200,0.35038916015625,1.5087214708328247,0.29443761706352234,0.7409583926200867
1772649503377433300,0.360433349609375,1.5730819702148438,0.37045568227767944,0.808850109577179
1772649503387477200,0.370477294921875,1.6180875301361084,0.3914477825164795,0.8525166511535645
1772649503397521200,0.380521240234375,1.6143678426742554,0.3559308648109436,0.8590778708457947
1772649503407565300,0.3905654296875,1.5723252296447754,0.26158517599105835,0.8469750881195068
1772649503417609200,0.400609130859375,1.5090657472610474,0.2456277310848236,0.8464283347129822
1772649503427653400,0.4106533203125,1.417402982711792,0.2794885039329529,0.8383552432060242
1772649503437698300,0.4206982421875,1.3219640254974365,0.32042810320854187,0.7869211435317993
1772649503447742200,0.4307421875,1.2549165487289429,0.4329932630062103,0.7355738282203674
1772649503457786400,0.440786376953125,1.2069635391235352,0.599483847618103,0.6627910137176514
1772649503467830300,0.450830322265625,1.1610304117202759,0.8194875717163086,0.6109515428543091
1772649503477874200,0.460874267578125,1.0742114782333374,0.9614668488502502,0.5226850509643555
1772649503487918000,0.47091796875,0.9481614232063293,0.9148284792900085,0.3946283459663391
1772649503497962200,0.480962158203125,0.8246870040893555,0.9346071481704712,0.27988871932029724
1772649503508005400,0.49100537109375,0.7558600306510925,1.0012141466140747,0.20072491466999054
1772649503518049500,0.501049560546875,0.7696858048439026,1.0479682683944702,0.13968157768249512
1772649503528093700,0.51109375,0.7624721527099609,0.9884606599807739,0.05273151397705078
1772649503538137300,0.521137451171875,0.7345596551895142,0.9363718628883362,-0.027039015665650368
1772649503548181500,0.531181396484375,0.7453814148902893,0.9414201378822327,-0.06401540338993073
1772649503558225400,0.541225341796875,0.7828018665313721,0.927821695804596,-0.09396104514598846
1772649503568269600,0.55126953125,0.804315447807312,0.7523353695869446,-0.15799276530742645
1772649503578313500,0.5613134765625,0.8713333010673523,0.6584374904632568,-0.15685424208641052
1772649503588357400,0.571357421875,0.9271659255027771,0.6992299556732178,-0.1279544234275818
1772649503598401500,0.581401611328125,0.9660659432411194,0.7340583801269531,-0.07580088078975677
1772649503608445400,0.591445556640625,0.8854725360870361,0.4610084891319275,-0.037775203585624695
1772649503618489600,0.601489501953125,0.6606998443603516,0.1969863474369049,-0.060785435140132904
1772649503628533200,0.611533203125,0.5413968563079834,0.14092041552066803,-0.10027745366096497
1772649503638578400,0.621578369140625,0.5223121643066406,0.15914230048656464,-0.19438131153583527
1772649503648622600,0.63162255859375,0.535358726978302,0.24360549449920654,-0.3051684498786926
1772649503658666500,0.64166650390625,0.5204638242721558,0.28509318828582764,-0.3984430134296417
1772649503668710400,0.65171044921875,0.46023088693618774,0.23478101193904877,-0.45385274291038513
1772649503678754600,0.661754638671875,0.39698055386543274,0.10341080278158188,-0.4723800718784332
1772649503688798500,0.671798583984375,0.3125671446323395,-0.06971970200538635,-0.4742157757282257
1772649503698842600,0.681842529296875,0.1947958618402481,-0.30666977167129517,-0.46716347336769104
1772649503708886300,0.69188623046875,0.09839823096990585,-0.6422591805458069,-0.43965089321136475
1772649503718930400,0.701930419921875,0.026322174817323685,-0.902647078037262,-0.37603622674942017
1772649503728974600,0.711974609375,-0.06782546639442444,-1.0271563529968262,-0.268093079328537
1772649503739018500,0.7220185546875,-0.12221326678991318,-1.061572790145874,-0.14820806682109833
1772649503749062700,0.732062744140625,-0.12949620187282562,-1.022047758102417,-0.0712517648935318
1772649503759106300,0.742106201171875,-0.09392084181308746,-0.9165096879005432,-0.04206350818276405
1772649503769150500,0.752150390625,-0.010534603148698807,-0.8685099482536316,-0.06828179955482483
1772649503779194400,0.7621943359375,0.05684424191713333,-0.7862585783004761,-0.13554006814956665
1772649503789238500,0.772238525390625,0.11144623160362244,-0.6669481992721558,-0.1756318211555481
1772649503799282400,0.782282470703125,0.1729612648487091,-0.4589550495147705,-0.11636956036090851
1772649503809326300,0.792326416015625,0.24695798754692078,-0.1956871896982193,-0.0025841412134468555
1772649503819370500,0.80237060546875,0.3078440725803375,-0.027490073814988136,0.09357962757349014
1772649503829414400,0.812414306640625,0.3330916464328766,0.08821894228458405,0.1465621441602707
1772649503839459300,0.822459228515625,0.28462398052215576,0.12136465311050415,0.22586868703365326
1772649503849503500,0.83250341796875,0.2233249396085739,0.21837934851646423,0.3828417956829071
1772649503859547400,0.84254736328125,0.1813654601573944,0.4381321966648102,0.6041465401649475
1772649503869591600,0.852591552734375,0.1379372924566269,0.672569751739502,0.7946120500564575
1772649503879635500,0.862635498046875,0.06475189328193665,0.9204370975494385,0.9377190470695496
1772649503889679400,0.872679443359375,-0.05401843041181564,1.270594596862793,0.9532905220985413
1772649503899723500,0.8827236328125,-0.23939213156700134,1.712364673614502,0.8252211809158325
1772649503909767400,0.892767333984375,-0.47803744673728943,1.8883657455444336,0.58579421043396
1772649503919811600,0.9028115234375,-0.6371113657951355,1.8480939865112305,0.38373589515686035
1772649503929855200,0.912855224609375,-0.6932367086410522,1.6781028509140015,0.2463897317647934
1772649503939899400,0.9228994140625,-0.506577730178833,1.0414832830429077,0.07402996718883514
1772649503949943600,0.932943603515625,-0.26875126361846924,0.43147534132003784,-0.042699042707681656
1772649503959987500,0.942987548828125,-0.014216570183634758,0.33594051003456116,-0.08292721956968307
1772649503970031600,0.953031494140625,0.20817628502845764,0.6817687749862671,-0.08352722972631454
1772649503980075300,0.9630751953125,0.3817978799343109,0.9330653548240662,-0.10690753906965256
1772649503990119400,0.973119384765625,0.4550537168979645,0.7509347200393677,-0.12192616611719131
1772649504000163600,0.98316357421875,0.38471439480781555,0.1730167716741562,-0.04978375509381294
1772649504010207500,0.99320751953125,0.1567712426185608,-0.49706438183784485,0.07028353214263916
1772649504020251400,1.00325146484375,-0.16326367855072021,-1.1713083982467651,0.050775233656167984
1772649504030295300,1.01329541015625,-0.2935945391654968,-1.6218034029006958,-0.17864517867565155
1772649504040340500,1.023340576171875,-0.11309994757175446,-1.1320635080337524,-0.3187786340713501
1772649504050384600,1.033384521484375,0.001470573479309678,-0.6391491889953613,-0.40705257654190063
1772649504060428300,1.04342822265625,0.07183671742677689,-0.5113416314125061,-0.5019199252128601
1772649504070472400,1.053472412109375,0.2545633614063263,-0.3677714169025421,-0.48882752656936646
1772649504080516600,1.0635166015625,0.4001770317554474,-0.16181187331676483,-0.4933227002620697
1772649504090560500,1.073560546875,0.5740036964416504,-0.10119352489709854,-0.5118817687034607
1772649504100604400,1.0836044921875,0.709342360496521,-0.1691465973854065,-0.5761876702308655
1772649504110648300,1.0936484375,0.7792476415634155,-0.23901675641536713,-0.5805938243865967
1772649504120692500,1.1036923828125,0.7349376678466797,-0.2173713594675064,-0.3974238634109497
1772649504130736400,1.113736328125,0.6439059972763062,-0.18870961666107178,-0.158988356590271
1772649504140780500,1.123780517578125,0.5474376678466797,-0.3101973533630371,-0.07475228607654572
1772649504150824400,1.133824462890625,0.37509122490882874,-0.5352421998977661,-0.21236075460910797
1772649504160868400,1.143868408203125,0.16412712633609772,-0.6340367197990417,-0.3988998234272003
1772649504170912500,1.15391259765625,-0.022479766979813576,-0.5351229310035706,-0.514693021774292
1772649504180956400,1.163956298828125,-0.16169856488704681,-0.4711543321609497,-0.5977399349212646
1772649504191000600,1.17400048828125,-0.16116885840892792,-0.3800968825817108,-0.5839160084724426
1772649504201044500,1.18404443359375,-0.1546408236026764,-0.8084181547164917,-0.5858762264251709
1772649504211088400,1.19408837890625,-0.05163322389125824,-1.3901090621948242,-0.4457899332046509
1772649504221132500,1.204132568359375,0.04178643971681595,-1.9547268152236938,-0.28869035840034485
1772649504231176400,1.214176513671875,0.1501917541027069,-2.31783127784729,-0.18526439368724823
1772649504241221400,1.224221435546875,0.2799519896507263,-2.408238410949707,-0.11782707273960114
1772649504251265500,1.234265625,0.45996809005737305,-2.2116129398345947,-0.11060085147619247
1772649504261309400,1.244309326171875,0.5731791257858276,-1.5517481565475464,-0.15684132277965546
1772649504271353600,1.254353515625,0.48756861686706543,-0.5648481249809265,-0.2389921247959137
1772649504281397500,1.2643974609375,0.4078728258609772,0.08474206924438477,-0.33876746892929077
1772649504291441400,1.27444140625,0.38125506043434143,0.2466265857219696,-0.4271167814731598
1772649504301485600,1.284485595703125,0.2504889965057373,0.29536569118499756,-0.5315471887588501
1772649504311529500,1.294529541015625,0.16601219773292542,0.24565699696540833,-0.5544440150260925
1772649504321573400,1.304573486328125,0.09686829894781113,0.20101825892925262,-0.5120670795440674
1772649504331617300,1.3146171875,0.10718990862369537,0.13629919290542603,-0.4819009304046631
1772649504341661400,1.324661376953125,0.15218491852283478,0.005943694151937962,-0.4548557698726654
1772649504351705600,1.33470556640625,0.15619297325611115,-0.11014056205749512,-0.4519268274307251
1772649504361749500,1.34474951171875,0.210661381483078,-0.16146574914455414,-0.42671701312065125
1772649504371793400,1.35479345703125,0.27309679985046387,-0.08886797726154327,-0.3506523668766022
1772649504381837300,1.36483740234375,0.29879334568977356,0.015575489029288292,-0.2370053082704544
1772649504391881500,1.374881591796875,0.33769094944000244,0.11210469156503677,-0.06790763139724731
1772649504401925600,1.384925537109375,0.36591047048568726,0.17443014681339264,0.06245184689760208
1772649504411969500,1.394969482421875,0.3959794044494629,0.16487765312194824,0.12315540760755539
1772649504422013400,1.405013427734375,0.3816971480846405,0.13941478729248047,0.16334979236125946
1772649504432057300,1.415057373046875,0.3000648617744446,0.1811758130788803,0.08587364852428436
1772649504442101500,1.4251015625,0.22323550283908844,0.2737123966217041,0.012325476855039597
1772649504452146400,1.435146484375,0.17444880306720734,0.3428930640220642,0.04899054765701294
1772649504462190300,1.4451904296875,0.15211020410060883,0.3860296308994293,0.14304940402507782
1772649504472234500,1.455234375,0.1641892045736313,0.3846307694911957,0.228867307305336
1772649504482278400,1.4652783203125,0.18146151304244995,0.3621242344379425,0.2628108561038971
1772649504492322600,1.475322509765625,0.20552955567836761,0.3112213611602783,0.2620939314365387
1772649504502366500,1.485366455078125,0.25253036618232727,0.27806973457336426,0.27581048011779785
1772649504512410600,1.49541064453125,0.2988491356372833,0.2483040988445282,0.32934772968292236
1772649504522454500,1.50545458984375,0.3039398789405823,0.1856195330619812,0.3378913700580597
1772649504532498700,1.515498779296875,0.2638092339038849,0.1432715505361557,0.2629407048225403
1772649504542542600,1.52554248046875,0.2234450727701187,0.13706517219543457,0.1359855830669403
1772649504552586500,1.53558642578125,0.1838952600955963,0.1795540452003479,0.009689157828688622
1772649504562630700,1.545630615234375,0.15780475735664368,0.2867776155471802,-0.09604977071285248
1772649504572674600,1.555674560546875,0.1246824786067009,0.3553295135498047,-0.20943492650985718
1772649504582718700,1.56571875,0.09557618945837021,0.3047381043434143,-0.31230923533439636
1772649504592762600,1.5757626953125,0.03420471027493477,0.060129404067993164,-0.36441850662231445
1772649504602806500,1.585806640625,-0.039344195276498795,-0.0795610249042511,-0.39188075065612793
1772649504612850700,1.5958505859375,-0.07820051163434982,0.015833936631679535,-0.5216677784919739
1772649504622894600,1.60589453125,-0.13881786167621613,0.11736541241407394,-0.8148857355117798
1772649504632938500,1.6159384765625,-0.1890043318271637,0.1963329315185547,-1.0580493211746216
1772649504642982400,1.625982421875,-0.1716056913137436,0.2832232713699341,-1.012062430381775
1772649504653026600,1.636026611328125,-0.06742577254772186,0.36440813541412354,-0.6558725833892822
1772649504663071700,1.64607177734375,0.0754823088645935,0.4021502435207367,-0.16611555218696594
1772649504673115400,1.656115478515625,0.20045459270477295,0.42687129974365234,0.2354142963886261
1772649504683159600,1.66615966796875,0.2655861973762512,0.43833455443382263,0.4013429284095764
1772649504693203700,1.67620361328125,0.26772576570510864,0.42805981636047363,0.396589994430542
1772649504703247600,1.68624755859375,0.249868705868721,0.3790087103843689,0.33605068922042847
1772649504713291500,1.69629150390625,0.22193561494350433,0.2697674632072449,0.2795535922050476
1772649504723335400,1.70633544921875,0.22072303295135498,0.09891147166490555,0.2860530614852905
1772649504733379600,1.716379638671875,0.27379611134529114,-0.011923162266612053,0.34699177742004395
1772649504743423700,1.726423828125,0.33987927436828613,-0.0573839396238327,0.41501057147979736
1772649504753467600,1.736467529296875,0.3788628876209259,-0.06003085523843765,0.4474529027938843
1772649504763511600,1.746511474609375,0.3818708658218384,-0.038607943803071976,0.4312382638454437
1772649504773555500,1.756555419921875,0.3359164297580719,-0.05248114839196205,0.3614554703235626
1772649504783599600,1.766599609375,0.23580753803253174,-0.1200345903635025,0.2017490416765213
1772649504793643500,1.7766435546875,0.023612460121512413,-0.24654699862003326,-0.05382281169295311
1772649504803687700,1.786687744140625,-0.17550715804100037,-0.3002634048461914,-0.3791161775588989
1772649504813731600,1.796731689453125,-0.34804055094718933,-0.2765732407569885,-0.7040508389472961
1772649504823775500,1.806775390625,-0.5122298002243042,-0.2611793577671051,-0.8949652314186096
1772649504833819600,1.816819580078125,-0.5741674900054932,-0.242582768201828,-0.8339847326278687
1772649504843863600,1.826863525390625,-0.5186953544616699,-0.31042686104774475,-0.5195208787918091
1772649504853907700,1.83690771484375,-0.5340897440910339,-0.5195803642272949,-0.05120481923222542
1772649504863951600,1.84695166015625,-0.5439581274986267,-0.8633791208267212,0.3308337926864624
1772649504873995500,1.85699560546875,-0.5573956370353699,-1.120653748512268,0.4707842469215393
1772649504884040700,1.867040771484375,-0.5790073275566101,-1.2511687278747559,0.3718653619289398
1772649504894084600,1.877084716796875,-0.5815522074699402,-1.1544086933135986,0.173554927110672
1772649504904128500,1.88712841796875,-0.5735836029052734,-0.760164737701416,-0.040342237800359726
1772649504914172700,1.897172607421875,-0.552478551864624,-0.22495272755622864,-0.22381167113780975
1772649504924216600,1.907216552734375,-0.5022538900375366,0.3582553565502167,-0.3484693169593811
1772649504934260500,1.917260498046875,-0.4396013617515564,0.7996777892112732,-0.4750749468803406
1772649504944304600,1.9273046875,-0.4020528495311737,1.048193097114563,-0.6278995871543884
1772649504954348500,1.9373486328125,-0.3892430365085602,1.0758864879608154,-0.7601287364959717
1772649504964392700,1.947392822265625,-0.3591628074645996,0.934840977191925,-0.7985866069793701
1772649504974436600,1.9574365234375,-0.2935888469219208,0.6855177283287048,-0.7594996690750122
1772649504984480500,1.96748046875,-0.1938096284866333,0.476076602935791,-0.612391471862793
1772649504994524400,1.9775244140625,-0.07215190678834915,0.34607332944869995,-0.38038885593414307
1772649505004568600,1.987568603515625,0.04340580478310585,0.2717282176017761,-0.12612776458263397
1772649505014612700,1.99761279296875,0.1359003186225891,0.2073255330324173,0.09605922549962997
1772649505024656600,2.00765673828125,0.2054089605808258,0.1591857373714447,0.2576337456703186
1772649505034700500,2.017700439453125,0.2691669166088104,0.1283242255449295,0.32816383242607117
1772649505044744400,2.027744384765625,0.2974904477596283,0.15087616443634033,0.33304205536842346
1772649505054788600,2.03778857421875,0.3104821443557739,0.1724427044391632,0.29024237394332886
1772649505064832800,2.047832763671875,0.3516540229320526,0.18134354054927826,0.2533190846443176
1772649505074876700,2.057876708984375,0.41051334142684937,0.16315947473049164,0.23678137362003326
1772649505084920600,2.067920654296875,0.463121235370636,0.14104856550693512,0.23716318607330322
1772649505094964500,2.077964599609375,0.5089326500892639,0.14657622575759888,0.271099328994751
1772649505105008600,2.088008544921875,0.5300871133804321,0.15729501843452454,0.33715587854385376
1772649505115053600,2.098053466796875,0.5291815996170044,0.21550506353378296,0.40647315979003906
1772649505125097500,2.108097412109375,0.5023403167724609,0.386521577835083,0.44868865609169006
1772649505135141600,2.1181416015625,0.4635319113731384,0.5882352590560913,0.39078542590141296
1772649505145185800,2.128185791015625,0.4158360958099365,0.6961950063705444,0.21483325958251953
1772649505155229700,2.138229736328125,0.34981977939605713,0.6084031462669373,-0.04773205891251564
1772649505165273600,2.148273681640625,0.2977840304374695,0.3721437156200409,-0.22639846801757812
1772649505175317500,2.1583173828125,0.261176198720932,0.040015317499637604,-0.23582366108894348
1772649505185361700,2.168361572265625,0.21411767601966858,-0.4453409016132355,-0.11808107048273087
1772649505195405600,2.178405517578125,0.13436345756053925,-1.0869635343551636,-0.018370453268289566
1772649505205449500,2.188449462890625,-0.005319422110915184,-1.6714767217636108,-0.016251269727945328
1772649505215493600,2.19849365234375,-0.12114135921001434,-1.9162081480026245,-0.20778848230838776
1772649505225537500,2.20853759765625,-0.1951702982187271,-1.7544736862182617,-0.5379467606544495
1772649505235581700,2.218581787109375,-0.2750922739505768,-1.2921262979507446,-0.826017439365387
1772649505245625600,2.22862548828125,-0.32719555497169495,-0.5958259701728821,-0.8718384504318237
1772649505255669500,2.23866943359375,-0.30908551812171936,0.18214677274227142,-0.6472625732421875
1772649505265713700,2.248713623046875,-0.2297273576259613,0.7810561060905457,-0.2675127685070038
1772649505275757600,2.258757568359375,-0.11579038947820663,1.0443897247314453,0.09291785955429077
1772649505285801700,2.2688017578125,0.007607768289744854,0.9567111134529114,0.3173288404941559
1772649505295845600,2.278845703125,0.0932702124118805,0.5877274870872498,0.43471139669418335
1772649505305889500,2.2888896484375,0.13705310225486755,0.08641190826892853,0.5186883211135864
1772649505315933700,2.29893359375,0.15951846539974213,-0.31920725107192993,0.5398399233818054
1772649505325977600,2.3089775390625,0.14580143988132477,-0.5169417858123779,0.5074542760848999
1772649505336022500,2.3190224609375,0.11439024657011032,-0.4836570620536804,0.4572446048259735
1772649505346066400,2.32906640625,0.088043712079525,-0.30238428711891174,0.4098067581653595
1772649505356110600,2.339110595703125,0.0799785926938057,-0.16023513674736023,0.3868439197540283
1772649505366154800,2.34915478515625,0.08095730096101761,-0.08448264002799988,0.3524418771266937
1772649505376198700,2.35919873046875,0.09175029397010803,-0.032057516276836395,0.2753707766532898
1772649505386242600,2.36924267578125,0.06826809793710709,0.01691511645913124,0.15180562436580658
1772649505396286500,2.379286376953125,0.027106545865535736,0.07264681905508041,0.019872885197401047
1772649505406330600,2.38933056640625,-0.05564331263303757,0.08424817025661469,-0.12813439965248108
1772649505416374800,2.399374755859375,-0.1525578796863556,0.03805937618017197,-0.2760562002658844
1772649505426418400,2.40941845703125,-0.24711407721042633,-0.06916138529777527,-0.40872862935066223
1772649505436462600,2.419462646484375,-0.3267196714878082,-0.18800334632396698,-0.49930593371391296
1772649505446506500,2.429506591796875,-0.3374059796333313,-0.2289808690547943,-0.5135927796363831
1772649505456550700,2.439550537109375,-0.3265154957771301,-0.2188318371772766,-0.4636191129684448
1772649505466594800,2.4495947265625,-0.3001191020011902,-0.13101978600025177,-0.34936442971229553
1772649505476638500,2.459638427734375,-0.31481602787971497,0.01202845573425293,-0.2197912484407425
1772649505486682600,2.4696826171875,-0.3718617856502533,0.20961537957191467,-0.08793393522500992
1772649505496726500,2.4797265625,-0.40783604979515076,0.4234427213668823,0.056844551116228104
1772649505506770700,2.489770751953125,-0.36902761459350586,0.6168468594551086,0.20190343260765076
1772649505516815000,2.499815185546875,-0.274387389421463,0.7421861290931702,0.3034859895706177
1772649505526859300,2.509859375,-0.1820438951253891,0.6600760817527771,0.3076878488063812
1772649505536903200,2.519903076171875,-0.11226748675107956,0.3880387246608734,0.16000837087631226
1772649505546947300,2.529947265625,-0.10024793446063995,0.02868661656975746,-0.09931860864162445
1772649505556991000,2.539990966796875,-0.12648619711399078,-0.30009740591049194,-0.3734199106693268
1772649505567036200,2.5500361328125,-0.1605605185031891,-0.5560690760612488,-0.5666823983192444
1772649505577080300,2.560080322265625,-0.19357705116271973,-0.729996383190155,-0.6058595776557922
1772649505587124200,2.570124267578125,-0.20348231494426727,-0.7742742896080017,-0.5141593217849731
1772649505597168000,2.580168212890625,-0.17397022247314453,-0.6502615213394165,-0.3419071137905121
1772649505607212300,2.59021240234375,-0.11384209990501404,-0.41033345460891724,-0.23269954323768616
1772649505617256200,2.600256103515625,-0.011513333767652512,-0.08875515311956406,-0.22317129373550415
1772649505627300400,2.61030029296875,0.08114603161811829,0.21995583176612854,-0.2754688560962677
1772649505637344000,2.620343994140625,0.15048381686210632,0.4538476765155792,-0.3442753553390503
1772649505647388200,2.63038818359375,0.20185284316539764,0.5652743577957153,-0.42198339104652405
1772649505657432300,2.640432373046875,0.22989486157894135,0.5744361877441406,-0.4716401696205139
1772649505667476200,2.650476318359375,0.23471157252788544,0.47539022564888,-0.4633156657218933
1772649505677520400,2.660520263671875,0.2226269543170929,0.3035276532173157,-0.3997763991355896
1772649505687564000,2.67056396484375,0.21209953725337982,0.10964620858430862,-0.2732723653316498
1772649505697608200,2.680608154296875,0.20952026546001434,-0.018202833831310272,-0.10238931328058243
1772649505707652400,2.69065234375,0.21484220027923584,-0.04772953689098358,0.07522184401750565
1772649505717696300,2.7006962890625,0.22928905487060547,0.01925242692232132,0.24313335120677948
1772649505727740200,2.710740234375,0.2548993229866028,0.1347348392009735,0.3742942214012146
1772649505737784000,2.7207841796875,0.28703781962394714,0.23778292536735535,0.4521293640136719
1772649505747828200,2.730828125,0.3110722005367279,0.2847602963447571,0.4733847975730896
1772649505757872000,2.7408720703125,0.3075810372829437,0.24737805128097534,0.4001026153564453
1772649505767916300,2.750916259765625,0.24750488996505737,0.05715314298868179,0.22749675810337067
1772649505777960200,2.760960205078125,0.18391871452331543,-0.2585859000682831,0.08723977953195572
1772649505788004000,2.771004150390625,0.136507049202919,-0.5428356528282166,0.07868063449859619
1772649505798049300,2.78104931640625,0.11508165299892426,-0.664000928401947,0.1771683245897293
1772649505808093200,2.79109326171875,0.1166759729385376,-0.6286764144897461,0.24351143836975098
1772649505818137000,2.80113720703125,0.0787445679306984,-0.4936498999595642,0.13715596497058868
1772649505828181200,2.81118115234375,-0.04593641310930252,-0.3755248486995697,-0.1477472335100174
1772649505838225200,2.82122509765625,-0.1989443451166153,-0.2833597660064697,-0.4782383441925049
1772649505848269300,2.831269287109375,-0.3093637526035309,-0.14602763950824738,-0.7356097102165222
1772649505858313200,2.841313232421875,-0.37471264600753784,-0.02672894299030304,-0.8257236480712891
1772649505868357000,2.851357177734375,-0.3866661489009857,0.09960108995437622,-0.7276084423065186
1772649505878401300,2.8614013671875,-0.3061835765838623,0.23836909234523773,-0.46064624190330505
1772649505888445200,2.871445068359375,-0.14341475069522858,0.41569003462791443,-0.0735926628112793
1772649505898489300,2.8814892578125,0.036997903138399124,0.5701419115066528,0.2847177982330322
1772649505908533000,2.891532958984375,0.1696716547012329,0.6596296429634094,0.4417566657066345
1772649505918577200,2.9015771484375,0.26298028230667114,0.6495820879936218,0.42706719040870667
1772649505928621300,2.911621337890625,0.2901616394519806,0.4883931279182434,0.33592548966407776
1772649505938665200,2.921665283203125,0.26274600625038147,0.23845840990543365,0.2510066032409668
1772649505948709400,2.93170947265625,0.2245762199163437,0.0017724446952342987,0.2404368370771408
1772649505958753000,2.9417529296875,0.21617235243320465,-0.09464836865663528,0.287096232175827
1772649505968797200,2.951797119140625,0.2632288336753845,-0.0712241530418396,0.34146907925605774
1772649505978841300,2.96184130859375,0.34278491139411926,0.004476469941437244,0.3501642942428589
1772649505988885200,2.97188525390625,0.38748809695243835,0.05813957750797272,0.2821003496646881
1772649505998929200,2.98192919921875,0.34437206387519836,0.051625221967697144,0.13619640469551086
1772649506008973000,2.99197314453125,0.2171463668346405,-0.04821529611945152,-0.056868549436330795
1772649506019017200,3.002017333984375,0.05675269663333893,-0.22922077775001526,-0.25640562176704407
1772649506029061400,3.012061279296875,-0.062118757516145706,-0.4442160129547119,-0.430684894323349
1772649506039106000,3.02210595703125,-0.12028086185455322,-0.6317630410194397,-0.5253376364707947
1772649506049150200,3.032150146484375,-0.13383714854717255,-0.7913960218429565,-0.5110332369804382
1772649506059194400,3.0421943359375,-0.10832912474870682,-0.9532943964004517,-0.36045172810554504
1772649506069238300,3.05223828125,-0.06610988080501556,-1.09601891040802,-0.07948099821805954
1772649506079282200,3.0622822265625,-0.05163160711526871,-1.109811782836914,0.2364780306816101
1772649506089326000,3.072326171875,-0.07918324321508408,-1.0221055746078491,0.4856618046760559
1772649506099370200,3.082370361328125,-0.11401312798261642,-0.8422137498855591,0.628728449344635
1772649506109414100,3.0924140625,-0.12524181604385376,-0.5610377788543701,0.6752160787582397
1772649506119458300,3.102458251953125,-0.1124221533536911,-0.31118398904800415,0.6384343504905701
1772649506129502200,3.112502197265625,-0.08028791844844818,-0.16536180675029755,0.5268383026123047
1772649506139546000,3.122546142578125,-0.05775224789977074,-0.11422564834356308,0.3389298915863037
1772649506149590300,3.13259033203125,-0.05166872963309288,-0.08989172428846359,0.09222956001758575
1772649506159634200,3.14263427734375,-0.07361771166324615,-0.04836585372686386,-0.1627393513917923
1772649506169678300,3.15267822265625,-0.09186822175979614,0.06461899727582932,-0.38105905055999756
1772649506179722200,3.16272216796875,-0.13663169741630554,0.20595215260982513,-0.516334593296051
1772649506189766100,3.17276611328125,-0.15321670472621918,0.3501160442829132,-0.5028461217880249
1772649506199810300,3.182810302734375,-0.13222619891166687,0.365108847618103,-0.4153192341327667
1772649506209854200,3.192854248046875,-0.15215955674648285,0.3678862154483795,-0.31674858927726746
1772649506219898000,3.202898193359375,-0.12943321466445923,0.35097089409828186,-0.28015196323394775
1772649506229942300,3.2129423828125,-0.07603166997432709,0.32632818818092346,-0.29094114899635315
1772649506239986200,3.222986083984375,-0.03172306716442108,0.2850220203399658,-0.32789090275764465
1772649506250030300,3.2330302734375,-0.005501848645508289,0.20682549476623535,-0.38458213210105896
1772649506260074200,3.24307421875,0.021677574142813683,0.09005492925643921,-0.44572165608406067
1772649506270118100,3.2531181640625,0.05001423880457878,-0.028243690729141235,-0.47167837619781494
1772649506280163300,3.263163330078125,0.05440552532672882,-0.17492154240608215,-0.4885127544403076
1772649506290207200,3.273207275390625,0.012304924428462982,-0.34608569741249084,-0.48199164867401123
1772649506300251100,3.283251220703125,-0.03578164428472519,-0.4513356685638428,-0.42684343457221985
1772649506310295000,3.293294921875,-0.072834812104702,-0.4631246328353882,-0.34965425729751587
1772649506320339200,3.303339111328125,-0.07219085842370987,-0.3754107654094696,-0.262938529253006
1772649506330383400,3.31338330078125,-0.03233250603079796,-0.25019410252571106,-0.21810364723205566
1772649506340427300,3.32342724609375,0.02747037261724472,-0.1014949157834053,-0.24889671802520752
1772649506350471200,3.33347119140625,0.0920567438006401,0.06881243735551834,-0.3946053385734558
1772649506360515000,3.34351513671875,0.171589657664299,0.33794429898262024,-0.5357376933097839
1772649506370559200,3.353559326171875,0.18590578436851501,0.4425804615020752,-0.7236530780792236
1772649506380603400,3.363603271484375,0.1190953329205513,0.4085870683193207,-0.906693696975708
1772649506390647300,3.373647216796875,0.008241255767643452,0.2598141133785248,-1.101888656616211
1772649506400691200,3.383691162109375,-0.09566143900156021,-0.0020318813621997833,-1.2863203287124634
1772649506410735000,3.393735107421875,-0.18510030210018158,-0.2140805870294571,-1.417671799659729
1772649506420779300,3.403779296875,-0.2447923868894577,-0.23004862666130066,-1.422956109046936
1772649506430823400,3.413823486328125,-0.27429425716400146,-0.12990997731685638,-1.2381229400634766
1772649506440867000,3.4238671875,-0.27322474122047424,-0.0682855024933815,-0.8846343755722046
1772649506450911200,3.4339111328125,-0.2697170674800873,0.017792511731386185,-0.40671584010124207
1772649506460955100,3.443955078125,-0.24944375455379486,0.18283632397651672,-0.01570468209683895
1772649506470999300,3.453999267578125,-0.24502646923065186,0.3117592930793762,0.15969274938106537
1772649506481043200,3.464043212890625,-0.23831743001937866,0.29170170426368713,0.18403351306915283
1772649506491087000,3.474087158203125,-0.2097943127155304,0.1223883330821991,0.1492335945367813
1772649506501131300,3.48413134765625,-0.17031188309192657,-0.15533143281936646,0.12324994057416916
1772649506511175200,3.494175048828125,-0.13763464987277985,-0.40176495909690857,0.17228589951992035
1772649506521220000,3.50422021484375,-0.08245128393173218,-0.4959937334060669,0.3357158303260803
1772649506531264000,3.514263916015625,-0.00032537447987124324,-0.4126889109611511,0.5832350850105286
1772649506541308200,3.52430810546875,0.10365056246519089,-0.1677236109972,0.8309450149536133
1772649506551352000,3.53435205078125,0.21173526346683502,0.18251027166843414,0.9799215197563171
1772649506561396200,3.544396240234375,0.2739288806915283,0.5193713903427124,0.9953537583351135
1772649506571440000,3.554440185546875,0.25558793544769287,0.7559309005737305,0.8670152425765991
1772649506581484000,3.564484130859375,0.14977814257144928,0.8685879707336426,0.6469915509223938
1772649506591528200,3.574528076171875,-0.007474757730960846,0.8506412506103516,0.389819473028183
1772649506601572000,3.584572021484375,-0.17358942329883575,0.7157782316207886,0.150146946310997
1772649506611616300,3.5946162109375,-0.30644214153289795,0.4811823070049286,-0.027566825971007347
1772649506621660200,3.60466015625,-0.3793083429336548,0.21791288256645203,-0.14831136167049408
1772649506631704000,3.6147041015625,-0.414898544549942,-0.029348190873861313,-0.18897151947021484
1772649506641748200,3.624748291015625,-0.4475068151950836,-0.21215741336345673,-0.127241849899292
1772649506651792100,3.634792236328125,-0.43792077898979187,-0.2904170751571655,0.005214462988078594
1772649506661836000,3.6448359375,-0.3687954843044281,-0.26404380798339844,0.21735867857933044
1772649506671880200,3.654880126953125,-0.28234726190567017,-0.1664617508649826,0.46621671319007874
1772649506681924000,3.664924072265625,-0.21261881291866302,-0.056715548038482666,0.6588077545166016
1772649506691968300,3.67496826171875,-0.16289271414279938,0.014028280973434448,0.7308531999588013
1772649506702012200,3.68501220703125,-0.12011969834566116,0.03003734163939953,0.6773971319198608
1772649506712056000,3.69505615234375,-0.09308303147554398,0.018551068380475044,0.5270853638648987
1772649506722100000,3.705099853515625,-0.06856489926576614,-0.0021076048724353313,0.3393690288066864
1772649506732144000,3.71514404296875,-0.04646303877234459,-0.0312533900141716,0.14365482330322266
1772649506742188300,3.725188232421875,-0.004003998823463917,-0.041388049721717834,-0.009640729054808617
1772649506752232200,3.735232177734375,0.04822191223502159,-0.0004382762126624584,-0.09786741435527802
1772649506762277000,3.745277099609375,0.10332697629928589,0.08177750557661057,-0.14034110307693481
1772649506772321300,3.7553212890625,0.15686102211475372,0.1634099930524826,-0.1753595620393753
1772649506782365200,3.765365234375,0.19975337386131287,0.21737894415855408,-0.19390714168548584
1772649506792409000,3.7754091796875,0.22600750625133514,0.2242220789194107,-0.19764776527881622
1772649506802453000,3.785452880859375,0.23987485468387604,0.18545524775981903,-0.18729525804519653
1772649506812497200,3.7954970703125,0.26119956374168396,0.1108928993344307,-0.17783793807029724
1772649506822541300,3.805541259765625,0.2868519127368927,0.04141394793987274,-0.18277223408222198
1772649506832585200,3.815585205078125,0.3255588710308075,-0.006591153796762228,-0.2219642996788025
1772649506842629000,3.825629150390625,0.3588675558567047,-0.061174239963293076,-0.2823602557182312
1772649506852673000,3.835673095703125,0.40527579188346863,-0.08984662592411041,-0.32106849551200867
1772649506862717200,3.84571728515625,0.4458155035972595,-0.1450137495994568,-0.3609429597854614
1772649506872761300,3.85576123046875,0.4801997244358063,-0.2097790688276291,-0.3654782772064209
1772649506882805000,3.865804931640625,0.5079218745231628,-0.2418493777513504,-0.327664315700531
1772649506892849200,3.87584912109375,0.5323925614356995,-0.23288565874099731,-0.27201586961746216
1772649506902893000,3.88589306640625,0.5328399538993835,-0.20881521701812744,-0.20937034487724304
1772649506912937200,3.895937255859375,0.5021077394485474,-0.18918730318546295,-0.14016379415988922
1772649506922981000,3.905981201171875,0.4456484913825989,-0.12470950931310654,-0.14379873871803284
1772649506933025000,3.91602490234375,0.3441704511642456,-0.08725463598966599,-0.2839691936969757
1772649506943069200,3.926069091796875,0.21067017316818237,-0.058655746281147,-0.472979336977005
1772649506953113000,3.936113037109375,0.08796647936105728,-0.038829073309898376,-0.6041460037231445
1772649506963157200,3.9461572265625,-0.023061765357851982,-0.14142575860023499,-0.6357236504554749
1772649506973201200,3.956201171875,-0.09730026125907898,-0.35333266854286194,-0.5502732396125793
1772649506983245000,3.9662451171875,-0.14281821250915527,-0.613378643989563,-0.34357544779777527
1772649506993289200,3.976289306640625,-0.16249945759773254,-0.7720776796340942,-0.07527543604373932
1772649507003333000,3.9863330078125,-0.14647522568702698,-0.7477614283561707,0.15920443832874298
1772649507013378000,3.9963779296875,-0.1032751277089119,-0.5422800779342651,0.2867184579372406
1772649507023422200,4.006422119140625,-0.04311139136552811,-0.2694435119628906,0.29075103998184204
1772649507033466000,4.016466064453125,0.04506374150514603,-0.015998978167772293,0.26553329825401306
1772649507043510300,4.02651025390625,0.12021548300981522,0.16229060292243958,0.2289436012506485
1772649507053554200,4.03655419921875,0.14645171165466309,0.28129854798316956,0.21890968084335327
1772649507063598000,4.04659814453125,0.13129858672618866,0.38793444633483887,0.23534910380840302
1772649507073642000,4.05664208984375,0.08080947399139404,0.42820292711257935,0.2540070116519928
1772649507083686100,4.06668603515625,0.031237127259373665,0.4439539313316345,0.29166117310523987
1772649507093730300,4.076730224609375,0.011163354851305485,0.49638688564300537,0.348482221364975
1772649507103774000,4.08677392578125,0.021558204665780067,0.5878880620002747,0.4031798243522644
1772649507113818000,4.096818115234375,0.05757932364940643,0.6780126094818115,0.44697338342666626
1772649507123862000,4.106862060546875,0.07997837662696838,0.7556645274162292,0.4755813181400299
1772649507133906200,4.11690625,0.056702177971601486,0.8195788860321045,0.4611702263355255
1772649507143950300,4.126950439453125,0.0076169222593307495,0.8116394877433777,0.3967728614807129
1772649507153994000,4.136993896484375,-0.0538022480905056,0.713853657245636,0.25915729999542236
1772649507164038100,4.1470380859375,-0.12666073441505432,0.5280590057373047,0.07319223135709763
1772649507174082000,4.15708203125,-0.21158663928508759,0.28004342317581177,-0.15048550069332123
1772649507184126200,4.167126220703125,-0.3101710081100464,0.005349809303879738,-0.2876438796520233
1772649507194170000,4.177170166015625,-0.3623448610305786,-0.21822723746299744,-0.2913358807563782
1772649507204214000,4.187214111328125,-0.33687731623649597,-0.2212965339422226,-0.2079448401927948
1772649507214258200,4.197258056640625,-0.2754690647125244,-0.1447955071926117,-0.12283270061016083
1772649507224302000,4.207302001953125,-0.2645255923271179,-0.14467193186283112,0.1124008521437645
1772649507234346200,4.21734619140625,-0.2754920721054077,-0.12339882552623749,0.4382837414741516
1772649507244391200,4.22739111328125,-0.2834213674068451,-0.09478475153446198,0.726595938205719
1772649507254435000,4.23743505859375,-0.25030064582824707,-0.10173578560352325,0.9528972506523132
1772649507264479200,4.247479248046875,-0.20762507617473602,-0.10174936801195145,1.0784837007522583
1772649507274523100,4.257523193359375,-0.27156150341033936,-0.07098988443613052,1.1098873615264893
1772649507284567000,4.267567138671875,-0.4127918481826782,-0.0061416421085596085,1.1030480861663818
1772649507294611200,4.277611083984375,-0.4214564561843872,0.04818178340792656,0.9996708631515503
1772649507304655000,4.287655029296875,-0.3803550899028778,0.03626547008752823,0.7797489166259766
1772649507314699300,4.29769921875,-0.35392099618911743,0.06740181148052216,0.5251526236534119
1772649507324743000,4.307742919921875,-0.3499600887298584,0.18483097851276398,0.24713914096355438
1772649507334787000,4.317787109375,-0.3427121043205261,0.30808472633361816,0.017175130546092987
1772649507344831200,4.327831298828125,-0.30056384205818176,0.360251784324646,-0.04988672584295273
1772649507354875100,4.337875244140625,-0.24194955825805664,0.3168275058269501,0.0815371721982956
1772649507364919300,4.347919189453125,-0.1333245486021042,0.2084411084651947,0.3268081843852997
1772649507374963000,4.357962890625,-0.025235585868358612,0.0642748475074768,0.48057305812835693
1772649507385007000,4.368007080078125,0.04923412203788757,-0.10326354950666428,0.49384331703186035
1772649507395051300,4.37805126953125,0.09245370328426361,-0.25129571557044983,0.39887234568595886
1772649507405095200,4.38809521484375,0.0882515013217926,-0.3458395302295685,0.23623763024806976
1772649507415139000,4.39813916015625,0.06024574860930443,-0.3841288387775421,0.07875422388315201
1772649507425183000,4.408182861328125,0.02102137915790081,-0.30835285782814026,-0.044086746871471405
1772649507435227100,4.41822705078125,-0.0321047380566597,-0.14517833292484283,-0.14243245124816895
1772649507445271000,4.42827099609375,-0.07851458340883255,0.0692540779709816,-0.21254362165927887
1772649507455315200,4.438315185546875,-0.1051461324095726,0.3320690095424652,-0.20233042538166046
1772649507465359000,4.448359130859375,-0.10067308694124222,0.5957959890365601,-0.1402183175086975
1772649507475403000,4.458403076171875,-0.10907252877950668,0.7424423694610596,-0.0881810113787651
1772649507485447200,4.468447265625,-0.14045041799545288,0.8519238233566284,-0.03560089319944382
1772649507495492000,4.4784921875,-0.1763845533132553,0.8629326820373535,-0.013020163401961327
1772649507505536000,4.488535888671875,-0.22773616015911102,0.678788959980011,-0.0648609921336174
1772649507515580200,4.498580078125,-0.23738662898540497,0.3597358465194702,-0.19083522260189056
1772649507525624000,4.5086240234375,-0.23984979093074799,0.04089740663766861,-0.34179413318634033
1772649507535668200,4.518668212890625,-0.3339320421218872,-0.3757971525192261,-0.3435634672641754
1772649507545711900,4.5287119140625,-0.430181622505188,-0.6518404483795166,-0.26405957341194153
1772649507555756000,4.538756103515625,-0.3742659389972687,-0.6100568771362305,-0.025228358805179596
1772649507565800200,4.54880029296875,-0.16661155223846436,-0.7807039618492126,0.13306806981563568
1772649507575844000,4.558843994140625,-0.028970640152692795,-0.9702365398406982,0.09341020882129669
1772649507585888300,4.56888818359375,0.011263065040111542,-1.1499890089035034,-0.13100771605968475
1772649507595932000,4.578931884765625,-0.011155298911035061,-1.0411299467086792,-0.39598944783210754
1772649507605976000,4.58897607421875,-0.14125710725784302,-0.6758131980895996,-0.5216421484947205
1772649507616020200,4.599020263671875,-0.25150060653686523,-0.20703677833080292,-0.5096733570098877
1772649507626064100,4.609064208984375,-0.22841128706932068,0.2944958209991455,-0.4687131345272064
1772649507636108300,4.6191083984375,-0.14153729379177094,0.5619602799415588,-0.31870800256729126
1772649507646152000,4.62915185546875,0.004084889777004719,0.5530994534492493,-0.27850306034088135
1772649507656196000,4.639196044921875,0.12666060030460358,0.388856440782547,-0.22203980386257172
1772649507666240000,4.649239990234375,0.09708114713430405,0.00771972443908453,-0.11293435096740723
1772649507676284200,4.6592841796875,-0.11378200352191925,-0.31866157054901123,0.04744125157594681
1772649507686328000,4.669328125,-0.3398454785346985,-0.4301958382129669,0.2258346974849701
1772649507696372000,4.6793720703125,-0.4902833104133606,-0.7222156524658203,0.24821965396404266
1772649507706415000,4.6894150390625,-0.52714604139328,-0.6205734014511108,0.23631586134433746
1772649507716459000,4.699458984375,-0.5606432557106018,-0.4527950882911682,0.18490463495254517
1772649507726503200,4.709503173828125,-0.5424813032150269,-0.4269866645336151,0.059917427599430084
1772649507736547000,4.719547119140625,-0.5114966630935669,-0.2532998323440552,-0.04700205847620964
1772649507746592000,4.729592041015625,-0.5246628522872925,-0.11280795931816101,-0.10414497554302216
1772649507756636200,4.73963623046875,-0.5533943176269531,-0.02375584840774536,-0.13478676974773407
1772649507766680000,4.74968017578125,-0.3156752586364746,0.0776863545179367,-0.12919944524765015
1772649507776724200,4.75972412109375,-0.23949772119522095,-0.16247306764125824,-0.36069631576538086
1772649507786768100,4.76976806640625,-0.3874933123588562,0.033166997134685516,-0.4864638149738312
1772649507796812000,4.77981201171875,-0.4463934600353241,0.16411197185516357,-0.5415295362472534
1772649507806856200,4.789856201171875,-0.51031494140625,0.3456149101257324,-0.5397305488586426
1772649507816900000,4.799900146484375,-0.5346576571464539,0.5710567831993103,-0.5095027685165405
1772649507826944000,4.809944091796875,-0.46974894404411316,0.7453463077545166,-0.47260788083076477
1772649507836988000,4.81998779296875,-0.37484219670295715,0.8133276104927063,-0.4172038733959198
1772649507847032000,4.830031982421875,-0.4316873848438263,0.7522786855697632,-0.4333604872226715
1772649507857076200,4.840076171875,-0.43308308720588684,0.7074013352394104,-0.4164849817752838
1772649507867120000,4.8501201171875,-0.28613704442977905,0.6719695925712585,-0.2951534688472748
1772649507877164000,4.8601640625,-0.1279788613319397,0.6980872750282288,-0.09586600214242935
1772649507887208000,4.8702080078125,0.009515085257589817,0.6543416976928711,-0.0017672008834779263
1772649507897252000,4.880252197265625,-0.022774944081902504,0.6162885427474976,-0.025114601477980614
1772649507907296300,4.890296142578125,-0.07560593634843826,0.6091017723083496,-0.030276605859398842
1772649507917340200,4.900340087890625,-0.04041271284222603,0.46542122960090637,-0.01844455674290657
1772649507927384000,4.910384033203125,-0.06715378165245056,0.12103402614593506,-0.019142303615808487
1772649507937428000,4.920427978515625,-0.11458270251750946,0.2562130093574524,0.1812852919101715
1772649507947472100,4.93047216796875,-0.01771927811205387,0.0991874411702156,0.31440284848213196
1772649507957516300,4.940516357421875,0.1773296296596527,0.10475966334342957,0.5179844498634338
1772649507967560000,4.950559814453125,0.42174336314201355,0.04641539603471756,0.5893614292144775
1772649507977604000,4.96060400390625,0.5495705008506775,0.01848987489938736,0.5754318833351135
1772649507987648000,4.97064794921875,0.5364105105400085,-0.029243825003504753,0.4980716109275818
1772649507997693200,4.980693115234375,0.4971269965171814,-0.05980232357978821,0.41884279251098633
1772649508007737000,4.990737060546875,0.4302632808685303,-0.11314091831445694,0.24753789603710175
1772649508017781000,5.000781005859375,0.3792548179626465,-0.10542763024568558,0.05825091525912285
1772649508027825200,5.0108251953125,0.38012194633483887,-0.032666079699993134,-0.122591033577919
1772649508037869000,5.020869140625,0.37620413303375244,0.07408495992422104,-0.2501985728740692
1772649508047914000,5.0309140625,0.3486452102661133,0.20306184887886047,-0.2622208893299103
1772649508057958100,5.040958251953125,0.31892797350883484,0.31800568103790283,-0.17110063135623932
1772649508068002000,5.051001953125,0.2990749180316925,0.4170217514038086,-0.07530513405799866
1772649508078046200,5.061046142578125,0.2935257852077484,0.4020090401172638,0.024895835667848587
1772649508088090000,5.071090087890625,0.29144585132598877,0.23952877521514893,0.1392567753791809
1772649508098134000,5.081134033203125,0.23229026794433594,-0.02812189608812332,0.22424961626529694
1772649508108178200,5.09117822265625,0.12577314674854279,-0.35595250129699707,0.22752530872821808
1772649508118222000,5.10122216796875,0.05101316049695015,-0.7351304292678833,0.13763244450092316
1772649508128266000,5.111265869140625,0.02297167107462883,-1.0307769775390625,0.01572357676923275
1772649508138310100,5.12131005859375,-0.004832714796066284,-1.2411178350448608,-0.049742892384529114
1772649508148354000,5.13135400390625,-0.01004878245294094,-1.2360607385635376,0.07408425211906433
1772649508158398200,5.141398193359375,0.021576186642050743,-1.066301703453064,0.2740190625190735
1772649508168442000,5.151442138671875,-0.002249783603474498,-0.867570161819458,0.371001273393631
1772649508178486000,5.161486083984375,-0.034687768667936325,-0.6513139009475708,0.3216434121131897
1772649508188530200,5.1715302734375,0.013190541416406631,-0.3389567732810974,0.20011430978775024
1772649508198574000,5.181573974609375,0.13609036803245544,0.017260733991861343,0.05002494528889656
1772649508208618200,5.1916181640625,0.2694987654685974,0.23218262195587158,-0.03387661278247833
1772649508218662100,5.201662109375,0.24659648537635803,0.23354575037956238,-0.06846220046281815
1772649508228706000,5.2117060546875,0.09843897074460983,0.021429769694805145,-0.04874042421579361
1772649508238751200,5.221751220703125,-0.043206389993429184,-0.24277332425117493,-0.01291653886437416
1772649508248795100,5.231795166015625,-0.12816308438777924,-0.46338480710983276,-0.05155261605978012
1772649508258839000,5.241839111328125,-0.21932053565979004,-0.5731766223907471,-0.16513943672180176
1772649508268883000,5.251883056640625,-0.32223013043403625,-0.5802345275878906,-0.24891474843025208
1772649508278927000,5.261927001953125,-0.41643694043159485,-0.45905330777168274,-0.21172639727592468
1772649508288971300,5.27197119140625,-0.4655211269855499,-0.23733477294445038,-0.09226924180984497
1772649508299015200,5.28201513671875,-0.43709850311279297,0.09557358920574188,0.0428801104426384
1772649508309059000,5.29205908203125,-0.3511926531791687,0.39210963249206543,0.09967894852161407
1772649508319103000,5.30210302734375,-0.2569359838962555,0.5305007696151733,0.09616893529891968
1772649508329147100,5.312147216796875,-0.21987010538578033,0.5429087281227112,0.13221855461597443
1772649508339191300,5.32219140625,-0.2531437277793884,0.4406435489654541,0.21991237998008728
1772649508349235000,5.33223486328125,-0.3211531341075897,0.22476239502429962,0.31744667887687683
1772649508359279000,5.342279052734375,-0.4309443533420563,0.02115040272474289,0.384493887424469
1772649508369323000,5.352322998046875,-0.5328435897827148,-0.07922813296318054,0.4150371551513672
1772649508379367200,5.3623671875,-0.5666596293449402,-0.07754315435886383,0.4075171649456024
1772649508389411000,5.3724111328125,-0.5139870643615723,-0.002152522560209036,0.3438149094581604
1772649508399455000,5.382455078125,-0.3921925723552704,0.1161481961607933,0.24888703227043152
1772649508409499100,5.3924990234375,-0.19844548404216766,0.14397209882736206,0.13208477199077606
1772649508419543000,5.40254296875,-0.040183261036872864,0.03713421896100044,0.017178205773234367
1772649508429587200,5.412587158203125,0.019502442330121994,-0.10342955589294434,-0.08407970517873764
1772649508439631000,5.422631103515625,-0.004741261247545481,-0.2135915607213974,-0.16064947843551636
1772649508449675000,5.432675048828125,-0.07658615708351135,-0.23352958261966705,-0.22172509133815765
1772649508459719200,5.44271923828125,-0.11669006198644638,-0.1903975009918213,-0.26905739307403564
1772649508469763000,5.45276318359375,-0.12053167819976807,-0.07571619749069214,-0.3168904185295105
1772649508479808000,5.46280810546875,-0.09072771668434143,0.13835503160953522,-0.28983020782470703
1772649508489852200,5.47285205078125,-0.01899281144142151,0.2887493371963501,-0.20199008285999298
1772649508499896000,5.48289599609375,0.07772404700517654,0.29064491391181946,-0.08395272493362427
1772649508509940200,5.492940185546875,0.1547224223613739,0.1501876562833786,0.030808478593826294
1772649508519983900,5.50298388671875,0.14336687326431274,-0.10808868706226349,0.036131005734205246
1772649508530027800,5.51302783203125,0.14222542941570282,-0.4686330258846283,-0.04103754833340645
1772649508540071700,5.52307177734375,0.10090147703886032,-0.6714564561843872,-0.1287526786327362
1772649508550115800,5.53311572265625,0.05004655197262764,-0.662207305431366,-0.19069860875606537
1772649508560160000,5.543159912109375,0.016955018043518066,-0.5517720580101013,-0.21409426629543304
1772649508570204000,5.553203857421875,-0.020106595009565353,-0.33268630504608154,-0.1614968329668045
1772649508580247800,5.563247802734375,-0.04356652870774269,-0.08807609975337982,-0.02238769643008709
1772649508590291700,5.573291748046875,-0.0340539813041687,0.08096139132976532,0.17427556216716766
1772649508600336000,5.5833359375,-0.005776412319391966,0.16514813899993896,0.34471210837364197
1772649508610380000,5.593380126953125,0.014950172044336796,0.22727462649345398,0.43753448128700256
1772649508620423700,5.603423583984375,0.01894953101873398,0.3137376308441162,0.44519898295402527
1772649508630467800,5.6134677734375,0.03695755824446678,0.38420379161834717,0.4188408851623535
1772649508640511700,5.62351171875,0.05904979258775711,0.39181578159332275,0.3821737468242645
1772649508650556000,5.633555908203125,0.08254126459360123,0.3515858054161072,0.37669190764427185
1772649508660600000,5.64360009765625,0.11840540915727615,0.2690792977809906,0.3370976746082306
1772649508670643700,5.653643798828125,0.12623350322246552,0.16457925736904144,0.25299662351608276
1772649508680687900,5.66368798828125,0.10795722156763077,0.0639885887503624,0.14011693000793457
1772649508690731800,5.673731689453125,0.010740659199655056,-0.02397375926375389,0.033961474895477295
1772649508700776000,5.68377587890625,-0.13971754908561707,-0.1130724772810936,-0.058589763939380646
1772649508710819800,5.69381982421875,-0.2691376209259033,-0.14201916754245758,-0.13750535249710083
1772649508720864800,5.70386474609375,-0.3150745928287506,-0.05531179532408714,-0.2898102402687073
1772649508730909000,5.713908935546875,-0.27653437852859497,0.1306932270526886,-0.5479128360748291
1772649508740952800,5.723952880859375,-0.15327699482440948,0.3481460511684418,-0.8430303931236267
1772649508750996700,5.733996826171875,-0.00542733957991004,0.5178735256195068,-0.9984138607978821
1772649508761041000,5.744041015625,0.09309550374746323,0.5654203295707703,-0.9315783977508545
1772649508771084800,5.754084716796875,0.09030265361070633,0.4258885085582733,-0.7139281034469604
1772649508781129000,5.76412890625,0.10510877519845963,0.29188448190689087,-0.4259115755558014
1772649508791172900,5.7741728515625,0.20395787060260773,0.20537568628787994,-0.22448550164699554
1772649508801216800,5.784216796875,0.2974569797515869,0.1641681045293808,-0.18554826080799103
1772649508811261000,5.794260986328125,0.383635550737381,0.1906745433807373,-0.2179701179265976
1772649508821304800,5.804304931640625,0.43122315406799316,0.21707096695899963,-0.2573869228363037
1772649508831349000,5.814348876953125,0.3980332314968109,0.21700865030288696,-0.21411560475826263
1772649508841392600,5.824392578125,0.30551692843437195,0.2144886702299118,-0.07186559587717056
1772649508851436800,5.834436767578125,0.19514061510562897,0.21081776916980743,0.13827939331531525
1772649508861481000,5.84448095703125,0.11395075172185898,0.264072060585022,0.3766878545284271
1772649508871524900,5.85452490234375,0.04978001490235329,0.31979072093963623,0.5837520956993103
1772649508881569000,5.864569091796875,-0.05089273676276207,0.29525458812713623,0.7212089896202087
1772649508891612700,5.87461279296875,-0.18301989138126373,0.1710655391216278,0.7693016529083252
1772649508901656800,5.88465673828125,-0.31741032004356384,-0.023303823545575142,0.6984012126922607
1772649508911700700,5.89470068359375,-0.45953842997550964,-0.2772996127605438,0.5136111378669739
1772649508921745000,5.904744873046875,-0.5721391439437866,-0.4600091576576233,0.34534335136413574
1772649508931788800,5.914788818359375,-0.636072039604187,-0.5388222336769104,0.28069692850112915
1772649508941832700,5.924832763671875,-0.6702004671096802,-0.47931286692619324,0.35215112566947937
1772649508951876900,5.934876953125,-0.6541272401809692,-0.31722623109817505,0.50790935754776
1772649508961920800,5.944920654296875,-0.61089026927948,-0.09747741371393204,0.616392195224762
1772649508971965700,5.954965576171875,-0.5337778925895691,0.1401580423116684,0.6044481992721558
1772649508982009900,5.965009765625,-0.42702075839042664,0.3436124622821808,0.5210840702056885
1772649508992053800,5.9750537109375,-0.33683839440345764,0.40958961844444275,0.4254232943058014
1772649509002098000,5.985097900390625,-0.28576046228408813,0.38860416412353516,0.36795657873153687
1772649509012141800,5.995141845703125,-0.27194640040397644,0.343368262052536,0.3197946548461914
1772649509022185700,6.005185791015625,-0.2872259020805359,0.26612505316734314,0.25717198848724365
1772649509032230000,6.01522998046875,-0.284419447183609,0.15307867527008057,0.18552762269973755
1772649509042273800,6.025273681640625,-0.24634477496147156,0.08026991784572601,0.12071837484836578
1772649509052318000,6.03531787109375,-0.19654393196105957,0.04611220955848694,0.08869758993387222
1772649509062361900,6.04536181640625,-0.14424315094947815,0.059663351625204086,0.11568346619606018
1772649509072405800,6.05540576171875,-0.1002487987279892,0.07261696457862854,0.19247065484523773
1772649509082450000,6.065449951171875,-0.07418850064277649,0.03019745834171772,0.27874788641929626
1772649509092493800,6.075493896484375,-0.051178257912397385,-0.012374769896268845,0.3639533221721649
1772649509102538000,6.0855380859375,-0.0021517304703593254,-0.06720662117004395,0.4229810833930969
1772649509112581600,6.09558154296875,0.03830248489975929,-0.14306329190731049,0.4436751902103424
1772649509122625800,6.105625732421875,0.08421667665243149,-0.25397273898124695,0.4133813679218292
1772649509132670000,6.115669921875,0.14121896028518677,-0.33460715413093567,0.3647339344024658
1772649509142713900,6.1257138671875,0.19049888849258423,-0.3936583399772644,0.3086231052875519
1772649509152757800,6.1357578125,0.25027912855148315,-0.40946340560913086,0.217164546251297
1772649509162801700,6.1458017578125,0.28466787934303284,-0.3301737606525421,0.12154912948608398
1772649509172845800,6.155845703125,0.2679424285888672,-0.1674378365278244,0.044697221368551254
1772649509182890000,6.165889892578125,0.2277097851037979,-0.012313551269471645,0.027818884700536728
1772649509192934000,6.175933837890625,0.19858331978321075,0.052166104316711426,0.06217632442712784
1772649509202977800,6.185977783203125,0.19423067569732666,0.04206213355064392,0.140749990940094
1772649509213021700,6.196021728515625,0.2200271189212799,0.04211752861738205,0.2500551640987396
1772649509223067000,6.20606689453125,0.2665494680404663,0.04917268455028534,0.3840755224227905
1772649509233110800,6.21611083984375,0.34210440516471863,0.021599382162094116,0.5044589042663574
1772649509243154700,6.22615478515625,0.4148196876049042,-0.03811584785580635,0.5438544750213623
1772649509253198800,6.23619873046875,0.46083030104637146,-0.17240281403064728,0.48294562101364136
1772649509263242800,6.24624267578125,0.4598996043205261,-0.34849801659584045,0.33439943194389343
1772649509273287000,6.256286865234375,0.40675994753837585,-0.5492721199989319,0.16381332278251648
1772649509283330800,6.266330810546875,0.3416803777217865,-0.7412991523742676,0.026189038529992104
1772649509293374700,6.276374755859375,0.2829637825489044,-0.935989260673523,-0.08624482899904251
1772649509303419000,6.2864189453125,0.21929863095283508,-1.210392713546753,-0.2627274990081787
1772649509313462800,6.296462890625,0.11763539165258408,-1.5842424631118774,-0.5748183131217957
1772649509323507000,6.3065068359375,-0.051372677087783813,-1.784201979637146,-0.9501292109489441
1772649509333550800,6.31655078125,-0.21591287851333618,-1.6889625787734985,-1.3296751976013184
1772649509343594800,6.3265947265625,-0.25941523909568787,-1.1910961866378784,-1.6061604022979736
1772649509353639000,6.336638916015625,-0.17356397211551666,-0.4796534478664398,-1.7649002075195312
1772649509363682800,6.346682861328125,-0.03811223432421684,0.22661742568016052,-1.6705372333526611
1772649509373726700,6.356726806640625,0.14780516922473907,0.8805299997329712,-1.3007041215896606
1772649509383771000,6.36677099609375,0.30170971155166626,1.3318644762039185,-0.7674835920333862
1772649509393814800,6.376814697265625,0.3733554184436798,1.415850281715393,-0.3036693036556244
1772649509403859000,6.38685888671875,0.3694182336330414,1.174787163734436,0.026491492986679077
1772649509413902800,6.39690283203125,0.2863214910030365,0.8035857081413269,0.22939294576644897
1772649509423946800,6.40694677734375,0.17020846903324127,0.47466710209846497,0.28263384103775024
1772649509433991000,6.416990966796875,0.08184052258729935,0.3447389304637909,0.2046051025390625
1772649509444034800,6.427034912109375,0.06263445317745209,0.48290443420410156,0.040697891265153885
1772649509454079000,6.437078857421875,0.09906463325023651,0.7663390636444092,-0.14916180074214935
1772649509464123000,6.447122802734375,0.14891360700130463,0.9778961539268494,-0.3631006181240082
1772649509474167800,6.457167724609375,0.1875195950269699,1.0894029140472412,-0.6061174869537354
1772649509484212000,6.4672119140625,0.19953231513500214,1.0860346555709839,-0.8233206272125244
1772649509494255900,6.477255859375,0.19140781462192535,0.9545336365699768,-0.9722973108291626
1772649509504299800,6.4872998046875,0.12416252493858337,0.7090123891830444,-0.9945149421691895
1772649509514343700,6.49734375,0.03465768322348595,0.4822423756122589,-0.8702475428581238
1772649509524387600,6.5073876953125,-0.0492226667702198,0.3585486114025116,-0.7370126247406006
1772649509534431700,6.517431640625,-0.0781821459531784,0.24403350055217743,-0.7339316010475159
1772649509544476000,6.527475830078125,-0.10083286464214325,0.13596081733703613,-0.8084841370582581
1772649509554519600,6.53751953125,-0.13282781839370728,0.16218602657318115,-0.8548151254653931
1772649509564563700,6.547563720703125,-0.1317226141691208,0.24044860899448395,-0.8368683457374573
1772649509574607600,6.557607666015625,-0.11935834586620331,0.2901841998100281,-0.7647355794906616
1772649509584651800,6.56765185546875,-0.12055880576372147,0.36440521478652954,-0.6448639631271362
1772649509594695700,6.57769580078125,-0.1078757643699646,0.5116657614707947,-0.4460216760635376
1772649509604739600,6.587739501953125,-0.047189246863126755,0.6217328906059265,-0.2051670104265213
1772649509614783700,6.59778369140625,0.03934687748551369,0.5793925523757935,0.0009488117648288608
1772649509624827600,6.60782763671875,0.09908782690763474,0.40614053606987,0.15969476103782654
1772649509634871800,6.617871826171875,0.09784653037786484,0.12449102848768234,0.2027151882648468
1772649509644915700,6.627915771484375,0.03305874392390251,-0.17095765471458435,0.12922446429729462
1772649509654959600,6.637959716796875,-0.06232583522796631,-0.35656002163887024,-0.027468742802739143
1772649509665003800,6.648003662109375,-0.14930574595928192,-0.3699791729450226,-0.21230623126029968
1772649509675047700,6.658047607421875,-0.21710790693759918,-0.24015775322914124,-0.32519128918647766
1772649509685091800,6.668091796875,-0.23189528286457062,-0.04175378754734993,-0.3239360749721527
1772649509695135700,6.6781357421875,-0.16867583990097046,0.13455946743488312,-0.22558367252349854
1772649509705179600,6.6881796875,-0.04072771593928337,0.2543279230594635,-0.048407819122076035
1772649509715223800,6.698223876953125,0.11270764470100403,0.28554657101631165,0.16041089594364166
1772649509725267700,6.708267822265625,0.2495746910572052,0.20714536309242249,0.3565920293331146
1772649509735312600,6.718312744140625,0.3333990275859833,0.09676452726125717,0.49104490876197815
1772649509745356800,6.728356689453125,0.33249711990356445,-0.03172840550541878,0.5270925164222717
1772649509755400700,6.738400634765625,0.29567649960517883,-0.1324440836906433,0.473551481962204
1772649509765444900,6.74844482421875,0.23023143410682678,-0.1703232079744339,0.3685762882232666
1772649509775488500,6.758488525390625,0.16179297864437103,-0.10494741052389145,0.24322529137134552
1772649509785532700,6.76853271484375,0.11364279687404633,0.04408672824501991,0.13416409492492676
1772649509795576800,6.778576904296875,0.09353993088006973,0.23033437132835388,0.06276155263185501
1772649509805620700,6.788620849609375,0.09393477439880371,0.3556581139564514,0.054315805435180664
1772649509815665000,6.798664794921875,0.11988408118486404,0.4293730854988098,0.11584920436143875
1772649509825708500,6.80870849609375,0.12439757585525513,0.4358816146850586,0.2190341055393219
1772649509835752700,6.818752685546875,0.11687973141670227,0.39354294538497925,0.36361896991729736
1772649509845796900,6.828796875,0.12158633768558502,0.35129350423812866,0.5115221738815308
1772649509855840800,6.8388408203125,0.12049843370914459,0.25332725048065186,0.5931584239006042
1772649509865884700,6.848884765625,0.09632565826177597,0.05121050775051117,0.5373877286911011
1772649509875928600,6.858928466796875,0.06179670989513397,-0.2027682363986969,0.3933354616165161
1772649509885972700,6.86897265625,-0.011224035173654556,-0.4030420482158661,0.25047019124031067
1772649509896016600,6.8790166015625,-0.12602758407592773,-0.579940140247345,0.15729950368404388
1772649509906060800,6.889060791015625,-0.3009827136993408,-0.5353029370307922,0.23878870904445648
1772649509916104700,6.899104736328125,-0.4097350239753723,-0.5303143262863159,0.3611606955528259
1772649509926148600,6.909148681640625,-0.4683634638786316,-0.7758535146713257,0.3670499920845032
1772649509936192800,6.91919287109375,-0.47452759742736816,-1.1084809303283691,0.17405657470226288
1772649509946236700,6.929236572265625,-0.5251264572143555,-1.291700005531311,-0.20109938085079193
1772649509956280800,6.93928076171875,-0.5528941750526428,-1.0291051864624023,-0.50611811876297
1772649509966324700,6.94932470703125,-0.5967977643013,-0.5349504351615906,-0.6850821375846863
1772649509976369700,6.95936962890625,-0.5701932907104492,0.04387406259775162,-0.6542989015579224
1772649509986413800,6.969413818359375,-0.45389994978904724,0.47967758774757385,-0.4977874457836151
1772649509996457700,6.979457763671875,-0.26123249530792236,0.7971886992454529,-0.24621859192848206
1772649510006501600,6.989501708984375,-0.06444466859102249,0.7966671586036682,-0.009575402364134789
1772649510016545800,6.9995458984375,0.040961116552352905,0.581127941608429,0.19813518226146698
1772649510026589700,7.009589599609375,0.021465180441737175,0.3426072597503662,0.4005540907382965
1772649510036633900,7.0196337890625,-0.05063937231898308,0.12896129488945007,0.5374839305877686
1772649510046677800,7.029677734375,-0.12282151728868484,0.04298773035407066,0.5702950954437256
1772649510056721700,7.0397216796875,-0.14180827140808105,0.16669316589832306,0.5053917169570923
1772649510066765800,7.049765869140625,-0.062358710914850235,0.4366671144962311,0.3921043276786804
1772649510076809700,7.059809814453125,0.05952378734946251,0.6725296974182129,0.25390011072158813
1772649510086853600,7.069853515625,0.13892361521720886,0.7201144695281982,0.1261095404624939
1772649510096897500,7.0798974609375,0.15681153535842896,0.5677337050437927,0.044110026210546494
1772649510106941700,7.089941650390625,0.1421068012714386,0.32138553261756897,0.025921007618308067
1772649510116985900,7.09998583984375,0.12316960841417313,0.05808145925402641,0.05807841196656227
1772649510127029800,7.11002978515625,0.10350415110588074,-0.13711576163768768,0.09839959442615509
1772649510137073700,7.12007373046875,0.08226757496595383,-0.2508772313594818,0.10953453183174133
1772649510147117600,7.13011767578125,0.011446703225374222,-0.2807520627975464,0.0794622004032135
1772649510157161700,7.14016162109375,-0.07981157302856445,-0.22561076283454895,0.038015685975551605
1772649510167206000,7.150205810546875,-0.1595316082239151,-0.17432327568531036,-0.026400253176689148
1772649510177249800,7.160249755859375,-0.22618280351161957,-0.17762427031993866,-0.1534722000360489
1772649510187293700,7.170293701171875,-0.31143543124198914,-0.15629255771636963,-0.27331405878067017
1772649510197337600,7.180337646484375,-0.40118423104286194,-0.06895552575588226,-0.3086557984352112
1772649510207381800,7.1903818359375,-0.49086910486221313,0.0492364801466465,-0.19596371054649353
1772649510217426000,7.200426025390625,-0.5296418070793152,0.06590574234724045,0.04650858789682388
1772649510227469600,7.210469482421875,-0.5288282036781311,-0.08645254373550415,0.3503243327140808
1772649510237514800,7.2205146484375,-0.5047228932380676,-0.3561391532421112,0.6103090643882751
1772649510247559000,7.230558837890625,-0.4835038185119629,-0.5748258233070374,0.6931766867637634
1772649510257602800,7.240602783203125,-0.4566628932952881,-0.6550492644309998,0.5817593336105347
1772649510267646700,7.250646728515625,-0.40790632367134094,-0.5960786938667297,0.3392188847064972
1772649510277690600,7.260690673828125,-0.31669652462005615,-0.45797327160835266,0.07097756862640381
1772649510287734800,7.27073486328125,-0.2076415717601776,-0.32605212926864624,-0.11716070026159286
1772649510297778700,7.28077880859375,-0.08048627525568008,-0.21008983254432678,-0.16739751398563385
1772649510307822600,7.290822509765625,0.04377942159771919,-0.08598075807094574,-0.08086340129375458
1772649510317866800,7.30086669921875,0.18055245280265808,0.05914900079369545,0.11411221325397491
1772649510327910700,7.31091064453125,0.32864460349082947,0.1944877952337265,0.33941566944122314
1772649510337954800,7.320954833984375,0.45385977625846863,0.2357659935951233,0.5250614285469055
1772649510347998700,7.330998779296875,0.5205780267715454,0.1415058821439743,0.6263322234153748
1772649510358042600,7.341042724609375,0.5345751047134399,-0.076335109770298,0.618834376335144
1772649510368086800,7.351086669921875,0.5213947296142578,-0.32093900442123413,0.5290181636810303
1772649510378130700,7.361130615234375,0.4674811363220215,-0.46420666575431824,0.40877673029899597
1772649510388174800,7.3711748046875,0.42656809091567993,-0.5131166577339172,0.31059783697128296
1772649510398218800,7.38121875,0.4147801399230957,-0.5103416442871094,0.2674301266670227
1772649510408262700,7.3912626953125,0.4092445969581604,-0.4340185821056366,0.27924931049346924
1772649510418306800,7.401306884765625,0.3890724778175354,-0.26613184809684753,0.3468150496482849
1772649510428350700,7.411350830078125,0.3625977039337158,-0.030148973688483238,0.4388315975666046
1772649510438395000,7.421394775390625,0.3272404968738556,0.24326260387897491,0.4846917688846588
1772649510448438500,7.4314384765625,0.25046855211257935,0.710537314414978,0.4804641008377075
1772649510458482700,7.441482666015625,0.1873851716518402,1.3540899753570557,0.48882028460502625
1772649510468526600,7.451526611328125,0.1080624982714653,1.605534553527832,0.5340606570243835
1772649510478570800,7.46157080078125,0.19891357421875,0.5303288102149963,0.4384090006351471
1772649510488615000,7.471614990234375,0.4099133312702179,-0.1237778514623642,0.47305360436439514
1772649510498659600,7.48165966796875,0.7135946750640869,-0.7168009877204895,0.42150387167930603
1772649510508703700,7.491703857421875,0.691254734992981,-1.329675555229187,0.24902477860450745
1772649510518748200,7.501748046875,0.6070868372917175,-1.6392467021942139,0.10709747672080994
1772649510528791800,7.511791748046875,0.4490772485733032,-1.7287700176239014,0.1032186970114708
1772649510538836000,7.5218359375,0.2797524034976959,-1.6878401041030884,0.16258881986141205
1772649510548880000,7.5318798828125,0.031239673495292664,-1.71730637550354,0.03436440974473953
1772649510558924000,7.541924072265625,-0.27206772565841675,-1.7241917848587036,-0.46276599168777466
1772649510568968000,7.551968017578125,-0.4754588305950165,-1.6782766580581665,-1.3418275117874146
