time,seconds_elapsed,z,y,x
1772794871269351700,0.0703515625,-0.289974879732728,0.47353258101195095,-0.5235649878880009
1772794871279395600,0.0803955078125,-0.2609913618326187,0.5985416472107171,-0.6003641499301419
1772794871289440500,0.0904404296875,-0.3108838122487068,0.6470651473611593,-0.6079822967836633
1772794871299484700,0.100484619140625,-0.36691783415973184,0.6877867415890098,-0.5907547196615487
1772794871309528600,0.110528564453125,-0.36542262716591356,0.6630702334836125,-0.5128756534282117
1772794871319573800,0.12057373046875,-0.18285130657553672,0.7713803860768675,-0.5058928818687797
1772794871329617700,0.13061767578125,0.025514965006709096,0.7952686266645789,-0.48004112265575677
1772794871339662600,0.14066259765625,0.16749591653347015,0.7350581958517431,-0.4666889256622642
1772794871349706800,0.150706787109375,0.34457682301402087,0.7133052137270569,-0.4617457701716572
1772794871359750700,0.160750732421875,0.47871465982496736,0.66924804533571,-0.45220520388819274
1772794871369795600,0.170795654296875,0.5400742606729269,0.6274041690796613,-0.42647465990204364
1772794871379839700,0.18083984375,0.5978501578152179,0.5475745533004402,-0.3915131270382553
1772794871389884700,0.190884765625,0.6384609851449727,0.4935132927671075,-0.41396600106060505
1772794871399928600,0.200928466796875,0.7076075866073369,0.4340829064160585,-0.4265743208842352
1772794871409972700,0.21097265625,0.7828098348468542,0.3983592666059732,-0.4327580144878477
1772794871420017700,0.221017578125,0.9374158746689557,0.3443275244280696,-0.20381187794720754
1772794871430061600,0.2310615234375,0.8993956483542919,0.1438742179274559,-0.2340843214130029
1772794871440106800,0.241106689453125,0.9624141223251819,0.22200725892186163,-0.7781887509174644
1772794871450150700,0.251150634765625,0.917829130667448,0.33891602077335115,-0.8288086388252675
1772794871460194600,0.261194580078125,0.7831716538965702,0.3309305749773979,-0.47377895698845385
1772794871470239700,0.27123974609375,0.6893541370362043,0.35601854674369093,-0.28712646803166714
1772794871480283600,0.28128369140625,0.547093784046173,0.43076106851696966,-0.31183062811214474
1772794871490328800,0.291328857421875,0.4078548247039318,0.47028088573962445,-0.35169516711924226
1772794871500372700,0.301372802734375,0.20353812077343464,0.462972900813818,-0.34369664264600724
1772794871510417700,0.311417724609375,0.03275017695724964,0.45648529236018653,-0.286291880371049
1772794871520461600,0.321461669921875,-0.1337654963672161,0.5923474687457084,-0.2484354663159698
1772794871530505700,0.331505615234375,-0.22370178788006304,0.6614331338010728,-0.31400172507353125
1772794871540550700,0.341550537109375,-0.2650543734878301,0.583950227278471,-0.4461315830629319
1772794871550594600,0.351594482421875,-0.2718447642803192,0.5205130895040929,-0.42159846870042383
1772794871560639700,0.3616396484375,-0.2679910114616155,0.5665550019718706,-0.36739297739081084
1772794871570683600,0.37168359375,-0.26308921089470383,0.6344707464650273,-0.31767398384548723
1772794871580727600,0.3817275390625,-0.23203940811455248,0.6576373947799206,-0.2559392660748213
1772794871590772700,0.391772705078125,-0.13567922103404997,0.6314198344618082,-0.183389285909757
1772794871600816600,0.401816650390625,-0.013169862696528435,0.60825771619156,-0.11453596830554306
1772794871610861800,0.41186181640625,0.05761866075396537,0.5759523603923619,-0.019710808772593735
1772794871620905700,0.42190576171875,0.09288228183686732,0.5850793774388731,0.05795746425427496
1772794871630950700,0.43195068359375,0.13322013744413852,0.5264965478278696,0.13010748531632124
1772794871640994800,0.441994873046875,0.15412497830688954,0.513485382824391,0.1370064510498196
1772794871651038700,0.452038818359375,0.19712825373113155,0.5014844177767634,0.11105174291897564
1772794871661083600,0.462083740234375,0.2605728441596031,0.48817733856663104,0.12339797774031758
1772794871671127600,0.47212744140625,0.2649953367769718,0.4570636767700314,0.12861761208474634
1772794871681172700,0.4821728515625,0.1856143415480852,0.6096737204693258,0.01631871864888817
1772794871691216600,0.492216552734375,0.03451309497654438,0.531252364052832,0.07005198933687061
1772794871701260500,0.502260498046875,-0.10800503216683864,0.40153497403264043,0.19349409847985952
1772794871711305700,0.5123056640625,-0.02077916865646839,0.43913551363050934,0.17637619227729737
1772794871721349600,0.522349609375,0.09873393047451973,0.521285973572731,0.12338431454114615
1772794871731394800,0.532394775390625,0.235458861169219,0.6532127102054656,0.015829656490311025
1772794871741438700,0.542438720703125,0.23493220694661138,0.5674868759945034,-0.07689012826122343
1772794871751482600,0.552482666015625,0.09345394424498081,0.31452158422917126,0.0692222605144605
1772794871761527800,0.56252783203125,0.10958265674710273,0.3474398112297058,0.08594192464705556
1772794871771571700,0.57257177734375,0.16494272491931913,0.46482948846593497,-0.007378821672312915
1772794871781616600,0.58261669921875,0.18119886319339273,0.5268712263591587,-0.1365725896771997
1772794871791660800,0.592660888671875,0.22623861288130281,0.6047044076241552,-0.1364560323591344
1772794871801705500,0.60270556640625,0.3763017485767603,0.8928384817957877,-0.22500823083613067
1772794871811749600,0.61274951171875,0.4448585674524307,1.078413368116319,-0.28950594704672694
1772794871821793500,0.62279345703125,0.4442921657413244,0.9617623804181814,-0.14129799249758943
1772794871831838700,0.632838623046875,0.48256665907800195,0.8557992293424904,-0.12207032759943977
1772794871841882600,0.642882568359375,0.5862205102980137,0.7037459427431225,-0.07552513265148736
1772794871851927800,0.652927734375,0.6455693558454513,0.6287950389161706,-0.1710527687648311
1772794871861971700,0.6629716796875,0.5560965901911258,0.4461711113557219,0.015398434599349274
1772794871872015600,0.673015625,0.49786885762810706,0.5690374664373695,-0.0713288226059638
1772794871882060800,0.683060791015625,0.4488157806456089,0.75684741833359,-0.2266355763096362
1772794871892104700,0.693104736328125,0.3690431557506323,0.8934490149095654,-0.43903168792985375
1772794871902149600,0.703149658203125,0.29759003091156483,0.7128017942495644,-0.13275109516028313
1772794871912193800,0.71319384765625,0.23964462242126464,0.6082564010173082,0.021167967044655234
1772794871922238500,0.723238525390625,0.3617985914498567,0.5404461627252399,0.16877943527167663
1772794871932282600,0.73328271484375,0.5896493157029151,0.5074485868781805,0.2917863861341029
1772794871942326800,0.743326904296875,0.6317156025379895,0.35932810968309636,0.5044951073674485
1772794871952371700,0.753371826171875,0.6644388914883136,0.46315760973095893,0.40441155238226056
1772794871962415600,0.76341552734375,0.5360328763276339,0.37025545414984223,0.5653859216598793
1772794871972460800,0.773460693359375,0.3804448397308588,0.4766228021122515,0.4031340432597324
1772794871982504700,0.783504638671875,0.21202479408979413,0.16837211484611034,0.692382033490017
1772794871992548600,0.793548583984375,0.21703005503118036,0.25366642577201126,0.6384452030539512
1772794872002593800,0.80359375,0.22359715846180914,0.4005544385626912,0.543214239199087
1772794872012637700,0.8136376953125,0.17900632158517837,0.5271212555974721,0.39433724454827607
1772794872022682600,0.8236826171875,0.06982523137629032,0.695045772806555,0.45182899098694324
1772794872032726800,0.833726806640625,0.049267596516013146,0.8897807016603648,0.48291287869978694
1772794872042771500,0.843771484375,-0.026259645894169806,0.809876997731626,0.6242976544316857
1772794872052815600,0.853815673828125,-0.0742354490339756,0.9820309692040086,0.31991887669544666
1772794872062859800,0.86385986328125,-0.21244272724092006,0.9081468178257346,0.3739673508124426
1772794872072904700,0.87390478515625,-0.23456863433122632,0.9061183807380497,0.48213447820581495
1772794872082948600,0.883948486328125,-0.13173252923488615,0.9169546859204769,0.5606675513684749
1772794872092993500,0.89399365234375,-0.05402385113239288,1.027076417980343,0.2877694786429405
1772794872103037700,0.90403759765625,0.2708370485424995,1.293903061837703,-0.04553188058640808
1772794872113081300,0.914081298828125,0.39191432825028893,1.4164897231951354,-0.36440526681691404
1772794872123126500,0.92412646484375,0.1856143415480852,1.245417409479618,-0.343153475680016
1772794872133170700,0.934170654296875,-0.11494272247552871,0.936199119290337,0.19126069513829425
1772794872143215600,0.944215576171875,-0.4423462923705578,0.4151066955283284,0.27523113704929125
1772794872153259500,0.954259521484375,-0.7176227846652269,-0.13084727083295583,0.47235257744714615
1772794872163303700,0.9643037109375,-0.9975602545082568,-0.57542424486503,0.9103730425078421
1772794872173348400,0.974348388671875,-1.1329980680018663,-0.920671368356049,1.3865977121479809
1772794872183392500,0.984392578125,-1.1783873617798089,-1.1440346449967473,1.8571144524700938
1772794872193437700,0.994437744140625,-1.19257779969573,-1.3674533050864934,2.2315319947354495
1772794872203481300,1.0044814453125,-1.2026648939460516,-1.5953225879095494,2.538668583279848
1772794872213526500,1.014526611328125,-1.1600421422719955,-1.8561122896902262,2.712879779542982
1772794872223570700,1.02457080078125,-1.0975304487794637,-2.027279880473763,2.807257268373668
1772794872233614300,1.0346142578125,-0.936730815014243,-2.005940885977447,2.660429753598571
1772794872243659500,1.044659423828125,-0.8192138581365347,-1.3477882351517676,1.7877049622878431
1772794872253703700,1.05470361328125,-0.871043414095044,-0.792552937965095,0.8530207045398652
1772794872263748600,1.06474853515625,-0.998501919272542,-0.6429959251608699,0.5233921520717442
1772794872273792500,1.07479248046875,-1.0986123987972736,-0.595237052707374,0.5810540674455463
1772794872283836700,1.084836669921875,-1.0532792191207407,-0.6405303387649357,0.7752505055084824
1772794872293881600,1.094881591796875,-0.8758043448865414,-0.7534339566282927,1.014817532648891
1772794872303925500,1.104925537109375,-0.715492786899209,-0.8222538103543221,1.1086726050406694
1772794872313970700,1.114970703125,-0.5559633192002773,-0.8409833530046046,1.1229105353601276
1772794872324014600,1.1250146484375,-0.3617465690016746,-0.812252056299895,1.0204409254886209
1772794872334059500,1.1350595703125,-0.2265443178296089,-0.944296427962929,1.0164075783193112
1772794872344103700,1.145103759765625,-0.08617313958704471,-1.0457320916768162,1.0360179954573512
1772794872354147300,1.155147216796875,0.05757014543712139,-1.0651274047594517,0.958265332082659
1772794872364192500,1.165192626953125,0.16442366948127746,-0.9818879074715078,0.8179924996480346
1772794872374236700,1.175236572265625,0.20105331822037695,-0.8484207364637404,0.6518173833895474
1772794872384281600,1.185281494140625,0.18088029876351355,-0.9467011510170996,0.6246347043663263
1772794872394325500,1.195325439453125,0.18263211086690426,-0.9715301065210252,0.6650913640476763
1772794872404369700,1.20536962890625,0.20927695668637752,-0.9087037210561335,0.6309638343226164
1772794872414414600,1.21541455078125,0.3041056964159012,-0.7720341007452458,0.6093641430635005
1772794872424458500,1.22545849609375,0.44597325069606303,-0.5601032685492188,0.6130972651772201
1772794872434503700,1.235503662109375,0.5909580602139234,-0.40145949764363464,0.5556431473352015
1772794872444547600,1.245547607421875,0.7022182947844267,-0.05846090199807658,0.35909444705769417
1772794872454592500,1.255592529296875,0.7515373292267322,0.31461583838388324,0.15810776433274149
1772794872464636700,1.26563671875,0.8312310436666012,0.5484817312732339,0.05797967608608305
1772794872474680600,1.2756806640625,0.8657616742998361,0.5921353603649884,-0.03359371510930359
1772794872484725500,1.2857255859375,0.8967313975811004,0.5123650004923344,-0.1493072392942384
1772794872494769700,1.295769775390625,0.6671545801877975,0.4550701648652553,0.09659289985783398
1772794872504814600,1.305814697265625,0.5789648400813341,0.7182615209601819,-0.061512380256876345
1772794872514858500,1.3158583984375,0.21150223152041434,0.1694753451139666,-0.34802265261895954
1772794872524902700,1.325902587890625,0.03769873927533626,-0.15468584532635285,-0.10747658784594386
1772794872534947600,1.335947509765625,-0.004316694155335426,-0.2687672930637374,0.15167714676335453
1772794872544991500,1.345991455078125,-0.038895840105414387,-0.5286407202497124,0.25055209314376115
1772794872555036700,1.35603662109375,0.005738251391053199,-0.9091480307575315,0.4522425767565146
1772794872565080600,1.36608056640625,0.1380792679131031,-1.2223136703331023,0.7313257313251494
1772794872575124500,1.37612451171875,0.1530284152418375,-1.4418234864160417,0.8773732016384601
1772794872585169700,1.386169677734375,-0.06355331149995326,-1.3665136861488223,0.9464607663899659
1772794872595213600,1.396213623046875,-0.28813831195533274,-1.1504003075711429,1.1225815956667065
1772794872605258500,1.406258544921875,-0.5230424618512391,-1.0371620509259403,1.1512835201464593
1772794872615302700,1.416302734375,-0.8799468515187502,-1.0455381034746765,1.308188046169281
1772794872625347600,1.42634765625,-1.2071452542304992,-1.0389435275152326,1.4581434837065637
1772794872635391500,1.4363916015625,-1.4775059174329042,-1.1546392603151499,1.4050398161590099
1772794872645435600,1.446435546875,-1.706059236997366,-1.3160636018499732,1.412596515148878
1772794872655480600,1.45648046875,-1.8330442794442177,-1.2781629102617502,1.3884336954034864
1772794872665524500,1.4665244140625,-1.89695356477499,-1.215572817770764,1.4124715735949576
1772794872675569400,1.4765693359375,-1.86379363797307,-1.124922167443484,1.4804723660230636
1772794872685613600,1.486613525390625,-1.7950743220120666,-1.1577636759459973,1.255674891860783
1772794872695657500,1.496657470703125,-1.5830442672252654,-0.8885008909828961,1.3138953179001807
1772794872705702700,1.50670263671875,-1.1204460449427365,-0.6260760622810572,1.5492473576940595
1772794872715746600,1.51674658203125,-0.9789718738943338,-0.5964275776661933,1.4708157721444963
1772794872725791500,1.52679150390625,-0.7815028439015149,-0.4241987873919308,1.380949330997467
1772794872735835600,1.536835693359375,-0.5404010084092616,-0.3201797561213374,1.1886891947593539
1772794872745880600,1.546880615234375,-0.30836744551360606,-0.3091413524955511,1.0933674108158797
1772794872755924500,1.556924560546875,-0.1971037038117647,-0.2645356833759695,1.0440718303143977
1772794872765968600,1.56696875,-0.1994517282426357,-0.17911409280858934,0.9881963599659502
1772794872776013600,1.577013671875,-0.2684954538524151,-0.07497304259352386,0.9382711763240397
1772794872786057500,1.587057373046875,-0.4456447493940592,-0.05400521949715912,0.8157260160207748
1772794872796102400,1.597102294921875,-0.5771265187382698,-0.0019105097964406013,0.6118597592715174
1772794872806146600,1.607146484375,-0.5319172577023505,0.09875643456727266,0.3803957764247432
1772794872816190500,1.6171904296875,-0.4022439990848303,0.14250154133476317,0.17100414385013282
1772794872826235600,1.627235595703125,-0.3011690584421158,0.17095453255474566,-0.07382181303205433
1772794872836279600,1.637279541015625,-0.24749182879030704,0.22400829654596743,-0.35594708894267674
1772794872846324500,1.647324462890625,-0.21838263868391514,0.2963282673474401,-0.5645693811126054
1772794872856368600,1.65736865234375,-0.17778993153274059,0.4698309500150382,-0.6805290255457163
1772794872866412500,1.66741259765625,-0.12304419586658477,0.71211059711501,-0.8177927392922342
1772794872876457500,1.67745751953125,0.044354105511307716,0.8754316391166299,-0.8437867199875414
1772794872886501600,1.687501708984375,0.35228549769520756,0.8821020567912607,-0.7827132426045834
1772794872896546600,1.697546630859375,0.7240940265059471,0.9435729359939694,-0.8624521113604307
1772794872906590500,1.707590576171875,1.0718109011113643,0.9309995778858661,-1.013362949926406
1772794872916634600,1.717634521484375,1.2903466845303773,0.8973543517850339,-1.141294187182188
1772794872926679600,1.727679443359375,1.4060206438899039,0.8245607721224427,-1.1394557197086512
1772794872936723500,1.737723388671875,1.437580149757862,0.7403534527156501,-1.1284513644829393
1772794872946768600,1.7477685546875,1.5007950230836868,0.5433867462217807,-1.0199990269400179
1772794872956812500,1.7578125,1.4948521890312432,0.21187004191949962,-0.9754599202506243
1772794872966857500,1.767857421875,1.4628572143554686,-0.01984890206903219,-1.0432347219031304
1772794872976901600,1.777901611328125,1.353020875108242,-0.2685305982310325,-1.0834106649469584
1772794872986945500,1.787945556640625,1.1148714596807956,-0.5118030557606369,-1.1243068120241164
1772794872996990500,1.797990478515625,0.8607984989345073,-0.6639923167645931,-1.1296101791292428
1772794873007034600,1.80803466796875,0.5721534065008164,-0.6311308614525943,-1.1057177738230675
1772794873017079600,1.81807958984375,0.3921931451916694,-0.5101758929502219,-1.011688586973399
1772794873027123500,1.82812353515625,0.2684112827003002,-0.4181785041891038,-0.8981132073283195
1772794873037167600,1.838167724609375,0.15745149238109588,-0.327621888820827,-0.7992330002509057
1772794873047212500,1.848212646484375,0.0259767372995615,-0.17431779844276607,-0.7470404561989009
1772794873057256400,1.85825634765625,-0.1496726750731468,0.001731792228668928,-0.6705673112407327
1772794873067301600,1.868301513671875,-0.31820670248270033,0.12830160493813456,-0.5565999366033823
1772794873077345500,1.878345458984375,-0.42776890096366404,0.17242131717167794,-0.40680772680379446
1772794873087391000,1.888390869140625,-0.4409335029631853,0.10205445319935678,-0.26983141516391185
1772794873097435000,1.898434814453125,-0.39796062267720694,-0.01366129947528243,-0.20713651059158145
1772794873107478800,1.908478759765625,-0.298602422824502,-0.09010492607802152,-0.19757574177030474
1772794873117524000,1.91852392578125,-0.24386603950858116,-0.2999520838677883,-0.28800767131298777
1772794873127568100,1.928568115234375,-0.2742202612400055,-0.5789259693756699,-0.392172540795058
1772794873137612800,1.93861279296875,-0.31979484845697875,-0.8426860652692616,-0.5863799386434256
1772794873147657000,1.948656982421875,-0.32693361429572104,-1.096685960779339,-0.7540058382321149
1772794873157701000,1.958701171875,-0.2781453257292509,-1.330331927307695,-0.8693111834749578
1772794873167745800,1.968745849609375,-0.1494733531087637,-1.5127946729570627,-0.9794956785727291
1772794873177790000,1.9787900390625,-0.028510639691352844,-1.6104308713227509,-0.9518013967655599
1772794873187835000,1.9888349609375,0.038088615375757216,-1.6874274556331335,-0.9878100640621036
1772794873197878800,1.998878662109375,0.06570669014155864,-1.617295788656175,-0.9830275790259242
1772794873207923000,2.0089228515625,0.07261223174631595,-1.5371891095012427,-0.908652283129841
1772794873217967900,2.0189677734375,0.05418459465205669,-1.4731427537873387,-0.8223697648841887
1772794873228011800,2.02901171875,-0.016682839253544808,-1.3819019555471836,-0.7176860591597854
1772794873238057000,2.039056884765625,-0.04989128137230873,-1.3013264898367225,-0.5490133173992857
1772794873248101000,2.04910107421875,-0.0907785875558853,-1.2893890915445982,-0.3775400947326794
1772794873258145800,2.059145751953125,-0.11212123531401157,-1.268236705661565,-0.2833281717272475
1772794873268190000,2.06918994140625,-0.12922259224057198,-1.293195351959765,-0.2518508642500266
1772794873278234000,2.079234130859375,-0.06865794116258621,-1.5909662923961876,-0.3557178467640653
1772794873288278800,2.08927880859375,-0.01118541088104248,-1.7769887763537466,-0.3672978099206462
1772794873298323000,2.099322998046875,0.026841829696297646,-1.8468468870863317,-0.31600542957875877
1772794873308368000,2.109367919921875,0.0567506457477808,-1.8456112078115343,-0.33213655323367564
1772794873318411800,2.119411865234375,0.05691255831122398,-1.7895063126213848,-0.3271946398520842
1772794873328456000,2.1294560546875,0.017602292186021804,-1.7200051986329257,-0.27777766146063804
1772794873338500900,2.1395009765625,-0.05071253462731838,-1.6523882909558711,-0.20369371319394558
1772794873348544800,2.149544677734375,-0.10076222143173218,-1.5881676015883683,-0.17750559816602615
1772794873358590000,2.15958984375,-0.1673719978928566,-1.5292707375921308,-0.16713303803782908
1772794873368634000,2.169634033203125,-0.21898177362084387,-1.5183822638310491,-0.14017448662668466
1772794873378679000,2.179678955078125,-0.245798468875885,-1.567102601727843,-0.11559230895806104
1772794873388723000,2.189722900390625,-0.31080314822793004,-1.6585529510654509,-0.09789762578085065
1772794873398767000,2.19976708984375,-0.36060324418544765,-1.7113799936287104,-0.14763678533136843
1772794873408811800,2.209811767578125,-0.4078150772154331,-1.6864976274371146,-0.11569397923424839
1772794873418856000,2.21985595703125,-0.48968029047548767,-1.697300761002302,-0.07206416940949857
1772794873428900900,2.22990087890625,-0.6251186884909868,-1.6376514712035655,0.007909494482912123
1772794873438944800,2.23994482421875,-0.7603110027909279,-1.4904434326782823,0.0706608784828335
1772794873448989000,2.249989013671875,-0.8604898713767528,-1.2615031596228479,0.12833033784227446
1772794873459033900,2.260033935546875,-0.9434551548331975,-1.0098268847547471,0.21392463636174797
1772794873469077800,2.270077880859375,-1.0065589689999819,-0.7507504166327417,0.29260351120326666
1772794873479123000,2.280123046875,-1.035816627666354,-0.42643231859765945,0.3804536806244403
1772794873489166800,2.290166748046875,-1.0336205789268016,-0.14197503324262797,0.46713371028769757
1772794873499210800,2.300210693359375,-1.0542144541442393,0.10430237825661898,0.5638577987771481
1772794873509256000,2.310255859375,-1.083697153738141,0.3757235102973878,0.652747065455094
1772794873519300000,2.320300048828125,-1.1115876157045363,0.6141093648292124,0.7366498489573597
1772794873529345000,2.330344970703125,-1.1645417917788028,0.7371578715447336,0.8088979966316372
1772794873539389000,2.340388916015625,-1.1565373490214348,0.814765719621256,0.8498780956652014
1772794873549433000,2.35043310546875,-1.1194500196427106,0.8307878299437462,0.8227266885630786
1772794873559477800,2.360477783203125,-1.07612701074481,0.789833742134273,0.8150044237479567
1772794873569522000,2.37052197265625,-1.0312649557113647,0.6966966087535024,0.7757725566212087
1772794873579566800,2.38056689453125,-0.9814882406294345,0.586271582898125,0.6937156932465731
1772794873589610800,2.39061083984375,-0.9738456169217824,0.5155200304571539,0.6225048527307808
1772794873599656000,2.400656005859375,-0.9618296004354954,0.5066577287614346,0.4972832397598773
1772794873609699800,2.410699951171875,-0.8662976808726787,0.5652000071663409,0.47010929203238333
1772794873619743700,2.42074365234375,-0.7868488811045885,0.580904210646078,0.44177897734399885
1772794873629789000,2.430788818359375,-0.7455565012514591,0.8047933377917855,0.2358294115146622
1772794873639833000,2.4408330078125,-0.430937594127655,0.993733462761715,0.18281057270634918
1772794873649878000,2.4508779296875,-0.14910042814314364,0.9505771156676113,0.3706593953082338
1772794873659922000,2.460921875,0.003393149569630623,1.197563552219048,0.20165493737533688
1772794873669966000,2.470966064453125,0.28296178610026834,1.2927965619005262,0.21545509733203796
1772794873680011000,2.481010986328125,0.4770739068806171,1.327733289116621,0.2710918270211667
1772794873690055000,2.491054931640625,0.6406377446621656,1.2869050196439027,0.3958092898622155
1772794873700099800,2.501099853515625,0.7919833213835954,1.3856784053459763,0.3898080036208033
1772794873710143700,2.511143798828125,0.9463982225477695,1.3163960486747324,0.4170598754227161
1772794873720188000,2.52118798828125,0.9728028298705815,1.4212385251574218,0.1933211895983666
1772794873730232800,2.53123291015625,1.081041086271405,1.3306345635160803,0.2725590134968981
1772794873740276700,2.54127685546875,1.1285662230342626,1.1850760457634926,0.3721044430173933
1772794873750322000,2.551322021484375,1.1314502540379763,1.2119460786409675,0.2877571123517118
1772794873760366000,2.561365966796875,1.1726613853484391,1.1112740197107196,0.3396907314728945
1772794873770411000,2.571410888671875,1.1442927844762802,0.9903463776066899,0.39886443964913487
1772794873780455000,2.581454833984375,1.0703910974413156,1.0364464500024915,0.12870176497055216
1772794873790499000,2.5914990234375,1.0310317314773798,0.8351431756090373,0.1666968751102686
1772794873800544000,2.6015439453125,0.9859639247387647,0.6154829912699759,0.35320560821481045
1772794873810588000,2.611587890625,0.9589444003880023,0.5589095652526245,0.2813167040406726
1772794873820632800,2.6216328125,0.9524994620323181,0.5049394901340827,0.12645173928774892
1772794873830677000,2.631677001953125,0.8531956227153539,0.3946784957339987,0.24267606253903357
1772794873840721000,2.641720947265625,0.8045657395809889,0.5308084927428514,0.2164669960546307
1772794873850765800,2.651765869140625,0.6306044264256954,0.48401188945025203,0.15796271157255395
1772794873860809700,2.661809814453125,0.47504444687962527,0.3189464514667168,0.2994267630857415
1772794873870855000,2.67185498046875,0.4021393696665764,0.5721124169033021,-0.02260238376194611
1772794873880899000,2.681899169921875,0.2561141111850738,0.5457831033064052,-0.14827174050034955
1772794873890944000,2.691944091796875,0.06667933456599712,0.26582396962083876,0.002316816441854462
1772794873900988000,2.70198779296875,0.004107435318827629,0.43131870239973064,-0.04994123972756788
1772794873911032000,2.712031982421875,-0.03551555001735687,0.5542996237717569,-0.25059291834449393
1772794873921077000,2.722076904296875,-0.18880466202199458,0.21665409785825757,0.015232384716905653
1772794873931121000,2.732120849609375,-0.21533026537597177,0.2770192077761516,0.07159015868958085
1772794873941165800,2.742165771484375,-0.18479659542441368,0.5588163340112194,0.07468627980770542
1772794873951210000,2.7522099609375,-0.2550491123020649,0.434183224985376,0.3898921382403001
1772794873961254000,2.76225390625,-0.24689737002849577,0.2781651629408821,0.6016158304916694
1772794873971298800,2.772298828125,-0.14465513917207717,0.24630574254458767,0.7753389144442975
1772794873981343000,2.782343017578125,-0.03110883949100971,0.17978589112292975,0.8529640789818018
1772794873991388000,2.792387939453125,0.06320084480047225,0.1582725995056331,0.7791376491401344
1772794874001432000,2.80243212890625,0.10523439840972423,0.12773080104654655,0.7636891739871352
1772794874011475700,2.812475830078125,0.12842179725170136,0.0851219500336796,0.7917582073908299
1772794874021521000,2.82252099609375,0.1497340498715639,0.059094541992805893,0.8180409418996423
1772794874031565000,2.83256494140625,0.12492168017625808,0.031812647228676355,0.807029572411254
1772794874041610000,2.84260986328125,0.09874445186853409,-0.06857646429105661,0.793747554577142
1772794874051654000,2.85265380859375,0.039029111096262926,-0.1618579471791163,0.7683215099629014
1772794874061698800,2.86269873046875,-0.011289455777406691,-0.28882397439824414,0.7881304453477262
1772794874071743000,2.872742919921875,-0.002998597294092178,-0.4153334900215268,0.7948729784104973
1772794874081787000,2.882786865234375,0.01524140827357769,-0.49388519481942056,0.7667693851500749
1772794874091831800,2.892831787109375,0.08516483932733536,-0.5425773295350372,0.7017080802399664
1772794874101875700,2.902875732421875,0.10577274307012557,-0.5656385447140783,0.6537267972074449
1772794874111921000,2.9129208984375,0.08337795591056346,-0.5412010727457702,0.594199051429145
1772794874121965000,2.922965087890625,0.04571194986104965,-0.553649489299953,0.5755109733004122
1772794874132008700,2.9330087890625,-0.008971241962909698,-0.5926535024875774,0.5529841937916353
1772794874142054000,2.943053955078125,-0.057307695108652114,-0.687661361643672,0.566731892908737
1772794874152098000,2.95309814453125,-0.10873685357272625,-0.7721668602794408,0.6441239793427288
1772794874162142700,2.963142822265625,-0.12212182032465935,-0.8363364770468323,0.6466328934237361
1772794874172187000,2.973186767578125,-0.11317921993434428,-0.9019670332122594,0.6233025059144943
1772794874182231800,2.983231689453125,-0.07533435018658638,-0.9619398558769374,0.5825027684165165
1772794874192275700,2.993275634765625,-0.031657705545425414,-0.9834291455641389,0.5346605650611221
1772794874202320000,3.00331982421875,0.002703413739800453,-1.0009197210039942,0.5114886925818398
1772794874212364800,3.01336474609375,0.011417466071248054,-1.0064593080177902,0.5045765385732054
1772794874222408700,3.02340869140625,0.0354576823502779,-0.9972637557797134,0.4590111210433766
1772794874232454000,3.033453857421875,0.021389409509301183,-0.9689429395720363,0.4348967800822109
1772794874242498000,3.043498046875,0.034443536871671676,-0.9804883428718895,0.4469700797136873
1772794874252541700,3.053541748046875,0.05125438641905784,-1.0024375051558017,0.43693760172743346
1772794874262587000,3.0635869140625,0.06105331137776374,-0.9809116097852587,0.41366983112562444
1772794874272631000,3.073631103515625,0.030443653580546376,-0.9681528851728886,0.33645328392162915
1772794874282675700,3.08367578125,-0.012803951993584632,-0.9375991953466087,0.3053536141177639
1772794874292719900,3.093719970703125,-0.10675824697613716,-0.918653306531906,0.36818277606163174
1772794874302764000,3.103763916015625,-0.18815701176822183,-0.8964781534723937,0.3656049979954958
1772794874312808700,3.11380859375,-0.22905542386770247,-0.7399656955070794,0.3546018118135631
1772794874322852900,3.123852783203125,-0.2988181114017963,-0.7090245407331734,0.453737491489388
1772794874332897800,3.133897705078125,-0.3841518775552511,-0.7392538939759135,0.4462229146081954
1772794874342941700,3.143941650390625,-0.3309749986410141,-0.6954235931430012,0.32839517474826424
1772794874352987000,3.15398681640625,-0.23397125295996665,-0.7169559913195669,0.333324374778755
1772794874363030800,3.16403076171875,-0.1950724902451038,-0.7627773198392241,0.48011111915204674
1772794874373074700,3.17407470703125,-0.11753858418762683,-0.7734226324941963,0.6241227362561971
1772794874383120000,3.184119873046875,-0.06921966669857502,-0.7458403596941381,0.6429225676637143
1772794874393164000,3.1941640625,-0.03646715165376663,-0.6950892466221005,0.5840683737654239
1772794874403208700,3.204208740234375,-0.026972178077697754,-0.5982354308057576,0.4888825642265379
1772794874413252900,3.2142529296875,-0.12048866616487502,-0.5056308699317276,0.4480933846551925
1772794874423297000,3.224297119140625,-0.31856209179162975,-0.40502533689904957,0.37566706740241496
1772794874433341700,3.234341796875,-0.55681613663733,-0.2299852155311033,0.2505320002038032
1772794874443385900,3.2443857421875,-0.767366181999445,-0.05623664094419218,0.17057287629339843
1772794874453430800,3.2544306640625,-0.9442939437448978,0.06748001995701343,0.1244789413774386
1772794874463474700,3.264474609375,-1.0715303306043147,0.17852756162490693,0.1405083947561681
1772794874473518800,3.274518798828125,-1.1470809538900852,0.2957209491040557,0.20285762769598512
1772794874483563800,3.284563720703125,-1.1903975330471992,0.42479061580523847,0.23034612126536666
1772794874493607700,3.294607666015625,-1.1781412780642508,0.5661465673014521,0.23032920666318385
1772794874503652900,3.30465283203125,-1.144737021112442,0.7216507980722934,0.17782171491049228
1772794874513697000,3.314697021484375,-1.0627776998281477,0.8722896878290921,0.09653941610492765
1772794874523741700,3.32474169921875,-1.0003168597400187,1.0064846616547554,0.02761288713403046
1772794874533785900,3.334785888671875,-0.8989291998863219,1.0918656279508023,-0.03596446282863617
1772794874543830000,3.344830078125,-0.8102098829478025,1.1532179222751409,-0.11395166561156511
1772794874553874700,3.354874755859375,-0.7361041977733374,1.09270697414577,-0.06978248821310698
1772794874563918800,3.3649189453125,-0.5169575889796019,1.2864230813458561,-0.17712547627463937
1772794874573963800,3.3749638671875,-0.2762356927156448,1.3500104412458835,-0.30877712229304016
1772794874584007700,3.385007568359375,-0.05153612596988678,1.2842961523197591,-0.3033686873782426
1772794874594051800,3.3950517578125,0.19663842438757417,1.2321661521099507,-0.3089519674032926
1772794874604096800,3.4050966796875,0.4477396758466959,1.184207373170182,-0.34087789543084795
1772794874614140700,3.415140625,0.6845715789347887,1.0738657878145574,-0.3681487641941756
1772794874624185900,3.425185791015625,0.8644172739535569,0.9524416674304753,-0.43330271582379937
1772794874634230000,3.43522998046875,1.031501102554798,0.8464378920834511,-0.47693332936614746
1772794874644275000,3.44527490234375,1.1586059719890356,0.7401298000276089,-0.5313176843740046
1772794874654318800,3.45531884765625,1.2119207980692386,0.6029282282644882,-0.539588742178306
1772794874664363000,3.465363037109375,1.2397902172476052,0.48024848179612306,-0.5336166820313781
1772794874674407700,3.47540771484375,1.242888767784834,0.36603213736638424,-0.5239550466515124
1772794874684451800,3.485451904296875,1.1921399928003549,0.25073442744072527,-0.5104772505169735
1772794874694496800,3.495496826171875,1.1216145042002201,0.16065668163057414,-0.4986470754589885
1772794874704540700,3.505540771484375,1.038269281515479,0.10352785022016614,-0.49957423677388574
1772794874714584800,3.515584716796875,0.935005890917778,0.04363731727777049,-0.4843052829062566
1772794874724629800,3.525629638671875,0.8092875074058771,0.01748547913962975,-0.4700171567695215
1772794874734673700,3.535673583984375,0.6388368327200412,0.03796276050638407,-0.43505065546967087
1772794874744718800,3.54571875,0.48192017786800856,0.11414090457335113,-0.36423378270752726
1772794874754763000,3.555762939453125,0.32198680554330344,0.18937215971164403,-0.2520255266971886
1772794874764806700,3.565806640625,0.17605682412981985,0.3125620476592332,-0.1435516349095851
1772794874774851800,3.575851806640625,0.06312719504237174,0.43041536035183814,-0.000702376115694642
1772794874784896000,3.58589599609375,-0.046019408375024794,0.5142478916294873,0.13697897852100432
1772794874794941000,3.59594091796875,-0.07434183201789855,0.5761490520082414,0.2754679962787777
1772794874804984800,3.60598486328125,-0.058554480299353596,0.6118243956971913,0.411566319507733
1772794874815029800,3.61602978515625,0.03240940069556236,0.6324530499670654,0.5301097698889673
1772794874825073700,3.62607373046875,0.16854688689112662,0.580851567143388,0.5651918969251215
1772794874835117800,3.636117919921875,0.323753815215826,0.5192961514623835,0.555835674232617
1772794874845162800,3.646162841796875,0.4795785831779241,0.39942525186967104,0.5426646059596911
1772794874855206700,3.65620654296875,0.634387452095747,0.24355231565060093,0.4937405621843412
1772794874865251800,3.666251953125,0.7439800457149743,0.06524100885856897,0.4170942526163533
1772794874875296000,3.6762958984375,0.7793062106400728,-0.10467517535807565,0.32225400511212643
1772794874885339600,3.686339599609375,0.7590063499331474,-0.22274251439385115,0.2559483261641115
1772794874895384800,3.696384765625,0.7224819151341915,-0.3273120922192931,0.1453792704618536
1772794874905429000,3.706428955078125,0.7086620640963316,-0.40236112265847623,0.04590926253143698
1772794874915474000,3.716473876953125,0.6863210529506206,-0.4800219064986333,-0.036078901254851366
1772794874925517800,3.726517822265625,0.656515697273612,-0.5519412971425801,-0.1156017252403777
1772794874935562800,3.736562744140625,0.6371797131627798,-0.5957400703260675,-0.18206768191717565
1772794874945607000,3.74660693359375,0.5915700546324253,-0.6453036175813526,-0.26815814818944783
1772794874955650800,3.75665087890625,0.5603828892081976,-0.6595411825746298,-0.3805139959769323
1772794874965695700,3.76669580078125,0.5124094241559505,-0.6345620049450547,-0.4744133093692362
1772794874975740000,3.776739990234375,0.45704701789617536,-0.6244982915703207,-0.5504761564934626
1772794874985784800,3.786784912109375,0.3926432270467281,-0.6691761491432786,-0.648663449403271
1772794874995829000,3.7968291015625,0.3347287982165813,-0.6887019567377864,-0.7131186051137745
1772794875005872600,3.80687255859375,0.30177929929494857,-0.7049807452350855,-0.7657895803324878
1772794875015917800,3.816917724609375,0.2714724238365888,-0.7365170163579284,-0.7801737872548401
1772794875025962000,3.8269619140625,0.24922552071511744,-0.784604317048192,-0.8022852274283766
1772794875036007000,3.8370068359375,0.22210779668688774,-0.8087460209403187,-0.8198032023318111
1772794875046050800,3.84705078125,0.2435895606547594,-0.8267931342843919,-0.8425161155298352
1772794875056095000,3.857094970703125,0.24294191040098664,-0.8318504176739603,-0.8395780162513256
1772794875066140000,3.867139892578125,0.23887305352687835,-0.8588495568238198,-0.8689753756493329
1772794875076183800,3.877183837890625,0.2205845326423645,-0.8777104707688093,-0.8577806124180555
1772794875086228700,3.887228759765625,0.1974129158914089,-0.9311733270175755,-0.8296616023927926
1772794875096272600,3.897272705078125,0.13469547069370746,-0.9744582689274102,-0.8047701761119067
1772794875106317800,3.90731787109375,0.03651099079549312,-0.9687344113878905,-0.8169050697375089
1772794875116361700,3.91736181640625,-0.04690495903789997,-0.9611202831223606,-0.8309449202015996
1772794875126405600,3.927405517578125,-0.15935235756635666,-0.9414533134914934,-0.8412913960404693
1772794875136450800,3.937450927734375,-0.27171616946458815,-0.901969005973637,-0.8261424883559346
1772794875146494700,3.94749462890625,-0.44476445942819115,-0.8156551427416503,-0.8227201126918197
1772794875156539600,3.95753955078125,-0.6277157192468643,-0.7441632933273911,-0.8031316151246428
1772794875166583800,3.967583740234375,-0.8357511514395475,-0.6890032777719199,-0.7265197923481463
1772794875176627700,3.977627685546875,-0.9673772976905107,-0.6698118897635489,-0.5459576196230947
1772794875186672600,3.987672607421875,-1.0796809038341044,-0.6443435403775424,-0.428892132839933
1772794875196716800,3.997716796875,-1.1978092706084251,-0.5178698084536939,-0.386587543736957
1772794875206760700,4.0077607421875,-1.3228420099437237,-0.3866720071500167,-0.3551955764556303
1772794875216805600,4.0178056640625,-1.4746540351331232,-0.29821817274726925,-0.17020700212307274
1772794875226849800,4.027849853515625,-1.5656161625623701,-0.19339995392300188,-0.02895677602365613
1772794875236893700,4.037893798828125,-1.5735563079118728,-0.06620276656281203,-0.040603118947334586
1772794875246938600,4.047938720703125,-1.529133228817582,0.06967873557768761,-0.10292502548880875
1772794875256982800,4.057982666015625,-1.430163151499629,0.13489912177333607,-0.14561149004884064
1772794875267027700,4.06802783203125,-1.3966034117251633,0.14807607179777696,-0.15857035860950125
1772794875277071600,4.078071533203125,-1.435246738374233,0.18335085359551012,-0.11110025823581963
1772794875287115800,4.08811572265625,-1.5124550657391547,0.24536683599296955,-0.061273657863866536
1772794875297160700,4.09816064453125,-1.6134247924417255,0.3057309229975566,-0.01689107517674565
1772794875307204600,4.10820458984375,-1.6559803240984676,0.41533173645585775,0.028830546694947404
1772794875317249800,4.118249755859375,-1.61255853100121,0.4839719958312809,0.09984351741792634
1772794875327293700,4.128293701171875,-1.43331313996315,0.5207287415487691,0.18661920774169266
1772794875337338600,4.138338623046875,-1.1577274355888365,0.5520957570519298,0.25079572917390613
1772794875347382800,4.1483828125,-0.8403823183715343,0.590305660719797,0.2910923759879544
1772794875357426700,4.1584267578125,-0.5047270529597997,0.6221782511249184,0.2846151975967921
1772794875367471600,4.1684716796875,-0.21761399239897727,0.6447687069870531,0.2828765737685375
1772794875377515800,4.178515869140625,0.014672668474912642,0.6665033497374504,0.2608287186168134
1772794875387560700,4.188560791015625,0.18073650637865066,0.7193308306921273,0.20513013920523224
1772794875397604600,4.1986044921875,0.3489496312707662,0.7407473474040627,0.18979539009239524
1772794875407648800,4.208648681640625,0.5064788650631904,0.7525088046073913,0.19391228735931215
1772794875417693700,4.218693603515625,0.6481015046715736,0.7724749033153057,0.24163336681937797
1772794875427737600,4.228737548828125,0.818547503182292,0.779515615607053,0.31986078983265903
1772794875437782800,4.23878271484375,0.9997919590830803,0.8182168099232018,0.35321744478307665
1772794875447826700,4.24882666015625,1.1827934877842663,0.8676472688507288,0.3763237412128597
1772794875457870800,4.258870849609375,1.3366075004458426,0.8779216293014586,0.41040370546914634
1772794875467915800,4.268915771484375,1.4678560455560683,0.8352796614702791,0.4925688515238464
1772794875477959700,4.278959716796875,1.5434499234616756,0.8211629463776946,0.5272142311105504
1772794875488004600,4.289004638671875,1.5452940900236367,0.8201601990759372,0.632229397279024
1772794875498048800,4.299048828125,1.4260323353052138,0.8365105915047227,0.802194188144058
1772794875508093700,4.30909375,1.1784832233697176,0.8388194529689847,1.0023853365771471
1772794875518137600,4.3191376953125,0.8967986175984144,0.8554037272188812,1.1284298833034931
1772794875528181800,4.329181640625,0.6790080995887517,0.8974948562342673,1.2000406829223036
1772794875538227700,4.339227783203125,0.5453524933367967,0.8434728317327796,1.0047280272457748
1772794875548272600,4.349272705078125,0.5713251389831304,0.7130712588407099,0.7706647851534187
1772794875558316800,4.35931689453125,0.6166770233601331,0.5370014290988445,0.540920283043012
1772794875568361700,4.36936181640625,0.6544149256020784,0.3736958038620651,0.2907388863751665
1772794875578405600,4.379405517578125,0.6499041701793671,0.2595519036140293,0.021081987527944147
1772794875588450600,4.389450439453125,0.5572960291087627,0.15843896904848515,-0.23164098338149486
1772794875598494700,4.39949462890625,0.3134972096174955,0.09154708771035075,-0.4544804553437978
1772794875608538600,4.40953857421875,-0.05306231262385845,0.06449278430715202,-0.5531044957030564
1772794875618583600,4.41958349609375,-0.44966976712644097,0.04156630142368376,-0.5004994253274053
1772794875628627700,4.429627685546875,-0.8228992686510086,0.02925619736164808,-0.3104162312695756
1772794875638673000,4.4396728515625,-1.0851380001962185,0.0477443324714899,-0.0033502328765112905
1772794875648716800,4.449716796875,-1.1358429360389708,0.1647000022046268,0.29039379926454273
1772794875658760700,4.4597607421875,-1.000544238755107,0.3111741734974086,0.49970184520892796
1772794875668805600,4.4698056640625,-0.7177016951203345,0.43240233291797336,0.6091871059961617
1772794875678849800,4.479849853515625,-0.2789554730683565,0.5249580131489783,0.6015698359254747
1772794875688894700,4.489894775390625,0.149150112503767,0.5917860354706644,0.6403773401603102
1772794875698938600,4.499938720703125,0.4928156658917665,0.6204075151253491,0.6700507400207221
1772794875708982800,4.509982666015625,0.7382797882467508,0.5814190283004194,0.7102515252448618
1772794875719027700,4.52002783203125,0.8430418929696083,0.49715928458664566,0.7432550924412906
1772794875729071600,4.530071533203125,0.8250877186059952,0.36452220772746946,0.7393390880413353
1772794875739116500,4.540116455078125,0.712206604835391,0.2769934888130054,0.7309460112925619
1772794875749160700,4.55016064453125,0.5712585034877061,0.15698208477105943,0.6479837235108018
1772794875759206000,4.560205810546875,0.45449382628202434,0.029630072175338862,0.5714517975701019
1772794875769249800,4.570249755859375,0.41949324004948135,-0.08228891856484115,0.48867034624796357
1772794875779293700,4.580293701171875,0.42138124575316904,-0.13999215232972054,0.4179688069611788
1772794875789339000,4.5903388671875,0.46813130649030205,-0.2089587941152975,0.3585814925668761
1772794875799382800,4.6003828125,0.5238865114599466,-0.3162522074140608,0.34782650899235157
1772794875809427700,4.610427734375,0.5448264236360788,-0.4436041834771633,0.3597810776149854
1772794875819471600,4.6204716796875,0.5743628992438315,-0.5502347854856401,0.3225054956551641
1772794875829516500,4.6305166015625,0.6312368791103362,-0.6132960026197135,0.2444240387175232
1772794875839560700,4.640560791015625,0.6490320635199547,-0.6704279027700424,0.15493249529749153
1772794875849604600,4.6506044921875,0.6578682809263467,-0.7627262472391129,0.09019151751608587
1772794875859649500,4.6606494140625,0.607801642987132,-0.8189611254844814,0.04624838569215499
1772794875869693700,4.670693603515625,0.48756549027860163,-0.8980560703136027,0.017732905428903177
1772794875879739000,4.68073876953125,0.3192284467458725,-0.9945393723171204,0.026649716074124443
1772794875889782800,4.69078271484375,0.16436813990175722,-1.0559285645857452,0.0659526003271807
1772794875899826700,4.70082666015625,0.0323772519916296,-1.102809558226168,0.1325703134995885
1772794875909871900,4.710871826171875,0.001827215427160263,-1.1275804268673062,0.17674411227423698
1772794875919915800,4.720915771484375,-0.00010930559337139129,-1.1129312853984534,0.16413341783042995
1772794875929960700,4.730960693359375,-0.0030079496443271635,-1.0938834705792366,0.1809103285755962
1772794875940004900,4.7410048828125,-0.02252864267230034,-1.089192390153557,0.15594972778232769
1772794875950048800,4.751048828125,-0.042916181662678715,-1.091288120323792,0.19552401513857764
1772794875960093700,4.76109375,-0.0883960763335228,-1.1202217346675694,0.25984648438012226
1772794875970137600,4.7711376953125,-0.15538871463239193,-1.1640082694239913,0.32247816925682127
1772794875980182500,4.7811826171875,-0.21176409732699392,-1.1899520543020219,0.3922603652089834
1772794875990226700,4.791226806640625,-0.24436697476804256,-1.1866089544191956,0.36952458259202536
1772794876000272000,4.80127197265625,-0.25258710610270496,-1.1468298286732286,0.36437326424345373
1772794876010315800,4.811315673828125,-0.22325112150311469,-1.1247550672482698,0.43371929726805536
1772794876020359700,4.821359619140625,-0.1985457193136215,-1.1332959549698978,0.4993174855338409
1772794876030404900,4.83140478515625,-0.1413601892799139,-1.0950954036522655,0.5587037039496004
1772794876040448800,4.84144873046875,-0.08538286599218844,-1.0532147025171668,0.5699663082526997
1772794876050493700,4.85149365234375,-0.0654910015642643,-1.0346319479264319,0.5903131499065086
1772794876060537900,4.861537841796875,-0.07347206344604491,-0.9991910705804824,0.6163286483138799
1772794876070581800,4.871581787109375,-0.11339900016486644,-0.9825096926316619,0.6515829901117831
1772794876080626700,4.881626708984375,-0.14591010766923426,-1.029741472471133,0.8240845329128206
1772794876090670800,4.8916708984375,-0.14636311213374137,-1.068668438367173,0.9308731019619851
1772794876100715800,4.9017158203125,-0.13326865276098251,-1.0189029753316192,0.8017321235902607
1772794876110759700,4.911759765625,-0.18568682226240635,-0.9076414255868643,0.6126503616599366
1772794876120804900,4.921804931640625,-0.35821196513473985,-0.8198640656735747,0.5396729863956571
1772794876130848800,4.931848876953125,-0.5700216551691294,-0.8047069016173481,0.6125456591764464
1772794876140892700,4.941892578125,-0.8007622556447982,-0.7899132371112704,0.735783149125427
1772794876150937900,4.951937744140625,-0.9713047002673149,-0.7805800299681722,0.7288847679138183
1772794876160982000,4.96198193359375,-1.1854583230793476,-0.7043946159102022,0.6004974939862265
1772794876171026700,4.972026611328125,-1.4132336440086364,-0.6319041108474135,0.46456407899539914
1772794876181070800,4.98207080078125,-1.5928051982611418,-0.5694808262906969,0.4642938472192734
1772794876191115000,4.992114990234375,-1.695353718587756,-0.46677784605473277,0.5046860633622855
1772794876201159700,5.00215966796875,-1.7157675610631704,-0.295463887336757,0.484549065066874
1772794876211203800,5.012203857421875,-1.6414222219139336,-0.10990898435832933,0.4526573315698653
1772794876221248800,5.022248779296875,-1.4699141471296548,0.02750204717069864,0.4745327710304409
1772794876231292700,5.032292724609375,-1.2076684013217687,0.11815273403059691,0.5413583821993321
1772794876241336800,5.0423369140625,-0.8753338047653436,0.2129835013204254,0.5938516627635806
1772794876251381800,5.0523818359375,-0.5705354499101638,0.33077911074273286,0.5925195373769849
1772794876261425700,5.06242578125,-0.319322554770112,0.4436913503039628,0.5332238467888907
1772794876271470800,5.072470947265625,-0.170172442266345,0.5983498144330457,0.4663006204644218
1772794876281515000,5.082514892578125,-0.06267886675298213,0.7432255740858614,0.433289417950809
1772794876291559700,5.0925595703125,0.02240706211924553,0.878895661965385,0.4076948118366301
1772794876301603800,5.102603759765625,0.05605857183039188,0.9676635672859847,0.3869096518307924
1772794876311648000,5.11264794921875,0.0842430483072996,1.0463784998215735,0.425323480572924
1772794876321692700,5.122692626953125,0.08637713772654533,1.146526388747245,0.47689299735575913
1772794876331736800,5.13273681640625,0.1162152266293764,1.2209222890399396,0.5262937917973846
1772794876341781800,5.14278173828125,0.2074830590069294,1.2893705329746008,0.5622883575033396
1772794876351825700,5.15282568359375,0.30407120962440964,1.3348339149020612,0.6019759325083345
1772794876361870800,5.162870849609375,0.457818002268672,1.3936471922680735,0.6323530236586928
1772794876371914800,5.172914794921875,0.6434183152914047,1.393251909340173,0.6479950486224144
1772794876381958700,5.182958740234375,0.7984212454766034,1.4054714855745434,0.5632411281835288
1772794876392003800,5.19300390625,0.9088508744418621,1.3587182099670172,0.470207601307705
1772794876402048000,5.203048095703125,0.9528162728965281,1.2529077652350067,0.36528972150124606
1772794876412092700,5.2130927734375,0.9225631734520197,1.1153520097393541,0.24704503487087784
1772794876422136800,5.22313671875,0.8438941258847713,0.972892407850176,0.1504104147631675
1772794876432181000,5.233180908203125,0.7772545388072729,0.8745575596958398,0.03955459627509117
1772794876442225700,5.2432255859375,0.6997732397198677,0.797551184643805,-0.0416387821380049
1772794876452269800,5.253269775390625,0.6063333240002393,0.686017247698456,-0.12494593783468007
1772794876462314800,5.263314697265625,0.5482160660743713,0.6236642518989741,-0.16666308243852107
1772794876472358700,5.273358642578125,0.5548585728287696,0.5970896583041175,-0.18108473529443145
1772794876482402800,5.28340283203125,0.5388023410409689,0.5822206270068884,-0.17466580816283822
1772794876492447700,5.29344775390625,0.48345045617520804,0.5996422653963789,-0.19288995857425034
1772794876502491600,5.30349169921875,0.39976270366311073,0.6635268181446939,-0.18843838599286972
1772794876512536800,5.313536865234375,0.32140520626306535,0.6868178965568542,-0.15537285947613416
1772794876522580700,5.323580810546875,0.231154441973567,0.7046481522798538,-0.07667199199851601
1772794876532626000,5.3336259765625,0.1502227101713419,0.7285187841456383,0.046879751531407235
1772794876542669800,5.343669921875,0.08265022615790367,0.6970782284822314,0.19464052856862543
1772794876552714000,5.3537138671875,0.03231295458376408,0.6536166148312389,0.26201529805287715
1772794876562758700,5.363758544921875,0.04931026661396026,0.6400283805921674,0.3012543621053919
1772794876572802800,5.373802734375,0.0872410610795021,0.5880922955192626,0.29802491519749164
1772794876582847700,5.38384765625,0.14060498699843882,0.49221521578058597,0.3461516345826909
1772794876592891600,5.3938916015625,0.1895534345626831,0.3696624566927552,0.4090489663919434
1772794876602935800,5.403935791015625,0.2755523866266012,0.2580153416965157,0.4089838652664795
1772794876612980700,5.413980712890625,0.3876432268023491,0.10294164783004671,0.4169266044318676
1772794876623024600,5.424024658203125,0.502123007941246,-0.02422892551785335,0.4166049712620675
1772794876633069800,5.43406982421875,0.5872095213353633,-0.11296402454739436,0.40499833929426965
1772794876643113700,5.44411376953125,0.6421306135684252,-0.21782443854557348,0.44702867803312835
1772794876653159000,5.454158935546875,0.6629688189357519,-0.3043133843498304,0.4876093294203281
1772794876663202800,5.464202880859375,0.6384633232325315,-0.3953212140843272,0.5071324336010963
1772794876673247000,5.4742470703125,0.6293272460967302,-0.45666327927559613,0.4737061474805698
1772794876683292000,5.4842919921875,0.5895914480358362,-0.5086340703357011,0.4259426719171926
1772794876693335800,5.494335693359375,0.4944160868257284,-0.5138794601758941,0.34996384981460865
1772794876703380700,5.504380615234375,0.3906657894939184,-0.5087813698519021,0.27554581075534224
1772794876713424600,5.514424560546875,0.29782208610177036,-0.4911298316966742,0.20717293361183256
1772794876723468800,5.52446875,0.21307576444745063,-0.4330883424207568,0.12149379721996374
1772794876733513700,5.534513671875,0.12209785492718218,-0.3758916334059089,0.0684016831128858
1772794876743557600,5.5445576171875,0.08732581675350666,-0.3189200383838266,0.0858130101709161
1772794876753602800,5.554602783203125,0.03755670045614242,-0.24347103057531638,0.14133447944992222
1772794876763646700,5.564646728515625,0.02112988179028034,-0.21784893366601316,0.16698964751176534
1772794876773692000,5.57469189453125,-0.023160510835051534,-0.2318107504578307,0.21009663903880862
1772794876783735800,5.58473583984375,-0.0855897867411375,-0.24393212701473382,0.2778318575995974
1772794876793780000,5.594780029296875,-0.14592881236970423,-0.271906047747191,0.2950903413166292
1772794876803825000,5.604824951171875,-0.17794424531161784,-0.311448095067963,0.30600785850910467
1772794876813868800,5.614868896484375,-0.1775759965211153,-0.3717375094011426,0.2666843127772212
1772794876823913700,5.624913818359375,-0.12029986559450626,-0.42182935484685,0.22081439587548374
1772794876833958000,5.6349580078125,-0.04370762430131435,-0.48546625297702845,0.2065678438581526
1772794876844001800,5.645001708984375,-0.009768529820442198,-0.5656859640523791,0.17360815233606844
1772794876854046700,5.655046630859375,0.03835632640123367,-0.6635093555532395,0.11872983979880809
1772794876864090600,5.665090576171875,0.046048634469509124,-0.7497568024855107,0.029072945182654075
1772794876874135800,5.6751357421875,0.021555413725972174,-0.80841240507178,-0.05527310227481648
1772794876884179700,5.6851796875,-0.006522095245122909,-0.8516180712003261,-0.13217006213562563
1772794876894225000,5.695224853515625,-0.03770984519124031,-0.8806346876524388,-0.21833481748681513
1772794876904268800,5.705268798828125,-0.11568448075354099,-0.905302680440992,-0.3033167014626786
1772794876914313000,5.71531298828125,-0.1653244177132845,-0.9170803581267595,-0.3474202662790194
1772794876924358000,5.72535791015625,-0.18469839574694633,-0.9259219823606312,-0.38049269746057685
1772794876934401800,5.73540185546875,-0.2190063235402107,-0.9260331145849078,-0.4433451306821778
1772794876944446700,5.74544677734375,-0.26900106528699397,-0.8791413803547621,-0.5278388292822986
1772794876954491000,5.755490966796875,-0.3117857295244932,-0.8062062002643943,-0.5477193685986101
1772794876964534800,5.76553466796875,-0.3873112183690071,-0.7655240612640977,-0.49797564247082915
1772794876974579700,5.775579833984375,-0.468951975223422,-0.7917766928955912,-0.3882377586293965
1772794876984623900,5.785623779296875,-0.5175123002529144,-0.8020128402277826,-0.2974524308054708
1772794876994668800,5.795668701171875,-0.5647492677241563,-0.7847243632312864,-0.24836570728169752
1772794877004712700,5.805712646484375,-0.5658119285196066,-0.792945955870673,-0.12521959454375317
1772794877014758000,5.8157578125,-0.5021832136958837,-0.822335205027461,0.006031608314439654
1772794877024801800,5.8258017578125,-0.4096358629018068,-0.8504957161068916,0.07431084322459064
1772794877034846000,5.835845947265625,-0.3825309983551502,-0.8205076973393559,0.06664448244832456
1772794877044891000,5.845890869140625,-0.499618331643939,-0.7244964698269963,0.016149600026523693
1772794877054934800,5.855934814453125,-0.8101309724926948,-0.5150903703356161,-0.11931199620147236
1772794877064979700,5.865979736328125,-1.1769687271535396,-0.16478386282948776,-0.34892387577500195
1772794877075024000,5.87602392578125,-1.5242548091262578,0.23235103134699164,-0.4783339168790728
1772794877085067800,5.88606787109375,-1.791643763041496,0.5026597816990688,-0.47789636571202426
1772794877095112400,5.896112548828125,-1.995319246459007,0.6593064970359206,-0.3123074518436566
1772794877105156600,5.906156494140625,-2.0945184563577173,0.7536166197188198,-0.09246463181353173
1772794877115201500,5.916201416015625,-2.061081466180086,0.8689329978123307,0.1810513810141012
1772794877125245700,5.92624560546875,-1.8769138163089751,0.9957511592596768,0.38154911117833107
1772794877135290600,5.93629052734375,-1.5257038388907909,1.1256383528888225,0.5212101683901622
1772794877145334500,5.94633447265625,-1.1038999838113783,1.2002017187029124,0.6101514209836721
1772794877155378700,5.956378662109375,-0.6582271773666143,1.238688393485546,0.7088026416108012
1772794877165423600,5.966423583984375,-0.21675006904602048,1.2535408024415373,0.8003358469262719
1772794877175467500,5.976467529296875,0.13044891916513443,1.2277712781518697,0.8283512504465878
1772794877185512400,5.986512451171875,0.32734687127172946,1.1485440121799706,0.8441218702260405
1772794877195556600,5.996556640625,0.4616074576795101,1.1136113766171039,0.867940187382698
1772794877205600500,6.0066005859375,0.5758183587491512,1.0812236032314597,0.8599985807284712
1772794877215645400,6.0166455078125,0.6367272932201623,1.0200636166088282,0.7999619721125811
1772794877225689600,6.026689697265625,0.6614665976792573,0.9400552101965993,0.7591725002802908
1772794877235734500,6.036734619140625,0.7229898646563291,0.9100080816529691,0.6953935633309185
1772794877245778700,6.04677880859375,0.7835252896398306,0.922465192970261,0.6074491032224149
1772794877255823600,6.05682373046875,0.8844032464057207,0.9303229207333177,0.5409219635434448
1772794877265867500,6.066867431640625,0.9784107328802346,0.9518670093476772,0.5156383596071973
1772794877275911700,6.07691162109375,1.062982282489538,0.9577063830256461,0.5642629455119371
1772794877285956600,6.08695654296875,1.140495730280876,0.9594307956654577,0.6827944131944328
1772794877296000500,6.09700048828125,1.2104863813519477,0.9387767877586185,0.7612063441954553
1772794877306045400,6.10704541015625,1.2777461461544035,0.9443627711974084,0.8496067313779145
1772794877316089600,6.117089599609375,1.3363146549791096,0.9445286292836069,0.9264806391566991
1772794877326133500,6.127133544921875,1.3841706311315298,0.9121925130199641,0.9762767895914614
1772794877336178400,6.137178466796875,1.413970726111531,0.9103148095145821,1.0223618836138397
1772794877346222600,6.14722265625,1.3826964669257402,0.9109896400362253,1.0788789398014544
1772794877356267500,6.157267578125,1.2990917165219784,0.8826990728363394,1.1303147472020239
1772794877366311400,6.1673115234375,1.121101878502965,0.831872483375296,1.1646947903834282
1772794877376356600,6.177356689453125,0.9450351175010204,0.7847318889506161,1.1072358502358197
1772794877386400500,6.187400390625,0.7357815416902304,0.753300247246027,0.956954614810273
1772794877396444700,6.197444580078125,0.5445470221728086,0.7158776214983313,0.7246689037844538
1772794877406489600,6.207489501953125,0.44078386535942554,0.7029450016237795,0.5014838697874918
1772794877416533500,6.217533447265625,0.3753594992905855,0.6480128765400499,0.31874610658902675
1772794877426578400,6.227578369140625,0.3154810769110918,0.647257747323811,0.1642909830123186
1772794877436622600,6.23762255859375,0.22602233978211878,0.6324174671970307,-0.005262788499565795
1772794877446666500,6.24766650390625,0.061732525813579554,0.6506225475817918,-0.10778930705692619
1772794877456711400,6.25771142578125,-0.13371055130958556,0.642423751296103,-0.11226910108579322
1772794877466755600,6.267755615234375,-0.31397885565459727,0.6312881709061563,-0.0019185606721555813
1772794877476800500,6.277800537109375,-0.4684685756206512,0.6200869779340923,0.1517443393812049
1772794877486844400,6.287844482421875,-0.5539034640610218,0.6427258029825985,0.29288426437340676
1772794877496889600,6.2978896484375,-0.5265963549405336,0.6759880211152136,0.4205021248310804
1772794877506933500,6.30793359375,-0.38067747944295405,0.6617881577838212,0.5298486347347497
1772794877516977700,6.317977783203125,-0.21482290037572382,0.6667940763123333,0.589786495683901
1772794877527022600,6.328022705078125,-0.04792845686674118,0.5811243927353993,0.627539924288541
1772794877537066500,6.33806640625,0.10616671082377434,0.4749634905979037,0.6693936643514782
1772794877547111400,6.348111328125,0.2220779860705137,0.3737769062742591,0.7171254296023398
1772794877557155600,6.358155517578125,0.25462767201960085,0.25462975437883284,0.7297042676031589
1772794877567199500,6.368199462890625,0.19915829825401304,0.1429469287483953,0.7232442778088152
1772794877577244400,6.378244384765625,0.12401800933480261,0.07504614436235278,0.7142648525394499
1772794877587288600,6.38828857421875,0.012562544453144073,0.012861509133409709,0.6561079201903194
1772794877597333500,6.39833349609375,-0.06398936482965946,-0.05304247541222721,0.5593527424428612
1772794877607377400,6.40837744140625,-0.13735738337934017,-0.10048933190763927,0.5193276425791904
1772794877617422600,6.418422607421875,-0.2060363673299551,-0.16707831217590718,0.5254609577024355
1772794877627466500,6.428466552734375,-0.22556991983950136,-0.2236825351903215,0.5089890943184495
1772794877637510700,6.4385107421875,-0.24636603963077067,-0.27309987890794873,0.5042982696210965
1772794877647555600,6.4485556640625,-0.2996791121453047,-0.2893045061904937,0.5434804889198392
1772794877657599500,6.458599609375,-0.299758607122302,-0.339128056088835,0.5511790440658108
1772794877667644400,6.46864453125,-0.28295710992515083,-0.36388891479261215,0.5367750729970634
1772794877677688600,6.4786884765625,-0.22561142089366912,-0.3566600229850039,0.4748109669173136
1772794877687732500,6.488732421875,-0.1945949358612299,-0.3333952845904976,0.42210166898220775
1772794877697777400,6.49877734375,-0.1932008511543274,-0.35953893942218274,0.39934900829568504
1772794877707821600,6.508821533203125,-0.2549596804529428,-0.4106485105430707,0.3853232228895649
1772794877717866800,6.51886669921875,-0.27243220877945423,-0.49891595552824436,0.41481618814915416
1772794877727910400,6.528910400390625,-0.27449264844059945,-0.5769072499644011,0.4651031177755445
1772794877737955600,6.53895556640625,-0.24138766669631004,-0.630406054309383,0.4955926563244313
1772794877747999500,6.54899951171875,-0.21112989107668398,-0.6534104977998882,0.46170090811662373
1772794877758043600,6.559043701171875,-0.15634090079069138,-0.6793401080220938,0.448770078340359
1772794877768088600,6.569088623046875,-0.11158698230683803,-0.716751554788649,0.4286206224221736
1772794877778132500,6.579132568359375,-0.06953004782199859,-0.7620735554840415,0.43424525737091896
1772794877788177400,6.589177490234375,-0.042134091374278065,-0.8175165526993572,0.4375533955382183
1772794877798221600,6.5992216796875,-0.043161680856347084,-0.8700693083658814,0.4293708562675863
1772794877808265500,6.609265380859375,-0.06169219380319118,-0.9158205673240125,0.37916524824909864
1772794877818310400,6.619310302734375,-0.06226268716752529,-0.9260629252012819,0.3631702085966244
1772794877828354600,6.6293544921875,-0.10727554884850979,-0.9458728834994137,0.36850952379796653
1772794877838399700,6.639399658203125,-0.157083828112483,-0.9431875168729573,0.39118784060664474
1772794877848443400,6.649443359375,-0.21993805143237113,-0.9004075288105755,0.4426684735296294
1772794877858488600,6.659488525390625,-0.2460340311974287,-0.7883899730667472,0.5366351896023377
1772794877868532700,6.66953271484375,-0.24557810412347314,-0.7101352053888141,0.661867798891291
1772794877878576600,6.67957666015625,-0.1785001256287098,-0.636810660654679,0.766204152482748
1772794877888621600,6.68962158203125,-0.09420154774188995,-0.5581618886904791,0.8833595825716852
1772794877898665500,6.69966552734375,-0.0004763853400945663,-0.5302054853484034,1.0038915764216334
1772794877908710400,6.70971044921875,-0.0022217677026987073,-0.5010708685398102,1.1286259903974831
1772794877918754600,6.719754638671875,-0.07308218734562397,-0.44820458994470536,1.1944153173211962
1772794877928798500,6.729798583984375,-0.1609364118874073,-0.41930834846924986,1.2348223657071589
1772794877938843400,6.739843505859375,-0.2806716293364763,-0.3627936669018119,1.2160767487049102
1772794877948887600,6.749887451171875,-0.4293967944264412,-0.35933052083589134,1.1019844325136392
1772794877958932700,6.7599326171875,-0.5987813011854887,-0.3516235631877556,0.9802155903451144
1772794877968976400,6.769976318359375,-0.7744096707701683,-0.33406204140353946,0.7793740151792764
1772794877979021600,6.780021484375,-0.9194827430933713,-0.2753587637506425,0.5325650540865957
1772794877989065700,6.790065673828125,-1.0526181248635054,-0.16326905608605594,0.25844365011118353
1772794877999109600,6.800109619140625,-1.1701958720177412,-0.013567629842460155,0.09829250684995204
1772794878009154600,6.810154541015625,-1.3139952711433172,0.06882208221573383,0.12300329760061576
1772794878019198700,6.82019873046875,-1.2985901967406273,0.16505584817128255,0.24698256409391758
1772794878029243400,6.830243408203125,-1.109105735760927,0.2649130287883803,0.3689920831505209
1772794878039287600,6.84028759765625,-0.7840133654177188,0.38855263326484707,0.3994303299035877
1772794878049331500,6.85033154296875,-0.4513490985155105,0.5315992777943611,0.3651312430039048
1772794878059376400,6.86037646484375,-0.17324644288420676,0.6197470784552395,0.3201406662199646
1772794878069420500,6.870420654296875,-0.02723053675293922,0.6619928135104477,0.25196364044211805
1772794878079465700,6.8804658203125,-0.02789338457584381,0.6740376176998019,0.20430928780902177
1772794878089510100,6.89051025390625,-0.1008130748361349,0.693904493816942,0.20559070592168718
1772794878099554300,6.90055419921875,-0.24611820234954357,0.7348655958890914,0.1843087753748521
1772794878109599200,6.91059912109375,-0.33583354458808895,0.7800807021439075,0.1721571132775396
1772794878119643100,6.92064306640625,-0.4388286396384239,0.8408623569734394,0.18287519890777765
1772794878129688300,6.930688232421875,-0.4893582189142704,0.9587337533120065,0.16907365071158856
1772794878139732200,6.940732177734375,-0.3287053001433611,1.0769973638385533,0.1283154142677784
1772794878149777200,6.950777099609375,-0.19969488934874532,1.1297832706738262,0.047064460448548194
1772794878159821300,6.9608212890625,-0.04419043938219547,1.17276491878815,-0.0930501857496798
1772794878169865200,6.970865234375,0.1631716235935688,1.1868136101458222,-0.12951222283691166
1772794878179910100,6.98091015625,0.30595863080620767,1.1119762496959418,-0.10930135558769107
1772794878189954300,6.990954345703125,0.3765454942047596,0.8271379291340708,0.07195939386077224
1772794878199999000,7.0009990234375,0.43736207421720025,0.6997669561095535,0.10322550627272575
1772794878210043100,7.011043212890625,0.40844928346574305,0.3961529887333512,0.05679189107362181
1772794878220087300,7.02108740234375,0.4538479295939207,0.29731800903715194,0.03444930902533233
1772794878230132200,7.03113232421875,0.5438011722415685,0.0751576784454286,-0.04996854785960168
1772794878240176000,7.041176025390625,0.5540852503687143,-0.07358378019221126,-0.33943178827576337
1772794878250221300,7.05122119140625,0.729825263634324,0.09319383200407028,-0.015078637193609029
1772794878260265200,7.06126513671875,0.9142290603488683,0.081255045472458,0.10898987848572432
1772794878270310100,7.07131005859375,0.6595066957831383,-0.3870243642516434,-0.2676824387027882
1772794878280354300,7.081354248046875,0.5131798240065575,-0.6776605574373156,-0.5422820729155093
1772794878290398200,7.091398193359375,0.614461685398221,-0.5164522698059678,-0.5430911242760718
1772794878300443100,7.101443115234375,0.7672147908300161,-0.19066088434793055,-0.42766354089304803
1772794878310487300,7.1114873046875,0.975448375943303,0.14201478073112667,-0.3776184571985155
1772794878320532200,7.1215322265625,1.0119576131731272,0.33093642019629477,-0.3861603678334504
1772794878330576100,7.131576171875,0.7901496762156486,0.4233860097043216,-0.4032677526419982
1772794878340620300,7.141620361328125,0.6309340967714786,0.4965870011240244,-0.3291273249477148
1772794878350665200,7.151665283203125,0.5490151074975729,0.5562605485811829,-0.1819872370921075
1772794878360709000,7.161709228515625,0.43911388632059095,0.6483692156970501,-0.029372736413404345
1772794878370754300,7.17175439453125,0.32752222783863544,0.7427095873877406,0.032138401734456416
1772794878380798200,7.181798095703125,0.3499275363922119,0.8938323151387274,0.20962671997211874
1772794878390843100,7.191843017578125,0.4928647657305002,0.8997153818279504,0.15171331405527888
1772794878400887300,7.20188720703125,0.5298989036172628,0.8859276794940233,0.30814079715088005
1772794878410931200,7.21193115234375,0.5120978739887476,0.6524089926071465,0.16758359481692314
1772794878420976000,7.22197607421875,0.33318332234025,0.4600029450923204,0.31044454404860733
1772794878431020300,7.232020263671875,0.3482920441448688,0.4720268526241183,0.3852820506289601
1772794878441065200,7.242065185546875,0.32857086010873315,0.404462990308553,0.4051059643872082
1772794878451109000,7.252109130859375,0.11724223158955574,0.3388505543217063,0.5567486243590712
1772794878461153300,7.2621533203125,-0.013065817800164222,0.28615678274929524,0.5001793265275657
1772794878471198200,7.2721982421875,0.00950140331685543,0.3675377196237445,0.5200429877743125
1772794878481242000,7.2822421875,0.04384557146728039,0.24291473013311624,0.4383129452012479
1772794878491287300,7.292287353515625,-0.07786006927192211,0.11927855972275138,0.4967758016943931
1772794878501331500,7.30233154296875,-0.09806582195460796,0.10108794625476002,0.41366818715780973
1772794878511375000,7.312375,-0.1504495046645403,0.0899555807352066,0.4009223950922489
1772794878521420300,7.322420166015625,-0.2690034033745527,0.017247925790399313,0.4321545687019825
1772794878531464200,7.332464111328125,-0.3379021675556898,-0.01641673566326499,0.390043565942347
1772794878541509000,7.342509033203125,-0.3445055113434791,-0.03726736212074756,0.4154988366510719
1772794878551553300,7.35255322265625,-0.31460780120790005,-0.12195925017409026,0.43964375541359185
1772794878561598200,7.36259814453125,-0.2591290750920772,-0.180094774409011,0.4248369391649961
1772794878571642000,7.37264208984375,-0.17358721914589403,-0.18184417535960673,0.3740994892921298
1772794878581686300,7.382686279296875,-0.12654723555147648,-0.21201595319621264,0.33678668059445915
1772794878591731200,7.392731201171875,-0.05559679953753948,-0.23870449202693997,0.3367872651163488
1772794878601775000,7.402775146484375,0.00473871895968914,-0.2508837362509221,0.38146651092879474
1772794878611820300,7.4128203125,0.06324994463920593,-0.27219218947850166,0.39462139525189993
1772794878621864200,7.4228642578125,0.11937398292124271,-0.3147876878194511,0.37272001763246954
1772794878631909000,7.4329091796875,0.1582224767535925,-0.35405068073682483,0.41904914954379197
1772794878641953300,7.442953369140625,0.11535597945153712,-0.4443349089045077,0.3996694724217057
1772794878651997400,7.45299755859375,0.1539472836524248,-0.49290648598037656,0.31247678052857514
1772794878662042000,7.4630419921875,0.21491876196563242,-0.5109776377871632,0.20635420110747216
1772794878672086300,7.473086181640625,0.21853519889712333,-0.5306248798042535,0.12891849472746253
1772794878682131200,7.483131103515625,0.22593173888921736,-0.5772155121959746,0.032480931561812754
1772794878692175000,7.493175048828125,0.26917291472256183,-0.5787788890551775,0.0749491137286648
1772794878702219300,7.50321923828125,0.31253976276218887,-0.6268018923375756,0.09426686806306242
1772794878712264200,7.51326416015625,0.3243441823244095,-0.6830557675443589,0.09014960546996444
1772794878722308000,7.52330810546875,0.35957448565959926,-0.7056351174905896,0.049423554262705144
1772794878732353300,7.533353271484375,0.38492929166853423,-0.6980654128886759,0.016712284543737767
1772794878742397200,7.543397216796875,0.344940395629406,-0.737537153185904,-0.017833835919573902
1772794878752441000,7.553441162109375,0.22998890532553196,-0.7312721014417708,-0.07411909264530986
1772794878762486300,7.563486328125,0.027664836516976356,-0.6844687030822039,-0.13633531032260507
1772794878772530400,7.573530517578125,-0.13534779712259767,-0.5999104513458907,-0.1284761577874422
1772794878782575000,7.5835751953125,-0.25138591361939905,-0.5711246479749679,-0.12255955415479838
1772794878792619300,7.593619384765625,-0.33802024097740646,-0.5501821054503321,-0.09373363796919584
1772794878802664200,7.603664306640625,-0.348659123891592,-0.5106717867083848,-0.059921129010058936
1772794878812708000,7.6137080078125,-0.41930560852289195,-0.42932387532070276,-0.024136625858210026
1772794878822752300,7.623752197265625,-0.506595184919238,-0.43826998284235597,0.20439459147229788
1772794878832797200,7.633797119140625,-0.616994418746233,-0.5231758789725601,0.4638231244349852
1772794878842841000,7.643841064453125,-0.7912029846608638,-0.68147785070315,0.4591278792908415
1772794878852886300,7.65388623046875,-0.9972370139032601,-0.773760120820254,0.3180011334406212
1772794878862930200,7.66393017578125,-1.2392378440618514,-0.6742214498341084,0.12250245367269963
1772794878872974000,7.67397412109375,-1.2710364193826913,-0.5037054548271,-0.07045746486522257
1772794878883019300,7.684019287109375,-1.051889226067066,-0.22728023088872432,-0.2525473220815882
1772794878893063400,7.6940634765625,-0.8254618126153945,-0.023907968201488255,-0.278601800792478
1772794878903108000,7.704108154296875,-0.6973474738776684,0.0005291384406387805,-0.21411544622611253
