time,seconds_elapsed,z,y,x
1772794871269351700,0.0703515625,-0.8244703412055969,-0.18579193949699402,-0.053237345069646835
1772794871279395600,0.0803955078125,-0.8467777967453003,-0.20302897691726685,-0.021291662007570267
1772794871289440500,0.0904404296875,-0.8653222322463989,-0.21239201724529266,0.028683528304100037
1772794871299484700,0.100484619140625,-0.8904036283493042,-0.19322818517684937,0.08532150834798813
1772794871309528600,0.110528564453125,-0.8948873281478882,-0.2019180804491043,0.11894658207893372
1772794871319573800,0.12057373046875,-0.8968995809555054,-0.17563800513744354,0.13743264973163605
1772794871329617700,0.13061767578125,-0.9135913848876953,-0.13575056195259094,0.13939914107322693
1772794871339662600,0.14066259765625,-0.934169590473175,-0.10905077308416367,0.11918973922729492
1772794871349706800,0.150706787109375,-0.9521494507789612,-0.09237666428089142,0.09715764224529266
1772794871359750700,0.160750732421875,-0.9685526490211487,-0.09601853787899017,0.06824076920747757
1772794871369795600,0.170795654296875,-0.9820650219917297,-0.11622319370508194,0.04255251958966255
1772794871379839700,0.18083984375,-1.0058289766311646,-0.1392158716917038,0.013739780522882938
1772794871389884700,0.190884765625,-1.0270180702209473,-0.15624475479125977,-0.013304777443408966
1772794871399928600,0.200928466796875,-1.0327225923538208,-0.17232546210289001,-0.054983511567115784
1772794871409972700,0.21097265625,-0.8769111037254333,-0.17146307229995728,-0.15255935490131378
1772794871420017700,0.221017578125,-0.811935544013977,-0.025063522160053253,-0.23219798505306244
1772794871430061600,0.2310615234375,-0.8465838432312012,0.06752341240644455,-0.31346362829208374
1772794871440106800,0.241106689453125,-0.8865112662315369,0.1438906341791153,-0.38248583674430847
1772794871450150700,0.251150634765625,-0.8704056739807129,0.19961033761501312,-0.44567620754241943
1772794871460194600,0.261194580078125,-0.8354074954986572,0.2298755645751953,-0.5042465329170227
1772794871470239700,0.27123974609375,-0.8194637894630432,0.23350024223327637,-0.547426164150238
1772794871480283600,0.28128369140625,-0.8217732906341553,0.2132658064365387,-0.5657436847686768
1772794871490328800,0.291328857421875,-0.8316258788108826,0.15245464444160461,-0.5574928522109985
1772794871500372700,0.301372802734375,-0.834358274936676,0.08016101270914078,-0.5295538902282715
1772794871510417700,0.311417724609375,-0.8320478796958923,0.03280212730169296,-0.4803355932235718
1772794871520461600,0.321461669921875,-0.850522518157959,-0.01799234375357628,-0.403992623090744
1772794871530505700,0.331505615234375,-0.8835417032241821,-0.09369781613349915,-0.3246740400791168
1772794871540550700,0.341550537109375,-0.9098153710365295,-0.16830146312713623,-0.24081802368164062
1772794871550594600,0.351594482421875,-0.9212017059326172,-0.2143997848033905,-0.15956547856330872
1772794871560639700,0.3616396484375,-0.9233881831169128,-0.25026804208755493,-0.09766322374343872
1772794871570683600,0.37168359375,-0.9251918196678162,-0.27061009407043457,-0.049524690955877304
1772794871580727600,0.3817275390625,-0.9225766062736511,-0.29917728900909424,-0.018184080719947815
1772794871590772700,0.391772705078125,-0.9133926033973694,-0.3335329294204712,-0.016330424696207047
1772794871600816600,0.401816650390625,-0.8980466723442078,-0.3596780002117157,-0.02381630428135395
1772794871610861800,0.41186181640625,-0.8761001825332642,-0.38281571865081787,-0.03782729059457779
1772794871620905700,0.42190576171875,-0.8521562218666077,-0.3895031809806824,-0.05177399888634682
1772794871630950700,0.43195068359375,-0.8323778510093689,-0.3883662521839142,-0.06715085357427597
1772794871640994800,0.441994873046875,-0.8173408508300781,-0.40488824248313904,-0.08743774890899658
1772794871651038700,0.452038818359375,-0.8050916790962219,-0.4258677661418915,-0.1154763400554657
1772794871661083600,0.462083740234375,-0.7969282865524292,-0.4404991865158081,-0.14498762786388397
1772794871671127600,0.47212744140625,-0.8145374059677124,-0.43899011611938477,-0.18258865177631378
1772794871681172700,0.4821728515625,-0.7895633578300476,-0.384804904460907,-0.18587924540042877
1772794871691216600,0.492216552734375,-0.7508402466773987,-0.30793696641921997,-0.178119957447052
1772794871701260500,0.502260498046875,-0.726527988910675,-0.28858935832977295,-0.18931987881660461
1772794871711305700,0.5123056640625,-0.7188577055931091,-0.2917826771736145,-0.20614580810070038
1772794871721349600,0.522349609375,-0.7510971426963806,-0.3130275011062622,-0.22886735200881958
1772794871731394800,0.532394775390625,-0.7596673965454102,-0.31503215432167053,-0.22112520039081573
1772794871741438700,0.542438720703125,-0.7520179748535156,-0.3315642774105072,-0.1895235925912857
1772794871751482600,0.552482666015625,-0.7420222759246826,-0.4177052080631256,-0.15963633358478546
1772794871761527800,0.56252783203125,-0.7458896636962891,-0.5186868906021118,-0.1286560446023941
1772794871771571700,0.57257177734375,-0.7574002742767334,-0.5987147688865662,-0.07796908915042877
1772794871781616600,0.58261669921875,-0.7559736371040344,-0.6544986367225647,-0.012707524001598358
1772794871791660800,0.592660888671875,-0.7790051698684692,-0.6793114542961121,0.036554720252752304
1772794871801705500,0.60270556640625,-0.7678651809692383,-0.6482624411582947,0.080497145652771
1772794871811749600,0.61274951171875,-0.7388729453086853,-0.602902889251709,0.13013382256031036
1772794871821793500,0.62279345703125,-0.7158259153366089,-0.5611144304275513,0.16173489391803741
1772794871831838700,0.632838623046875,-0.6968221664428711,-0.532342791557312,0.1601589024066925
1772794871841882600,0.642882568359375,-0.6826623678207397,-0.5413109660148621,0.14611658453941345
1772794871851927800,0.652927734375,-0.6637470126152039,-0.5835782289505005,0.12803344428539276
1772794871861971700,0.6629716796875,-0.680686891078949,-0.5957400798797607,0.11212185025215149
1772794871872015600,0.673015625,-0.7426969408988953,-0.5353243350982666,0.1035277247428894
1772794871882060800,0.683060791015625,-0.8048761487007141,-0.42484015226364136,0.12208889424800873
1772794871892104700,0.693104736328125,-0.8527474999427795,-0.27528926730155945,0.14180639386177063
1772794871902149600,0.703149658203125,-0.8730634450912476,-0.13775911927223206,0.1549517661333084
1772794871912193800,0.71319384765625,-0.8957606554031372,-0.10323353111743927,0.1251637041568756
1772794871922238500,0.723238525390625,-0.9113918542861938,-0.12000717967748642,0.04371572285890579
1772794871932282600,0.73328271484375,-0.9067805409431458,-0.11447366327047348,-0.06261976808309555
1772794871942326800,0.743326904296875,-0.9243297576904297,-0.13881602883338928,-0.17429064214229584
1772794871952371700,0.753371826171875,-0.9459407329559326,-0.1736510694026947,-0.2803701162338257
1772794871962415600,0.76341552734375,-0.9562261700630188,-0.2686409652233124,-0.35452157258987427
1772794871972460800,0.773460693359375,-0.956845223903656,-0.380288302898407,-0.4106470048427582
1772794871982504700,0.783504638671875,-0.9584414958953857,-0.5292428731918335,-0.4735226333141327
1772794871992548600,0.793548583984375,-1.0020694732666016,-0.6765865087509155,-0.5616559982299805
1772794872002593800,0.80359375,-1.0603346824645996,-0.7532469034194946,-0.6174442172050476
1772794872012637700,0.8136376953125,-1.0797889232635498,-0.7867542505264282,-0.6552467942237854
1772794872022682600,0.8236826171875,-1.0975929498672485,-0.7941181659698486,-0.6853452920913696
1772794872032726800,0.833726806640625,-1.1010339260101318,-0.7209023237228394,-0.6849565505981445
1772794872042771500,0.843771484375,-1.1774508953094482,-0.6068782806396484,-0.6829916834831238
1772794872052815600,0.853815673828125,-1.1913484334945679,-0.4487355947494507,-0.6786326169967651
1772794872062859800,0.86385986328125,-1.1942590475082397,-0.21001434326171875,-0.665187656879425
1772794872072904700,0.87390478515625,-1.1828067302703857,-0.012684507295489311,-0.6857216358184814
1772794872082948600,0.883948486328125,-1.2179996967315674,0.17893312871456146,-0.7146492004394531
1772794872092993500,0.89399365234375,-1.334809422492981,0.2171090692281723,-0.7711828947067261
1772794872103037700,0.90403759765625,-1.521620512008667,0.2185298651456833,-0.8072055578231812
1772794872113081300,0.914081298828125,-1.7032196521759033,0.23907940089702606,-0.7834625244140625
1772794872123126500,0.92412646484375,-1.8533302545547485,0.30321818590164185,-0.7710050344467163
1772794872133170700,0.934170654296875,-1.9642738103866577,0.4103061258792877,-0.7100581526756287
1772794872143215600,0.944215576171875,-2.035991668701172,0.4833803176879883,-0.6263712048530579
1772794872153259500,0.954259521484375,-2.0484139919281006,0.5123486518859863,-0.5622662901878357
1772794872163303700,0.9643037109375,-1.9818637371063232,0.4818685054779053,-0.5145916938781738
1772794872173348400,0.974348388671875,-1.8499902486801147,0.41719895601272583,-0.4848439395427704
1772794872183392500,0.984392578125,-1.6799296140670776,0.3347621262073517,-0.47638869285583496
1772794872193437700,0.994437744140625,-1.4602569341659546,0.2620525062084198,-0.4815394878387451
1772794872203481300,1.0044814453125,-1.2072651386260986,0.19886556267738342,-0.5266079306602478
1772794872213526500,1.014526611328125,-0.9422169923782349,0.23048973083496094,-0.6150096654891968
1772794872223570700,1.02457080078125,-0.7151625752449036,0.2875591516494751,-0.7148265242576599
1772794872233614300,1.0346142578125,-0.6530429720878601,0.27942147850990295,-0.8067014813423157
1772794872243659500,1.044659423828125,-0.6917813420295715,0.3078898787498474,-0.8533301949501038
1772794872253703700,1.05470361328125,-0.7477887272834778,0.34853115677833557,-0.8338391780853271
1772794872263748600,1.06474853515625,-0.7759921550750732,0.3755020499229431,-0.7594807744026184
1772794872273792500,1.07479248046875,-0.7696760892868042,0.3861646056175232,-0.6482797265052795
1772794872283836700,1.084836669921875,-0.728529155254364,0.3889065980911255,-0.5326452851295471
1772794872293881600,1.094881591796875,-0.6850337982177734,0.35796916484832764,-0.4365943968296051
1772794872303925500,1.104925537109375,-0.6527302265167236,0.30672433972358704,-0.35888415575027466
1772794872313970700,1.114970703125,-0.6502740383148193,0.2576887011528015,-0.309251993894577
1772794872324014600,1.1250146484375,-0.6377334594726562,0.23953047394752502,-0.2617638111114502
1772794872334059500,1.1350595703125,-0.616300106048584,0.2197447419166565,-0.23380564153194427
1772794872344103700,1.145103759765625,-0.5985325574874878,0.1717202216386795,-0.22191888093948364
1772794872354147300,1.155147216796875,-0.5842753052711487,0.11374369263648987,-0.22303228080272675
1772794872364192500,1.165192626953125,-0.5769766569137573,0.08441536128520966,-0.22688454389572144
1772794872374236700,1.175236572265625,-0.5682948231697083,0.10183563083410263,-0.2323935478925705
1772794872384281600,1.185281494140625,-0.5513389706611633,0.13430620729923248,-0.2280062586069107
1772794872394325500,1.195325439453125,-0.5308919548988342,0.14794635772705078,-0.22661657631397247
1772794872404369700,1.20536962890625,-0.49025267362594604,0.1405177265405655,-0.21756316721439362
1772794872414414600,1.21541455078125,-0.44245025515556335,0.10343651473522186,-0.21005450189113617
1772794872424458500,1.22545849609375,-0.3918060064315796,0.06726545840501785,-0.19388431310653687
1772794872434503700,1.235503662109375,-0.33578670024871826,0.018581220880150795,-0.16623105108737946
1772794872444547600,1.245547607421875,-0.2720809578895569,-0.05991145968437195,-0.11467704176902771
1772794872454592500,1.255592529296875,-0.19230087101459503,-0.13352251052856445,-0.05364225059747696
1772794872464636700,1.26563671875,-0.15321844816207886,-0.17429043352603912,0.012380972504615784
1772794872474680600,1.2756806640625,-0.12754611670970917,-0.3006913661956787,0.08421212434768677
1772794872484725500,1.2857255859375,-0.061838746070861816,-0.4613438844680786,0.17259898781776428
1772794872494769700,1.295769775390625,-0.05685470998287201,-0.5790872573852539,0.22581955790519714
1772794872504814600,1.305814697265625,-0.12069734185934067,-0.6310322284698486,0.2813595235347748
1772794872514858500,1.3158583984375,-0.20727607607841492,-0.584155261516571,0.31424686312675476
1772794872524902700,1.325902587890625,-0.2802378833293915,-0.48399055004119873,0.2795376181602478
1772794872534947600,1.335947509765625,-0.32019102573394775,-0.38629868626594543,0.18131953477859497
1772794872544991500,1.345991455078125,-0.33825257420539856,-0.29973503947257996,0.041992537677288055
1772794872555036700,1.35603662109375,-0.3320774734020233,-0.22828982770442963,-0.12218235433101654
1772794872565080600,1.36608056640625,-0.3406970798969269,-0.21264667809009552,-0.29083847999572754
1772794872575124500,1.37612451171875,-0.3580254912376404,-0.21568982303142548,-0.4252983331680298
1772794872585169700,1.386169677734375,-0.363099068403244,-0.21055178344249725,-0.5562859177589417
1772794872595213600,1.396213623046875,-0.3621691167354584,-0.14491355419158936,-0.72007817029953
1772794872605258500,1.406258544921875,-0.34489211440086365,-0.13124381005764008,-0.8330065608024597
1772794872615302700,1.416302734375,-0.3427528440952301,-0.1773124486207962,-0.8661978244781494
1772794872625347600,1.42634765625,-0.3694973886013031,-0.23421886563301086,-0.8296582102775574
1772794872635391500,1.4363916015625,-0.43348419666290283,-0.2718459963798523,-0.745053768157959
1772794872645435600,1.446435546875,-0.5193519592285156,-0.32071924209594727,-0.6326790452003479
1772794872655480600,1.45648046875,-0.5908873677253723,-0.3647291362285614,-0.5279088616371155
1772794872665524500,1.4665244140625,-0.6395046710968018,-0.3683483600616455,-0.42991116642951965
1772794872675569400,1.4765693359375,-0.7056534886360168,-0.31852805614471436,-0.3450615406036377
1772794872685613600,1.486613525390625,-0.730230450630188,-0.20341317355632782,-0.3017636239528656
1772794872695657500,1.496657470703125,-0.6813152432441711,-0.143832728266716,-0.29643991589546204
1772794872705702700,1.50670263671875,-0.5975146293640137,-0.020885758101940155,-0.2800559103488922
1772794872715746600,1.51674658203125,-0.5198381543159485,0.13951829075813293,-0.26199162006378174
1772794872725791500,1.52679150390625,-0.4583069086074829,0.26446422934532166,-0.26488250494003296
1772794872735835600,1.536835693359375,-0.39400774240493774,0.34503400325775146,-0.27363428473472595
1772794872745880600,1.546880615234375,-0.3216533958911896,0.374434232711792,-0.25485873222351074
1772794872755924500,1.556924560546875,-0.24098773300647736,0.3356100022792816,-0.1833985298871994
1772794872765968600,1.56696875,-0.14981894195079803,0.2619405686855316,-0.06308331340551376
1772794872776013600,1.577013671875,-0.07837449759244919,0.20632916688919067,0.08639123290777206
1772794872786057500,1.587057373046875,-0.03035557083785534,0.1587454080581665,0.23647820949554443
1772794872796102400,1.597102294921875,-0.010316791012883186,0.09489734470844269,0.3544478118419647
1772794872806146600,1.607146484375,-0.018679914996027946,0.02980329841375351,0.4234106242656708
1772794872816190500,1.6171904296875,-0.058336056768894196,-0.027585256844758987,0.4565025866031647
1772794872826235600,1.627235595703125,-0.12940196692943573,-0.05965957045555115,0.4577944874763489
1772794872836279600,1.637279541015625,-0.2150755673646927,-0.059446051716804504,0.4438372552394867
1772794872846324500,1.647324462890625,-0.2879098057746887,-0.032782480120658875,0.43280935287475586
1772794872856368600,1.65736865234375,-0.3567039966583252,-0.013332400470972061,0.44734784960746765
1772794872866412500,1.66741259765625,-0.39704954624176025,0.09974461793899536,0.4720878303050995
1772794872876457500,1.67745751953125,-0.40018463134765625,0.2074914276599884,0.4678806960582733
1772794872886501600,1.687501708984375,-0.40092605352401733,0.26784372329711914,0.4328305721282959
1772794872896546600,1.697546630859375,-0.42461296916007996,0.3173288106918335,0.36353635787963867
1772794872906590500,1.707590576171875,-0.45819172263145447,0.36462122201919556,0.2712075114250183
1772794872916634600,1.717634521484375,-0.48320212960243225,0.4479150176048279,0.18296313285827637
1772794872926679600,1.727679443359375,-0.49142464995384216,0.47663775086402893,0.0851377621293068
1772794872936723500,1.737723388671875,-0.48709389567375183,0.4810841977596283,-0.008399673737585545
1772794872946768600,1.7477685546875,-0.49502959847450256,0.4625198245048523,-0.09921000897884369
1772794872956812500,1.7578125,-0.5261247754096985,0.4097140431404114,-0.20575575530529022
1772794872966857500,1.767857421875,-0.5862150192260742,0.34939849376678467,-0.32129645347595215
1772794872976901600,1.777901611328125,-0.6636750102043152,0.2811875641345978,-0.4245864450931549
1772794872986945500,1.787945556640625,-0.750950813293457,0.20678600668907166,-0.5007544755935669
1772794872996990500,1.797990478515625,-0.8239089846611023,0.12167090177536011,-0.5455555319786072
1772794873007034600,1.80803466796875,-0.8839752674102783,0.010732671245932579,-0.5781725645065308
1772794873017079600,1.81807958984375,-0.9279446005821228,-0.05942314490675926,-0.5844566822052002
1772794873027123500,1.82812353515625,-0.9632999300956726,-0.1263561099767685,-0.5769739747047424
1772794873037167600,1.838167724609375,-0.9825454950332642,-0.16498535871505737,-0.5638394355773926
1772794873047212500,1.848212646484375,-0.9750915765762329,-0.14401216804981232,-0.5373929142951965
1772794873057256400,1.85825634765625,-0.937758207321167,-0.06661239266395569,-0.5006930232048035
1772794873067301600,1.868301513671875,-0.8711032867431641,0.0347009114921093,-0.448716938495636
1772794873077345500,1.878345458984375,-0.7855786681175232,0.13661715388298035,-0.39915892481803894
1772794873087391000,1.888390869140625,-0.6998448371887207,0.21839457750320435,-0.36408618092536926
1772794873097435000,1.898434814453125,-0.61634361743927,0.27154844999313354,-0.3501043915748596
1772794873107478800,1.908478759765625,-0.5548773407936096,0.2833544909954071,-0.3229212462902069
1772794873117524000,1.91852392578125,-0.5349895358085632,0.2717795670032501,-0.2826438546180725
1772794873127568100,1.928568115234375,-0.5379666686058044,0.23956435918807983,-0.22068487107753754
1772794873137612800,1.93861279296875,-0.5625452995300293,0.2166595309972763,-0.144590824842453
1772794873147657000,1.948656982421875,-0.6025744676589966,0.1870230734348297,-0.08077457547187805
1772794873157701000,1.958701171875,-0.6407688856124878,0.13588105142116547,-0.05824585631489754
1772794873167745800,1.968745849609375,-0.6702370047569275,0.10792079567909241,-0.06500629335641861
1772794873177790000,1.9787900390625,-0.6938099265098572,0.09795651584863663,-0.08001496642827988
1772794873187835000,1.9888349609375,-0.71160888671875,0.08776486665010452,-0.09429430961608887
1772794873197878800,1.998878662109375,-0.7196514010429382,0.07524017989635468,-0.09502788633108139
1772794873207923000,2.0089228515625,-0.7093609571456909,0.059166938066482544,-0.08814361691474915
1772794873217967900,2.0189677734375,-0.6851630210876465,0.04643745720386505,-0.07184793055057526
1772794873228011800,2.02901171875,-0.6390509605407715,0.007773153483867645,-0.047538600862026215
1772794873238057000,2.039056884765625,-0.5767378211021423,0.014394143596291542,-0.006779280491173267
1772794873248101000,2.04910107421875,-0.5220692753791809,0.029385343194007874,0.056576259434223175
1772794873258145800,2.059145751953125,-0.4742331802845001,0.026314936578273773,0.11182674020528793
1772794873268190000,2.06918994140625,-0.48688027262687683,-0.039499759674072266,0.1878349632024765
1772794873278234000,2.079234130859375,-0.48594143986701965,-0.08249315619468689,0.24768994748592377
1772794873288278800,2.08927880859375,-0.47566482424736023,-0.09171648323535919,0.2740866541862488
1772794873298323000,2.099322998046875,-0.456076443195343,-0.07244696468114853,0.28933969140052795
1772794873308368000,2.109367919921875,-0.44231775403022766,-0.043838754296302795,0.2963981330394745
1772794873318411800,2.119411865234375,-0.41854968667030334,-0.00846760906279087,0.30085325241088867
1772794873328456000,2.1294560546875,-0.38613900542259216,0.017978645861148834,0.3053494691848755
1772794873338500900,2.1395009765625,-0.3592316210269928,0.02581164427101612,0.32608792185783386
1772794873348544800,2.149544677734375,-0.33687838912010193,0.019156938418745995,0.35111603140830994
1772794873358590000,2.15958984375,-0.3094251751899719,0.01656600460410118,0.37278106808662415
1772794873368634000,2.169634033203125,-0.28870123624801636,0.025923021137714386,0.3764412999153137
1772794873378679000,2.179678955078125,-0.28309962153434753,0.07289411127567291,0.3799564838409424
1772794873388723000,2.189722900390625,-0.28928694128990173,0.0671699121594429,0.3560815155506134
1772794873398767000,2.19976708984375,-0.3049960732460022,0.02638944797217846,0.3221973776817322
1772794873408811800,2.209811767578125,-0.3295104503631592,-0.0065314858220517635,0.30393874645233154
1772794873418856000,2.21985595703125,-0.3575648367404938,-0.02681385725736618,0.310244619846344
1772794873428900900,2.22990087890625,-0.3846323788166046,-0.047835785895586014,0.3405929505825043
1772794873438944800,2.23994482421875,-0.41277366876602173,-0.1060146689414978,0.38687172532081604
1772794873448989000,2.249989013671875,-0.4428170323371887,-0.16459594666957855,0.43387866020202637
1772794873459033900,2.260033935546875,-0.4539675712585449,-0.21527637541294098,0.4685278832912445
1772794873469077800,2.270077880859375,-0.45765313506126404,-0.25093451142311096,0.4919607639312744
1772794873479123000,2.280123046875,-0.441006064414978,-0.2630540430545807,0.5011481642723083
1772794873489166800,2.290166748046875,-0.4111102223396301,-0.2508391737937927,0.5053317546844482
1772794873499210800,2.300210693359375,-0.36422744393348694,-0.21540053188800812,0.5051733255386353
1772794873509256000,2.310255859375,-0.30269989371299744,-0.16097991168498993,0.5074921250343323
1772794873519300000,2.320300048828125,-0.23278288543224335,-0.08797153830528259,0.5079553127288818
1772794873529345000,2.330344970703125,-0.16074225306510925,-0.024068187922239304,0.49747660756111145
1772794873539389000,2.340388916015625,-0.09730599820613861,0.023865461349487305,0.4735153913497925
1772794873549433000,2.35043310546875,-0.0375467948615551,0.055042289197444916,0.4428275227546692
1772794873559477800,2.360477783203125,0.0027228447142988443,0.06017718464136124,0.4086205065250397
1772794873569522000,2.37052197265625,0.016576075926423073,0.033622268587350845,0.3835148811340332
1772794873579566800,2.38056689453125,0.004428936634212732,-0.02171027660369873,0.3679679036140442
1772794873589610800,2.39061083984375,-0.027160681784152985,-0.08001912385225296,0.36594414710998535
1772794873599656000,2.400656005859375,-0.04003657028079033,-0.04634201526641846,0.36025023460388184
1772794873609699800,2.410699951171875,-0.04908812418580055,-0.12839266657829285,0.368461012840271
1772794873619743700,2.42074365234375,-0.09617927670478821,-0.15232272446155548,0.38213980197906494
1772794873629789000,2.430788818359375,-0.12871138751506805,-0.08176732808351517,0.4034133851528168
1772794873639833000,2.4408330078125,-0.11209480464458466,-0.06464853137731552,0.42276814579963684
1772794873649878000,2.4508779296875,-0.11421308666467667,-0.07872839272022247,0.4449775815010071
1772794873659922000,2.460921875,-0.10940621793270111,-0.03691576421260834,0.4736633896827698
1772794873669966000,2.470966064453125,-0.09407812356948853,0.008489269763231277,0.5122163891792297
1772794873680011000,2.481010986328125,-0.06042410433292389,0.06879740953445435,0.5330458879470825
1772794873690055000,2.491054931640625,-0.062020137906074524,0.15044620633125305,0.5108428597450256
1772794873700099800,2.501099853515625,-0.03971915692090988,0.16880245506763458,0.45046353340148926
1772794873710143700,2.511143798828125,-0.044007375836372375,0.19481702148914337,0.3754737377166748
1772794873720188000,2.52118798828125,-0.010540998540818691,0.29530638456344604,0.3194487392902374
1772794873730232800,2.53123291015625,0.028925450518727303,0.3632681369781494,0.2808787226676941
1772794873740276700,2.54127685546875,0.04263066127896309,0.3465147316455841,0.2450418621301651
1772794873750322000,2.551322021484375,0.06917039304971695,0.3658692538738251,0.21885527670383453
1772794873760366000,2.561365966796875,0.06692695617675781,0.24930012226104736,0.19349628686904907
1772794873770411000,2.571410888671875,0.011761438101530075,0.12749940156936646,0.18052135407924652
1772794873780455000,2.581454833984375,-0.02808382362127304,0.04473329707980156,0.18412236869335175
1772794873790499000,2.5914990234375,-0.025402553379535675,0.0009780940599739552,0.18777994811534882
1772794873800544000,2.6015439453125,-0.08076026290655136,-0.15783563256263733,0.17063404619693756
1772794873810588000,2.611587890625,-0.12564784288406372,-0.25999554991722107,0.16432476043701172
1772794873820632800,2.6216328125,-0.15188582241535187,-0.39155781269073486,0.15537786483764648
1772794873830677000,2.631677001953125,-0.17505240440368652,-0.5172665119171143,0.12489186972379684
1772794873840721000,2.641720947265625,-0.18610325455665588,-0.5393224954605103,0.09085988253355026
1772794873850765800,2.651765869140625,-0.2098432034254074,-0.535895049571991,0.03885660320520401
1772794873860809700,2.661809814453125,-0.24878449738025665,-0.6061314940452576,-0.05734044313430786
1772794873870855000,2.67185498046875,-0.3105565011501312,-0.5657499432563782,-0.15618766844272614
1772794873880899000,2.681899169921875,-0.34381935000419617,-0.4191134572029114,-0.24107982218265533
1772794873890944000,2.691944091796875,-0.39867621660232544,-0.35173869132995605,-0.33176469802856445
1772794873900988000,2.70198779296875,-0.4615752398967743,-0.26601913571357727,-0.4047365188598633
1772794873911032000,2.712031982421875,-0.5306733250617981,-0.06680803000926971,-0.4257086515426636
1772794873921077000,2.722076904296875,-0.5905299782752991,-0.01288375910371542,-0.4284009039402008
1772794873931121000,2.732120849609375,-0.6262107491493225,-0.011071744374930859,-0.4356095492839813
1772794873941165800,2.742165771484375,-0.613452136516571,0.11492607742547989,-0.4136791527271271
1772794873951210000,2.7522099609375,-0.5713150501251221,0.22646033763885498,-0.37766629457473755
1772794873961254000,2.76225390625,-0.49464863538742065,0.2676377296447754,-0.3651527166366577
1772794873971298800,2.772298828125,-0.42977777123451233,0.29121655225753784,-0.36124932765960693
1772794873981343000,2.782343017578125,-0.38536766171455383,0.28819528222084045,-0.3496934175491333
1772794873991388000,2.792387939453125,-0.3554350733757019,0.24831470847129822,-0.324725478887558
1772794874001432000,2.80243212890625,-0.3184524476528168,0.1879870742559433,-0.2946907877922058
1772794874011475700,2.812475830078125,-0.27647703886032104,0.10583708435297012,-0.2571532726287842
1772794874021521000,2.82252099609375,-0.23604173958301544,0.013628965243697166,-0.21889814734458923
1772794874031565000,2.83256494140625,-0.20145872235298157,-0.0667167380452156,-0.1699332594871521
1772794874041610000,2.84260986328125,-0.17990629374980927,-0.13450351357460022,-0.12102751433849335
1772794874051654000,2.85265380859375,-0.15839433670043945,-0.18059298396110535,-0.07589758932590485
1772794874061698800,2.86269873046875,-0.140004500746727,-0.21665899455547333,-0.040574293583631516
1772794874071743000,2.872742919921875,-0.1273062825202942,-0.2514561414718628,-0.018544359132647514
1772794874081787000,2.882786865234375,-0.1231221854686737,-0.2801430821418762,-0.022135473787784576
1772794874091831800,2.892831787109375,-0.10944126546382904,-0.2880718410015106,-0.03131033107638359
1772794874101875700,2.902875732421875,-0.08921292424201965,-0.2789689600467682,-0.047230347990989685
1772794874111921000,2.9129208984375,-0.06845704466104507,-0.2481173276901245,-0.06075547635555267
1772794874121965000,2.922965087890625,-0.05009431764483452,-0.20213401317596436,-0.06377825886011124
1772794874132008700,2.9330087890625,-0.03187350183725357,-0.15435396134853363,-0.057447925209999084
1772794874142054000,2.943053955078125,-0.009738331660628319,-0.11612173169851303,-0.056257933378219604
1772794874152098000,2.95309814453125,0.01390760950744152,-0.0892682820558548,-0.05532688647508621
1772794874162142700,2.963142822265625,0.03074241243302822,-0.07196466624736786,-0.0552179329097271
1772794874172187000,2.973186767578125,0.042500004172325134,-0.056108735501766205,-0.054962802678346634
1772794874182231800,2.983231689453125,0.05243370682001114,-0.050301339477300644,-0.04881557077169418
1772794874192275700,2.993275634765625,0.06019788607954979,-0.06299582868814468,-0.038727518171072006
1772794874202320000,3.00331982421875,0.06994907557964325,-0.08694568276405334,-0.01366046629846096
1772794874212364800,3.01336474609375,0.06152522563934326,-0.12122856080532074,0.014009244740009308
1772794874222408700,3.02340869140625,0.05025087296962738,-0.15674535930156708,0.0357593409717083
1772794874232454000,3.033453857421875,0.04147043079137802,-0.18965192139148712,0.05388374999165535
1772794874242498000,3.043498046875,0.03005768358707428,-0.21678996086120605,0.06034448370337486
1772794874252541700,3.053541748046875,0.0042282151989638805,-0.2391490638256073,0.05475184693932533
1772794874262587000,3.0635869140625,-0.03718750178813934,-0.2616352140903473,0.049005843698978424
1772794874272631000,3.073631103515625,-0.059641946107149124,-0.279433935880661,0.044623345136642456
1772794874282675700,3.08367578125,-0.06871462613344193,-0.2589631676673889,0.05294804275035858
1772794874292719900,3.093719970703125,-0.06759264320135117,-0.24603112041950226,0.07256516069173813
1772794874302764000,3.103763916015625,-0.04579896479845047,-0.23528514802455902,0.09482615441083908
1772794874312808700,3.11380859375,-0.0018293776083737612,-0.17623594403266907,0.12785761058330536
1772794874322852900,3.123852783203125,0.030058635398745537,-0.0990956649184227,0.15922752022743225
1772794874332897800,3.133897705078125,0.025765353813767433,-0.045575451105833054,0.17119310796260834
1772794874342941700,3.143941650390625,0.008032153360545635,0.013895493000745773,0.160519540309906
1772794874352987000,3.15398681640625,0.008716852404177189,0.07312818616628647,0.12463158369064331
1772794874363030800,3.16403076171875,0.029589878395199776,0.11683140695095062,0.06215015426278114
1772794874373074700,3.17407470703125,0.048230141401290894,0.14319084584712982,-0.015303353779017925
1772794874383120000,3.184119873046875,0.054077666252851486,0.15742138028144836,-0.11035285890102386
1772794874393164000,3.1941640625,0.052678439766168594,0.13693980872631073,-0.202302485704422
1772794874403208700,3.204208740234375,0.05403612181544304,0.08366807550191879,-0.2798483967781067
1772794874413252900,3.2142529296875,0.05259241908788681,0.012756085954606533,-0.31833401322364807
1772794874423297000,3.224297119140625,0.03909183293581009,-0.056413233280181885,-0.3158385455608368
1772794874433341700,3.234341796875,0.021368229761719704,-0.11808060109615326,-0.28429660201072693
1772794874443385900,3.2443857421875,0.003401725087314844,-0.16233135759830475,-0.23482151329517365
1772794874453430800,3.2544306640625,-0.007985418662428856,-0.20132935047149658,-0.16991041600704193
1772794874463474700,3.264474609375,-0.00888136774301529,-0.2280750572681427,-0.10742107778787613
1772794874473518800,3.274518798828125,0.005408089607954025,-0.24906609952449799,-0.051799628883600235
1772794874483563800,3.284563720703125,0.03347303718328476,-0.27008113265037537,0.002484431490302086
1772794874493607700,3.294607666015625,0.06448474526405334,-0.2899041175842285,0.05045861378312111
1772794874503652900,3.30465283203125,0.09885871410369873,-0.3035198450088501,0.09751804918050766
1772794874513697000,3.314697021484375,0.1365877240896225,-0.308008074760437,0.14455346763134003
1772794874523741700,3.32474169921875,0.17238959670066833,-0.302293598651886,0.18933144211769104
1772794874533785900,3.334785888671875,0.2118176966905594,-0.28119415044784546,0.2417251467704773
1772794874543830000,3.344830078125,0.2625989615917206,-0.2303479164838791,0.30963027477264404
1772794874553874700,3.354874755859375,0.2904484272003174,-0.20077857375144958,0.3647606372833252
1772794874563918800,3.3649189453125,0.31418681144714355,-0.13226735591888428,0.4089512228965759
1772794874573963800,3.3749638671875,0.3503565490245819,-0.039236754179000854,0.4508099853992462
1772794874584007700,3.385007568359375,0.38393229246139526,0.033984407782554626,0.47308555245399475
1772794874594051800,3.3950517578125,0.4176974296569824,0.09477531909942627,0.4723084568977356
1772794874604096800,3.4050966796875,0.442781001329422,0.15429186820983887,0.45955219864845276
1772794874614140700,3.415140625,0.4471275508403778,0.20729117095470428,0.43319541215896606
1772794874624185900,3.425185791015625,0.4441455602645874,0.24158069491386414,0.3874436616897583
1772794874634230000,3.43522998046875,0.4288550019264221,0.25800734758377075,0.32550546526908875
1772794874644275000,3.44527490234375,0.404510498046875,0.2725147604942322,0.256142258644104
1772794874654318800,3.45531884765625,0.3706603944301605,0.26860231161117554,0.18243475258350372
1772794874664363000,3.465363037109375,0.3201151192188263,0.23442023992538452,0.11351414024829865
1772794874674407700,3.47540771484375,0.2719995379447937,0.18818484246730804,0.04772314056754112
1772794874684451800,3.485451904296875,0.21505701541900635,0.13446077704429626,-0.010851692408323288
1772794874694496800,3.495496826171875,0.1533965915441513,0.07385922968387604,-0.05697231367230415
1772794874704540700,3.505540771484375,0.08587867766618729,-0.00043572578579187393,-0.09345630556344986
1772794874714584800,3.515584716796875,0.004394736606627703,-0.07166676223278046,-0.12507468461990356
1772794874724629800,3.525629638671875,-0.0752778872847557,-0.13881756365299225,-0.15376441180706024
1772794874734673700,3.535673583984375,-0.1401812583208084,-0.1844921112060547,-0.1782444566488266
1772794874744718800,3.54571875,-0.1862211972475052,-0.21548901498317719,-0.19648034870624542
1772794874754763000,3.555762939453125,-0.21019470691680908,-0.22410327196121216,-0.194121852517128
1772794874764806700,3.565806640625,-0.2020198404788971,-0.2000480592250824,-0.1681903451681137
1772794874774851800,3.575851806640625,-0.17823834717273712,-0.15471653640270233,-0.1210811510682106
1772794874784896000,3.58589599609375,-0.13223490118980408,-0.09887419641017914,-0.06237107515335083
1772794874794941000,3.59594091796875,-0.06959228217601776,-0.023503541946411133,-0.0006448618369176984
1772794874804984800,3.60598486328125,0.007843058556318283,0.061126016080379486,0.04485750198364258
1772794874815029800,3.61602978515625,0.0856611505150795,0.1471373289823532,0.06338271498680115
1772794874825073700,3.62607373046875,0.17029185593128204,0.24453003704547882,0.04859781637787819
1772794874835117800,3.636117919921875,0.24951688945293427,0.3476950228214264,0.007377143949270248
1772794874845162800,3.646162841796875,0.31736916303634644,0.44680675864219666,-0.05313738062977791
1772794874855206700,3.65620654296875,0.3703330457210541,0.5296987295150757,-0.12332578748464584
1772794874865251800,3.666251953125,0.40680426359176636,0.6082542538642883,-0.20142517983913422
1772794874875296000,3.6762958984375,0.4311639368534088,0.6793505549430847,-0.28034260869026184
1772794874885339600,3.686339599609375,0.4505656063556671,0.7532745599746704,-0.363311231136322
1772794874895384800,3.696384765625,0.4737761318683624,0.8156732320785522,-0.4368709623813629
1772794874905429000,3.706428955078125,0.4891846776008606,0.8593783378601074,-0.49096181988716125
1772794874915474000,3.716473876953125,0.4906001389026642,0.8727652430534363,-0.5298013687133789
1772794874925517800,3.726517822265625,0.49042460322380066,0.85817950963974,-0.5567053556442261
1772794874935562800,3.736562744140625,0.48230063915252686,0.8265960216522217,-0.5762244462966919
1772794874945607000,3.74660693359375,0.4793112576007843,0.7766568064689636,-0.5806019902229309
1772794874955650800,3.75665087890625,0.48586583137512207,0.7125118970870972,-0.5753398537635803
1772794874965695700,3.76669580078125,0.4927586317062378,0.6358094215393066,-0.5494829416275024
1772794874975740000,3.776739990234375,0.493304044008255,0.5474725961685181,-0.5063000917434692
1772794874985784800,3.786784912109375,0.48703494668006897,0.461225688457489,-0.4465086758136749
1772794874995829000,3.7968291015625,0.47734928131103516,0.36510902643203735,-0.38072940707206726
1772794875005872600,3.80687255859375,0.46855810284614563,0.27308329939842224,-0.31667837500572205
1772794875015917800,3.816917724609375,0.4572220742702484,0.1927839070558548,-0.24728944897651672
1772794875025962000,3.8269619140625,0.453446626663208,0.1256953626871109,-0.19176296889781952
1772794875036007000,3.8370068359375,0.45243409276008606,0.07239166647195816,-0.14544793963432312
1772794875046050800,3.84705078125,0.45036259293556213,0.039138153195381165,-0.11080396920442581
1772794875056095000,3.857094970703125,0.45029494166374207,0.0072310869581997395,-0.08625761419534683
1772794875066140000,3.867139892578125,0.4466385543346405,-0.0300908200442791,-0.06068587303161621
1772794875076183800,3.877183837890625,0.4335904121398926,-0.06296834349632263,-0.04882202297449112
1772794875086228700,3.887228759765625,0.41820669174194336,-0.08114585280418396,-0.03529094159603119
1772794875096272600,3.897272705078125,0.4021928310394287,-0.08545670658349991,-0.03126237913966179
1772794875106317800,3.90731787109375,0.3886851668357849,-0.08105110377073288,-0.03427352011203766
1772794875116361700,3.91736181640625,0.3758369982242584,-0.07629603147506714,-0.03440694510936737
1772794875126405600,3.927405517578125,0.3579544126987457,-0.08159481734037399,-0.030616043135523796
1772794875136450800,3.937450927734375,0.33992695808410645,-0.08982877433300018,-0.01835458353161812
1772794875146494700,3.94749462890625,0.31843024492263794,-0.07425860315561295,0.00046196405310183764
1772794875156539600,3.95753955078125,0.30898213386535645,-0.03945241868495941,0.019718216732144356
1772794875166583800,3.967583740234375,0.32472681999206543,-0.0033554499968886375,0.03515898808836937
1772794875176627700,3.977627685546875,0.3512684106826782,0.014667758718132973,0.05756229907274246
1772794875186672600,3.987672607421875,0.3681102693080902,-0.012933401390910149,0.09026980400085449
1772794875196716800,3.997716796875,0.3728565573692322,-0.08310423046350479,0.1441303789615631
1772794875206760700,4.0077607421875,0.3828425109386444,-0.17405842244625092,0.22201992571353912
1772794875216805600,4.0178056640625,0.38763779401779175,-0.25352635979652405,0.30980995297431946
1772794875226849800,4.027849853515625,0.38747698068618774,-0.3186548352241516,0.37479567527770996
1772794875236893700,4.037893798828125,0.36299505829811096,-0.37978315353393555,0.41411006450653076
1772794875246938600,4.047938720703125,0.33620771765708923,-0.4227171838283539,0.418239951133728
1772794875256982800,4.057982666015625,0.30208784341812134,-0.45527246594429016,0.4057678282260895
1772794875267027700,4.06802783203125,0.2680529057979584,-0.483262300491333,0.38502880930900574
1772794875277071600,4.078071533203125,0.23012229800224304,-0.4788374602794647,0.3787093758583069
1772794875287115800,4.08811572265625,0.20112885534763336,-0.44290971755981445,0.39127299189567566
1772794875297160700,4.09816064453125,0.17878013849258423,-0.37131834030151367,0.416461706161499
1772794875307204600,4.10820458984375,0.16535867750644684,-0.27848246693611145,0.4544799327850342
1772794875317249800,4.118249755859375,0.16056765615940094,-0.18109598755836487,0.4863007366657257
1772794875327293700,4.128293701171875,0.15804186463356018,-0.09995496273040771,0.507486879825592
1772794875337338600,4.138338623046875,0.1552860289812088,-0.03914967179298401,0.5003117918968201
1772794875347382800,4.1483828125,0.14681929349899292,0.011689700186252594,0.48157206177711487
1772794875357426700,4.1584267578125,0.14179709553718567,0.04879472404718399,0.456008642911911
1772794875367471600,4.1684716796875,0.13064901530742645,0.06031886115670204,0.4453636407852173
1772794875377515800,4.178515869140625,0.10505390912294388,0.06865136325359344,0.45261621475219727
1772794875387560700,4.188560791015625,0.08071649819612503,0.08738777041435242,0.4552803933620453
1772794875397604600,4.1986044921875,0.05590329319238663,0.13536594808101654,0.4432341158390045
1772794875407648800,4.208648681640625,0.035235852003097534,0.21129074692726135,0.41479453444480896
1772794875417693700,4.218693603515625,0.026380307972431183,0.30782368779182434,0.3701322376728058
1772794875427737600,4.228737548828125,0.021287107840180397,0.41551610827445984,0.32324013113975525
1772794875437782800,4.23878271484375,0.020378703251481056,0.5162850618362427,0.27841219305992126
1772794875447826700,4.24882666015625,0.02325623482465744,0.5842095017433167,0.243118554353714
1772794875457870800,4.258870849609375,0.02006443776190281,0.6051462292671204,0.19331051409244537
1772794875467915800,4.268915771484375,0.01317365188151598,0.5762584805488586,0.1429157853126526
1772794875477959700,4.278959716796875,0.019008103758096695,0.4827047884464264,0.10402403771877289
1772794875488004600,4.289004638671875,0.040918976068496704,0.3388430178165436,0.0889638215303421
1772794875498048800,4.299048828125,0.08112765103578568,0.1800815910100937,0.1343800276517868
1772794875508093700,4.30909375,0.14342448115348816,0.029620015993714333,0.21589666604995728
1772794875518137600,4.3191376953125,0.20699280500411987,-0.09309152513742447,0.3163534700870514
1772794875528181800,4.329181640625,0.27837803959846497,-0.17653363943099976,0.40255942940711975
1772794875538227700,4.339227783203125,0.3449985980987549,-0.23238597810268402,0.44544166326522827
1772794875548272600,4.349272705078125,0.3887041211128235,-0.25981035828590393,0.44036558270454407
1772794875558316800,4.35931689453125,0.39408743381500244,-0.27594193816185,0.3864211142063141
1772794875568361700,4.36936181640625,0.3587442934513092,-0.3006224036216736,0.27787378430366516
1772794875578405600,4.379405517578125,0.2827666997909546,-0.33914580941200256,0.1282816380262375
1772794875588450600,4.389450439453125,0.17594361305236816,-0.40839627385139465,-0.0366831012070179
1772794875598494700,4.39949462890625,0.03862464427947998,-0.47223010659217834,-0.19241251051425934
1772794875608538600,4.40953857421875,-0.09867482632398605,-0.506775438785553,-0.30201926827430725
1772794875618583600,4.41958349609375,-0.22659125924110413,-0.49164924025535583,-0.34887760877609253
1772794875628627700,4.429627685546875,-0.3414188325405121,-0.4429444968700409,-0.3385738730430603
1772794875638673000,4.4396728515625,-0.4116125702857971,-0.366386353969574,-0.2803601026535034
1772794875648716800,4.449716796875,-0.43456336855888367,-0.25721973180770874,-0.20031604170799255
1772794875658760700,4.4597607421875,-0.41649356484413147,-0.1345747858285904,-0.12104172259569168
1772794875668805600,4.4698056640625,-0.38203462958335876,-0.02982274442911148,-0.05962716042995453
1772794875678849800,4.479849853515625,-0.34460070729255676,0.025559552013874054,-0.04131819307804108
1772794875688894700,4.489894775390625,-0.3100683093070984,0.04226018115878105,-0.06341064721345901
1772794875698938600,4.499938720703125,-0.26768916845321655,0.01968776062130928,-0.11737215518951416
1772794875708982800,4.509982666015625,-0.2188447266817093,-0.028073372319340706,-0.1865203082561493
1772794875719027700,4.52002783203125,-0.16575993597507477,-0.07641506940126419,-0.24709178507328033
1772794875729071600,4.530071533203125,-0.11657422035932541,-0.11920929700136185,-0.29065030813217163
1772794875739116500,4.540116455078125,-0.07320863753557205,-0.1410735845565796,-0.3036838173866272
1772794875749160700,4.55016064453125,-0.030943525955080986,-0.12923076748847961,-0.295217365026474
1772794875759206000,4.560205810546875,0.0004804427735507488,-0.10340317338705063,-0.26633644104003906
1772794875769249800,4.570249755859375,0.017744434997439384,-0.0763382613658905,-0.23305970430374146
1772794875779293700,4.580293701171875,0.030381400138139725,-0.04834551364183426,-0.20223495364189148
1772794875789339000,4.5903388671875,0.04317302629351616,-0.016613097861409187,-0.1749996393918991
1772794875799382800,4.6003828125,0.05285841226577759,0.004048504866659641,-0.1585191935300827
1772794875809427700,4.610427734375,0.06256907433271408,0.011758673936128616,-0.13753673434257507
1772794875819471600,4.6204716796875,0.06322554498910904,0.017353177070617676,-0.12549790740013123
1772794875829516500,4.6305166015625,0.05469479039311409,0.014904673211276531,-0.11993834376335144
1772794875839560700,4.640560791015625,0.03329389542341232,0.0004189414903521538,-0.12429740279912949
1772794875849604600,4.6506044921875,0.0041819605976343155,-0.02941400744020939,-0.13986839354038239
1772794875859649500,4.6606494140625,-0.029324600473046303,-0.07446137815713882,-0.16201257705688477
1772794875869693700,4.670693603515625,-0.06329984217882156,-0.13080555200576782,-0.16276657581329346
1772794875879739000,4.68073876953125,-0.10819061845541,-0.17646092176437378,-0.14662861824035645
1772794875889782800,4.69078271484375,-0.15250162780284882,-0.20821912586688995,-0.10932891815900803
1772794875899826700,4.70082666015625,-0.19259844720363617,-0.2190198302268982,-0.06635694950819016
1772794875909871900,4.710871826171875,-0.22312147915363312,-0.22890612483024597,-0.036359794437885284
1772794875919915800,4.720915771484375,-0.24779221415519714,-0.23111015558242798,-0.017522722482681274
1772794875929960700,4.730960693359375,-0.273282915353775,-0.22368979454040527,-0.020719846710562706
1772794875940004900,4.7410048828125,-0.3023552894592285,-0.206264466047287,-0.03597869351506233
1772794875950048800,4.751048828125,-0.3237837553024292,-0.18905070424079895,-0.057129111140966415
1772794875960093700,4.76109375,-0.3394053280353546,-0.17117956280708313,-0.07661466300487518
1772794875970137600,4.7711376953125,-0.3496980369091034,-0.1556137055158615,-0.08082430809736252
1772794875980182500,4.7811826171875,-0.3604910373687744,-0.14180494844913483,-0.07643008977174759
1772794875990226700,4.791226806640625,-0.3744761049747467,-0.1295531839132309,-0.06420288234949112
1772794876000272000,4.80127197265625,-0.38968247175216675,-0.11162929981946945,-0.05160186439752579
1772794876010315800,4.811315673828125,-0.39553529024124146,-0.0921286791563034,-0.03966095298528671
1772794876020359700,4.821359619140625,-0.3985278904438019,-0.07671430706977844,-0.028380336239933968
1772794876030404900,4.83140478515625,-0.39912620186805725,-0.07117141038179398,-0.02678678184747696
1772794876040448800,4.84144873046875,-0.3950456976890564,-0.07401033490896225,-0.02486664243042469
1772794876050493700,4.85149365234375,-0.38835853338241577,-0.07970066368579865,-0.020058084279298782
1772794876060537900,4.861537841796875,-0.38362637162208557,-0.08960656076669693,-0.005421883426606655
1772794876070581800,4.871581787109375,-0.379926472902298,-0.09719422459602356,0.012564636766910553
1772794876080626700,4.881626708984375,-0.3619014024734497,-0.10460314154624939,0.03234579786658287
1772794876090670800,4.8916708984375,-0.33309033513069153,-0.1447007656097412,0.0431143194437027
1772794876100715800,4.9017158203125,-0.32477542757987976,-0.21546468138694763,0.046165771782398224
1772794876110759700,4.911759765625,-0.34469282627105713,-0.2871688902378082,0.031976088881492615
1772794876120804900,4.921804931640625,-0.36195144057273865,-0.33817481994628906,0.010632983408868313
1772794876130848800,4.931848876953125,-0.36389073729515076,-0.37549254298210144,-0.006198571063578129
1772794876140892700,4.941892578125,-0.345784991979599,-0.40539905428886414,-0.02194531075656414
1772794876150937900,4.951937744140625,-0.3218827545642853,-0.43149232864379883,-0.03393037989735603
1772794876160982000,4.96198193359375,-0.31226155161857605,-0.4335938096046448,-0.05685433745384216
1772794876171026700,4.972026611328125,-0.31589263677597046,-0.3850667476654053,-0.07450741529464722
1772794876181070800,4.98207080078125,-0.3173650801181793,-0.2889772355556488,-0.08951885998249054
1772794876191115000,4.992114990234375,-0.3065643608570099,-0.18117621541023254,-0.0857134684920311
1772794876201159700,5.00215966796875,-0.28744155168533325,-0.08313006907701492,-0.06627265363931656
1772794876211203800,5.012203857421875,-0.2708442509174347,-0.0049432311207056046,-0.025371966883540154
1772794876221248800,5.022248779296875,-0.24980100989341736,0.0518215149641037,0.015218602493405342
1772794876231292700,5.032292724609375,-0.22728101909160614,0.07890933007001877,0.04030502960085869
1772794876241336800,5.0423369140625,-0.21146637201309204,0.08301804959774017,0.04260972887277603
1772794876251381800,5.0523818359375,-0.19231797754764557,0.07832449674606323,0.016501696780323982
1772794876261425700,5.06242578125,-0.17953772842884064,0.059690892696380615,-0.004577754996716976
1772794876271470800,5.072470947265625,-0.1714314967393875,0.012431120499968529,-0.007550218142569065
1772794876281515000,5.082514892578125,-0.1578054279088974,-0.04695683717727661,0.0017338275210931897
1772794876291559700,5.0925595703125,-0.14011283218860626,-0.10544102638959885,0.03002811223268509
1772794876301603800,5.102603759765625,-0.13293109834194183,-0.15079544484615326,0.06728094816207886
1772794876311648000,5.11264794921875,-0.1202893927693367,-0.18584834039211273,0.11575911939144135
1772794876321692700,5.122692626953125,-0.10010289400815964,-0.19421494007110596,0.16382811963558197
1772794876331736800,5.13273681640625,-0.064540334045887,-0.1694326400756836,0.20699740946292877
1772794876341781800,5.14278173828125,-0.018747804686427116,-0.1164354532957077,0.2513830065727234
1772794876351825700,5.15282568359375,0.03664533048868179,-0.047219157218933105,0.2831338047981262
1772794876361870800,5.162870849609375,0.10121846944093704,0.016431190073490143,0.301714152097702
1772794876371914800,5.172914794921875,0.17187491059303284,0.06791163980960846,0.3058926463127136
1772794876381958700,5.182958740234375,0.23936927318572998,0.10248879343271255,0.29266953468322754
1772794876392003800,5.19300390625,0.2860296070575714,0.11416999995708466,0.26279523968696594
1772794876402048000,5.203048095703125,0.32120221853256226,0.11696099489927292,0.22110718488693237
1772794876412092700,5.2130927734375,0.3465481400489807,0.1173027828335762,0.17777955532073975
1772794876422136800,5.22313671875,0.3562676012516022,0.12295295298099518,0.13413114845752716
1772794876432181000,5.233180908203125,0.35201358795166016,0.12604668736457825,0.08428583294153214
1772794876442225700,5.2432255859375,0.33375227451324463,0.12906672060489655,0.04406890645623207
1772794876452269800,5.253269775390625,0.30799683928489685,0.13469712436199188,0.01386899035423994
1772794876462314800,5.263314697265625,0.280606210231781,0.13579700887203217,-0.016530994325876236
1772794876472358700,5.273358642578125,0.24605487287044525,0.12154024839401245,-0.05455048382282257
1772794876482402800,5.28340283203125,0.21620430052280426,0.09477920830249786,-0.09621591120958328
1772794876492447700,5.29344775390625,0.1894976645708084,0.07116900384426117,-0.14039960503578186
1772794876502491600,5.30349169921875,0.17006804049015045,0.05543983727693558,-0.1899557113647461
1772794876512536800,5.313536865234375,0.16092899441719055,0.052702486515045166,-0.22295933961868286
1772794876522580700,5.323580810546875,0.16348563134670258,0.05514939874410629,-0.24845431745052338
1772794876532626000,5.3336259765625,0.18391592800617218,0.06905865669250488,-0.25149279832839966
1772794876542669800,5.343669921875,0.22615870833396912,0.10009194165468216,-0.23896074295043945
1772794876552714000,5.3537138671875,0.27220618724823,0.1333637684583664,-0.21140439808368683
1772794876562758700,5.363758544921875,0.3237069249153137,0.15837031602859497,-0.18138737976551056
1772794876572802800,5.373802734375,0.3751765191555023,0.18853983283042908,-0.1508866250514984
1772794876582847700,5.38384765625,0.42761921882629395,0.22107169032096863,-0.12932060658931732
1772794876592891600,5.3938916015625,0.4810769259929657,0.26268506050109863,-0.12407730519771576
1772794876602935800,5.403935791015625,0.5301297307014465,0.3034692406654358,-0.11629395186901093
1772794876612980700,5.413980712890625,0.5766330361366272,0.3375227153301239,-0.11606054753065109
1772794876623024600,5.424024658203125,0.6149002313613892,0.35497841238975525,-0.12573367357254028
1772794876633069800,5.43406982421875,0.6433618068695068,0.3620178997516632,-0.14043109118938446
1772794876643113700,5.44411376953125,0.6716456413269043,0.36461928486824036,-0.16264371573925018
1772794876653159000,5.454158935546875,0.6999812722206116,0.35881757736206055,-0.18656714260578156
1772794876663202800,5.464202880859375,0.7336593270301819,0.33518466353416443,-0.2078748196363449
1772794876673247000,5.4742470703125,0.7528213858604431,0.2902982532978058,-0.23291851580142975
1772794876683292000,5.4842919921875,0.7651728391647339,0.2256268709897995,-0.2558392584323883
1772794876693335800,5.494335693359375,0.7705844044685364,0.15725652873516083,-0.26180973649024963
1772794876703380700,5.504380615234375,0.7778249979019165,0.09990963339805603,-0.25806134939193726
1772794876713424600,5.514424560546875,0.7760072946548462,0.050843868404626846,-0.24859413504600525
1772794876723468800,5.52446875,0.776159405708313,0.014111687429249287,-0.23315206170082092
1772794876733513700,5.534513671875,0.7815808653831482,-0.0019229375757277012,-0.21252429485321045
1772794876743557600,5.5445576171875,0.8003377318382263,-0.0017628814093768597,-0.2024729996919632
1772794876753602800,5.554602783203125,0.8312265872955322,0.007393806707113981,-0.19893088936805725
1772794876763646700,5.564646728515625,0.862701416015625,0.014383537694811821,-0.19762781262397766
1772794876773692000,5.57469189453125,0.8976190686225891,0.010527501814067364,-0.18373648822307587
1772794876783735800,5.58473583984375,0.9357994794845581,0.0015244195237755775,-0.16579744219779968
1772794876793780000,5.594780029296875,0.9775181412696838,0.010622149333357811,-0.13991694152355194
1772794876803825000,5.604824951171875,1.0130804777145386,0.0411723367869854,-0.1125127449631691
1772794876813868800,5.614868896484375,1.047078251838684,0.07980659604072571,-0.09551995992660522
1772794876823913700,5.624913818359375,1.0762214660644531,0.10628294199705124,-0.08560021221637726
1772794876833958000,5.6349580078125,1.1091622114181519,0.12791292369365692,-0.08635901659727097
1772794876844001800,5.645001708984375,1.139716386795044,0.1411467045545578,-0.08740536868572235
1772794876854046700,5.655046630859375,1.1578190326690674,0.1404646635055542,-0.08675338327884674
1772794876864090600,5.665090576171875,1.1657962799072266,0.12505722045898438,-0.08155781775712967
1772794876874135800,5.6751357421875,1.172837734222412,0.10243633389472961,-0.06552322208881378
1772794876884179700,5.6851796875,1.1655508279800415,0.08024473488330841,-0.047982312738895416
1772794876894225000,5.695224853515625,1.1544630527496338,0.050260741263628006,-0.023890826851129532
1772794876904268800,5.705268798828125,1.1347023248672485,0.03270438686013222,0.0056356405839324
1772794876914313000,5.71531298828125,1.1186996698379517,0.025965841487050056,0.02462766133248806
1772794876924358000,5.72535791015625,1.1034003496170044,0.025548791512846947,0.04436354711651802
1772794876934401800,5.73540185546875,1.0858615636825562,0.04085712134838104,0.05561332032084465
1772794876944446700,5.74544677734375,1.060692310333252,0.053263191133737564,0.07322240620851517
1772794876954491000,5.755490966796875,1.0362958908081055,0.06851314008235931,0.09526843577623367
1772794876964534800,5.76553466796875,1.0233595371246338,0.08566442877054214,0.11820783466100693
1772794876974579700,5.775579833984375,1.020338535308838,0.09882918745279312,0.1479511260986328
1772794876984623900,5.785623779296875,1.0179808139801025,0.10742214322090149,0.17281998693943024
1772794876994668800,5.795668701171875,1.0136795043945312,0.13069459795951843,0.18630021810531616
1772794877004712700,5.805712646484375,1.0215028524398804,0.16626590490341187,0.1861976832151413
1772794877014758000,5.8157578125,1.0275821685791016,0.18918341398239136,0.15903641283512115
1772794877024801800,5.8258017578125,1.0287081003189087,0.17762556672096252,0.10776017606258392
1772794877034846000,5.835845947265625,1.0172942876815796,0.11966590583324432,0.04484376311302185
1772794877044891000,5.845890869140625,0.9970617294311523,-0.004840325564146042,0.003486469155177474
1772794877054934800,5.855934814453125,0.9531131982803345,-0.1859573870897293,0.013833915814757347
1772794877064979700,5.865979736328125,0.8925571441650391,-0.37200769782066345,0.086085744202137
1772794877075024000,5.87602392578125,0.8311935663223267,-0.5263245105743408,0.204475998878479
1772794877085067800,5.88606787109375,0.7790265083312988,-0.6320370435714722,0.3594522774219513
1772794877095112400,5.896112548828125,0.7381036877632141,-0.7096933126449585,0.5487809181213379
1772794877105156600,5.906156494140625,0.7161049246788025,-0.74881511926651,0.7445339560508728
1772794877115201500,5.916201416015625,0.7119418382644653,-0.748388409614563,0.9322618842124939
1772794877125245700,5.92624560546875,0.7342681884765625,-0.6889961957931519,1.078067421913147
1772794877135290600,5.93629052734375,0.7651541829109192,-0.5682841539382935,1.1483769416809082
1772794877145334500,5.94633447265625,0.7975616455078125,-0.41292330622673035,1.1440589427947998
1772794877155378700,5.956378662109375,0.8399533033370972,-0.23332500457763672,1.0536686182022095
1772794877165423600,5.966423583984375,0.8941224813461304,-0.04752664640545845,0.8909376263618469
1772794877175467500,5.976467529296875,0.9436882138252258,0.14033865928649902,0.6931573748588562
1772794877185512400,5.986512451171875,0.9752969741821289,0.28745219111442566,0.5180979371070862
1772794877195556600,5.996556640625,1.0094528198242188,0.3972501754760742,0.3654467761516571
1772794877205600500,6.0066005859375,1.029689073562622,0.4795144200325012,0.2404579520225525
1772794877215645400,6.0166455078125,1.042360782623291,0.5403249859809875,0.14263741672039032
1772794877225689600,6.026689697265625,1.0383317470550537,0.5762395858764648,0.07650446891784668
1772794877235734500,6.036734619140625,1.0216282606124878,0.5901781916618347,0.032666850835084915
1772794877245778700,6.04677880859375,0.9945402145385742,0.5858534574508667,0.001481767394579947
1772794877255823600,6.05682373046875,0.960019588470459,0.5793875455856323,-0.019358236342668533
1772794877265867500,6.066867431640625,0.9241505265235901,0.5789148211479187,-0.0324961394071579
1772794877275911700,6.07691162109375,0.8959555625915527,0.5864638686180115,-0.046862877905368805
1772794877285956600,6.08695654296875,0.8728955388069153,0.5956712365150452,-0.05876800790429115
1772794877296000500,6.09700048828125,0.8577631115913391,0.5967638492584229,-0.07312658429145813
1772794877306045400,6.10704541015625,0.8549556136131287,0.5755661725997925,-0.08473556488752365
1772794877316089600,6.117089599609375,0.8543892502784729,0.5352147817611694,-0.09413240849971771
1772794877326133500,6.127133544921875,0.8595219850540161,0.4788825511932373,-0.10327956825494766
1772794877336178400,6.137178466796875,0.8689185976982117,0.37975600361824036,-0.11922203004360199
1772794877346222600,6.14722265625,0.8933688402175903,0.2586980164051056,-0.13276898860931396
1772794877356267500,6.157267578125,0.91690593957901,0.12152794748544693,-0.14199158549308777
1772794877366311400,6.1673115234375,0.942389190196991,-0.003074169857427478,-0.1368120014667511
1772794877376356600,6.177356689453125,0.9729048013687134,-0.09133037179708481,-0.14477495849132538
1772794877386400500,6.187400390625,0.9868326187133789,-0.14163082838058472,-0.14755024015903473
1772794877396444700,6.197444580078125,0.9740735292434692,-0.1726914793252945,-0.15086278319358826
1772794877406489600,6.207489501953125,0.9455968737602234,-0.18344879150390625,-0.17098163068294525
1772794877416533500,6.217533447265625,0.8999511003494263,-0.19217340648174286,-0.21381235122680664
1772794877426578400,6.227578369140625,0.8387562036514282,-0.20369477570056915,-0.27269694209098816
1772794877436622600,6.23762255859375,0.7708230018615723,-0.2177540361881256,-0.33991605043411255
1772794877446666500,6.24766650390625,0.6959282755851746,-0.21302957832813263,-0.3995460867881775
1772794877456711400,6.25771142578125,0.6283507347106934,-0.18730898201465607,-0.43989571928977966
1772794877466755600,6.267755615234375,0.5867239236831665,-0.14653652906417847,-0.4486130177974701
1772794877476800500,6.277800537109375,0.5682495832443237,-0.08696262538433075,-0.43128812313079834
1772794877486844400,6.287844482421875,0.5713438987731934,-0.012798652052879333,-0.3870546221733093
1772794877496889600,6.2978896484375,0.5890564918518066,0.060881637036800385,-0.3396556079387665
1772794877506933500,6.30793359375,0.6142950057983398,0.11802534759044647,-0.2923155426979065
1772794877516977700,6.317977783203125,0.6397041082382202,0.1493203192949295,-0.264133095741272
1772794877527022600,6.328022705078125,0.6679347157478333,0.15827332437038422,-0.25845256447792053
1772794877537066500,6.33806640625,0.6868769526481628,0.15986153483390808,-0.27093738317489624
1772794877547111400,6.348111328125,0.7032594084739685,0.15050211548805237,-0.2947327196598053
1772794877557155600,6.358155517578125,0.7197557091712952,0.13215290009975433,-0.31879839301109314
1772794877567199500,6.368199462890625,0.7269793152809143,0.10215399414300919,-0.3351464569568634
1772794877577244400,6.378244384765625,0.7267481684684753,0.07081922143697739,-0.33605292439460754
1772794877587288600,6.38828857421875,0.717957615852356,0.05101223289966583,-0.3199365437030792
1772794877597333500,6.39833349609375,0.695620596408844,0.031783781945705414,-0.29765796661376953
1772794877607377400,6.40837744140625,0.6790813207626343,0.017998995259404182,-0.27247485518455505
1772794877617422600,6.418422607421875,0.6578946113586426,0.010707423090934753,-0.24580346047878265
1772794877627466500,6.428466552734375,0.633353054523468,0.004313705023378134,-0.21281355619430542
1772794877637510700,6.4385107421875,0.6066012978553772,-0.0025170366279780865,-0.18266338109970093
1772794877647555600,6.4485556640625,0.5794399976730347,-0.006064101122319698,-0.1541592925786972
1772794877657599500,6.458599609375,0.5544281005859375,-0.0032302311155945063,-0.12535721063613892
1772794877667644400,6.46864453125,0.5239673852920532,-0.005253434646874666,-0.10193976759910583
1772794877677688600,6.4786884765625,0.4933412969112396,-0.015486844815313816,-0.09284326434135437
1772794877687732500,6.488732421875,0.46313944458961487,-0.03624964505434036,-0.08666899055242538
1772794877697777400,6.49877734375,0.43169865012168884,-0.042767949402332306,-0.08086545765399933
1772794877707821600,6.508821533203125,0.40539461374282837,-0.04206248000264168,-0.06206061318516731
1772794877717866800,6.51886669921875,0.38176608085632324,-0.042198508977890015,-0.041136786341667175
1772794877727910400,6.528910400390625,0.35408279299736023,-0.044907208532094955,-0.016650084406137466
1772794877737955600,6.53895556640625,0.33417052030563354,-0.043955400586128235,0.00204773573204875
1772794877747999500,6.54899951171875,0.31975802779197693,-0.035644471645355225,0.014873520471155643
1772794877758043600,6.559043701171875,0.30714187026023865,-0.02251354232430458,0.023265188559889793
1772794877768088600,6.569088623046875,0.2954274117946625,-0.013087018392980099,0.023526176810264587
1772794877778132500,6.579132568359375,0.28448686003685,-0.013406171463429928,0.027943139895796776
1772794877788177400,6.589177490234375,0.2719966173171997,-0.02595658414065838,0.03525032103061676
1772794877798221600,6.5992216796875,0.2560148537158966,-0.04058537632226944,0.04373037442564964
1772794877808265500,6.609265380859375,0.23522835969924927,-0.05496272072196007,0.04900556430220604
1772794877818310400,6.619310302734375,0.21213068068027496,-0.06953905522823334,0.05580016225576401
1772794877828354600,6.6293544921875,0.18513847887516022,-0.09489687532186508,0.06997910141944885
1772794877838399700,6.639399658203125,0.15541863441467285,-0.12225451320409775,0.09785500168800354
1772794877848443400,6.649443359375,0.13215512037277222,-0.144377663731575,0.13684821128845215
1772794877858488600,6.659488525390625,0.12033838033676147,-0.1618501842021942,0.17994087934494019
1772794877868532700,6.66953271484375,0.11992186307907104,-0.17598864436149597,0.22681064903736115
1772794877878576600,6.67957666015625,0.1325455754995346,-0.17884770035743713,0.2668999135494232
1772794877888621600,6.68962158203125,0.1485796719789505,-0.19117094576358795,0.2918268144130707
1772794877898665500,6.69966552734375,0.16761547327041626,-0.21834930777549744,0.29736030101776123
1772794877908710400,6.70971044921875,0.1897016018629074,-0.2512454688549042,0.288483202457428
1772794877918754600,6.719754638671875,0.22770081460475922,-0.2674421966075897,0.2674824893474579
1772794877928798500,6.729798583984375,0.26894649863243103,-0.2638642191886902,0.22923870384693146
1772794877938843400,6.739843505859375,0.31033098697662354,-0.25402191281318665,0.18619050085544586
1772794877948887600,6.749887451171875,0.3457252085208893,-0.23539072275161743,0.1364825963973999
1772794877958932700,6.7599326171875,0.3715455234050751,-0.1917342096567154,0.08228027075529099
1772794877968976400,6.769976318359375,0.38117843866348267,-0.1567104458808899,0.031326811760663986
1772794877979021600,6.780021484375,0.3604828417301178,-0.13606716692447662,-0.013982159085571766
1772794877989065700,6.790065673828125,0.323625773191452,-0.12724757194519043,-0.035250432789325714
1772794877999109600,6.800109619140625,0.27740076184272766,-0.12413614988327026,-0.008358691819012165
1772794878009154600,6.810154541015625,0.2324998825788498,-0.12171240150928497,0.07917062938213348
1772794878019198700,6.82019873046875,0.2007605880498886,-0.11254580318927765,0.20102302730083466
1772794878029243400,6.830243408203125,0.19514398276805878,-0.11156655848026276,0.31360524892807007
1772794878039287600,6.84028759765625,0.21101079881191254,-0.11810201406478882,0.38376227021217346
1772794878049331500,6.85033154296875,0.22169087827205658,-0.14002008736133575,0.4005303382873535
1772794878059376400,6.86037646484375,0.2353406548500061,-0.16749705374240875,0.3799750506877899
1772794878069420500,6.870420654296875,0.2371433526277542,-0.1899634748697281,0.33901217579841614
1772794878079465700,6.8804658203125,0.23489190638065338,-0.20668406784534454,0.2983323335647583
1772794878089510100,6.89051025390625,0.23239971697330475,-0.19719895720481873,0.2765743136405945
1772794878099554300,6.90055419921875,0.22270548343658447,-0.1498013585805893,0.2802444100379944
1772794878109599200,6.91059912109375,0.20400023460388184,-0.10314064472913742,0.2990947961807251
1772794878119643100,6.92064306640625,0.20862513780593872,-0.0591777078807354,0.3456774652004242
1772794878129688300,6.930688232421875,0.2345435619354248,0.014926613308489323,0.41244184970855713
1772794878139732200,6.940732177734375,0.2673913240432739,0.08329805731773376,0.4783374071121216
1772794878149777200,6.950777099609375,0.28956639766693115,0.10098570585250854,0.5500808358192444
1772794878159821300,6.9608212890625,0.2896750569343567,0.12099510431289673,0.6132403612136841
1772794878169865200,6.970865234375,0.29171422123908997,0.1452338546514511,0.646731972694397
1772794878179910100,6.98091015625,0.3235051929950714,0.14248068630695343,0.6498020887374878
1772794878189954300,6.990954345703125,0.41358980536460876,0.15032422542572021,0.6337863802909851
1772794878199999000,7.0009990234375,0.47646403312683105,0.1985238790512085,0.6057556867599487
1772794878210043100,7.011043212890625,0.4993797242641449,0.25676482915878296,0.5647440552711487
1772794878220087300,7.02108740234375,0.547803521156311,0.2811777889728546,0.4682576656341553
1772794878230132200,7.03113232421875,0.5561988353729248,0.32791173458099365,0.3439543545246124
1772794878240176000,7.041176025390625,0.5419026613235474,0.4105543792247772,0.2261657416820526
1772794878250221300,7.05122119140625,0.5916361212730408,0.44599440693855286,0.08553645759820938
1772794878260265200,7.06126513671875,0.6219461560249329,0.32601603865623474,-0.02665482833981514
1772794878270310100,7.07131005859375,0.6382542848587036,0.18700037896633148,-0.05801115185022354
1772794878280354300,7.081354248046875,0.6266459226608276,0.1118062436580658,-0.012933109886944294
1772794878290398200,7.091398193359375,0.5880945324897766,0.05019640177488327,0.040943436324596405
1772794878300443100,7.101443115234375,0.5396297574043274,-0.1074538379907608,0.07357212901115417
1772794878310487300,7.1114873046875,0.4769445061683655,-0.38409343361854553,0.06024087592959404
1772794878320532200,7.1215322265625,0.4250122904777527,-0.6611859798431396,0.04621743783354759
1772794878330576100,7.131576171875,0.37673211097717285,-0.8447722792625427,0.07511673122644424
1772794878340620300,7.141620361328125,0.32715898752212524,-0.9661250710487366,0.13634540140628815
1772794878350665200,7.151665283203125,0.28370630741119385,-1.0670263767242432,0.18433663249015808
1772794878360709000,7.161709228515625,0.2591589093208313,-1.1670055389404297,0.23274554312229156
1772794878370754300,7.17175439453125,0.24143798649311066,-1.221655249595642,0.27642109990119934
1772794878380798200,7.181798095703125,0.2533087134361267,-1.1815310716629028,0.3038010001182556
1772794878390843100,7.191843017578125,0.26273632049560547,-1.0907819271087646,0.31163308024406433
1772794878400887300,7.20188720703125,0.2838040292263031,-0.9623969793319702,0.2749262750148773
1772794878410931200,7.21193115234375,0.28943154215812683,-0.8632525205612183,0.22898943722248077
1772794878420976000,7.22197607421875,0.28836357593536377,-0.6819963455200195,0.17419080436229706
1772794878431020300,7.232020263671875,0.3226611018180847,-0.4946430027484894,0.1095883697271347
1772794878441065200,7.242065185546875,0.37717205286026,-0.2983066141605377,0.06385239958763123
1772794878451109000,7.252109130859375,0.43301746249198914,-0.07614359259605408,0.008757726289331913
1772794878461153300,7.2621533203125,0.48386409878730774,0.10830838233232498,-0.044088803231716156
1772794878471198200,7.2721982421875,0.5514655113220215,0.29350194334983826,-0.11055651307106018
1772794878481242000,7.2822421875,0.5983303189277649,0.4658038914203644,-0.15195266902446747
1772794878491287300,7.292287353515625,0.6337679624557495,0.6424849033355713,-0.19702905416488647
1772794878501331500,7.30233154296875,0.6683821082115173,0.7243120074272156,-0.22764620184898376
1772794878511375000,7.312375,0.688585102558136,0.7484628558158875,-0.23491981625556946
1772794878521420300,7.322420166015625,0.7049142718315125,0.722842812538147,-0.21770818531513214
1772794878531464200,7.332464111328125,0.7166489958763123,0.6815630197525024,-0.1845528930425644
1772794878541509000,7.342509033203125,0.7380242347717285,0.6413000822067261,-0.1306859701871872
1772794878551553300,7.35255322265625,0.7629013657569885,0.5896174311637878,-0.08424975723028183
1772794878561598200,7.36259814453125,0.7869048714637756,0.530509352684021,-0.05091755464673042
1772794878571642000,7.37264208984375,0.8018531799316406,0.48402249813079834,-0.02756403014063835
1772794878581686300,7.382686279296875,0.8128079175949097,0.45901569724082947,-0.010709181427955627
1772794878591731200,7.392731201171875,0.8355396389961243,0.4530574083328247,0.003975221887230873
1772794878601775000,7.402775146484375,0.8621962666511536,0.4606724977493286,0.01756288856267929
1772794878611820300,7.4128203125,0.8861748576164246,0.4585598111152649,0.035460662096738815
1772794878621864200,7.4228642578125,0.9055559635162354,0.4383217692375183,0.050118058919906616
1772794878631909000,7.4329091796875,0.9335420727729797,0.39763879776000977,0.06293345987796783
1772794878641953300,7.442953369140625,0.9607973098754883,0.36180707812309265,0.08281393349170685
1772794878651997400,7.45299755859375,0.9824623465538025,0.34432822465896606,0.11021386831998825
1772794878662042000,7.4630419921875,0.9911481142044067,0.32186540961265564,0.14140327274799347
1772794878672086300,7.473086181640625,0.9881994724273682,0.2898222506046295,0.1743798702955246
1772794878682131200,7.483131103515625,0.9839262366294861,0.26933950185775757,0.21860282123088837
1772794878692175000,7.493175048828125,0.9817144870758057,0.23322731256484985,0.2495679259300232
1772794878702219300,7.50321923828125,0.9785417318344116,0.17744910717010498,0.2658301591873169
1772794878712264200,7.51326416015625,0.9780381321907043,0.12982991337776184,0.2782681882381439
1772794878722308000,7.52330810546875,0.9754183888435364,0.10974079370498657,0.27766698598861694
1772794878732353300,7.533353271484375,0.970816433429718,0.09863994270563126,0.2601556181907654
1772794878742397200,7.543397216796875,0.9644117951393127,0.09029572457075119,0.23109759390354156
1772794878752441000,7.553441162109375,0.955199658870697,0.10348902642726898,0.20354080200195312
1772794878762486300,7.563486328125,0.9551975727081299,0.15238305926322937,0.18852323293685913
1772794878772530400,7.573530517578125,0.946742832660675,0.23412932455539703,0.1777222603559494
1772794878782575000,7.5835751953125,0.9414991140365601,0.3002234995365143,0.16093727946281433
1772794878792619300,7.593619384765625,0.9455005526542664,0.36995863914489746,0.14881643652915955
1772794878802664200,7.603664306640625,0.9449425339698792,0.452835351228714,0.14755471050739288
1772794878812708000,7.6137080078125,0.9251983761787415,0.550295352935791,0.20270930230617523
1772794878822752300,7.623752197265625,0.9324794411659241,0.46252983808517456,0.22680102288722992
1772794878832797200,7.633797119140625,0.9707064628601074,0.31356725096702576,0.23260749876499176
1772794878842841000,7.643841064453125,0.9966654181480408,0.20503370463848114,0.24358229339122772
1772794878852886300,7.65388623046875,0.9926528334617615,0.1291828751564026,0.24419854581356049
1772794878862930200,7.66393017578125,0.9728392362594604,0.10102959722280502,0.25736886262893677
1772794878872974000,7.67397412109375,0.9486806392669678,0.08451293408870697,0.2726823091506958
1772794878883019300,7.684019287109375,0.8988956809043884,0.016802649945020676,0.26203015446662903
1772794878893063400,7.6940634765625,0.8492650389671326,-0.08339052647352219,0.22195623815059662
1772794878903108000,7.704108154296875,0.8185386657714844,-0.15321052074432373,0.17990878224372864
