time,seconds_elapsed,z,y,x
1772794143230281500,0.071281494140625,0.13065291730463505,0.07313537883758545,0.1255504978653975
1772794143240326400,0.081326416015625,0.22641923014521598,0.03017364100012928,0.09303051293483003
1772794143250371600,0.09137158203125,0.31267595636248585,-0.006008410101942718,0.04323688325071707
1772794143260416300,0.101416259765625,0.3477273959994316,-0.011431458063982427,0.04183403071546927
1772794143270461400,0.11146142578125,0.319917598053813,-0.05121116833183914,0.015556703034136444
1772794143280506400,0.12150634765625,0.23519933345019817,-0.08383764584418386,0.0434771034810692
1772794143290551600,0.131551513671875,0.1394727680981159,-0.092906429897435,0.05470688322680071
1772794143300596500,0.141596435546875,0.03718611357808113,-0.06254106571748852,0.09059581486750394
1772794143310641400,0.151641357421875,-0.03861994577348232,0.009042918959632515,0.09833528654575348
1772794143320686300,0.161686279296875,-0.11085399185717106,0.0346563759047538,0.10110149985607712
1772794143330731300,0.171731201171875,-0.16023966179490087,0.045171522841416296,0.07167493262989447
1772794143340776400,0.1817763671875,-0.18063538409173488,0.04672711825296282,0.03509279456064105
1772794143350821400,0.1918212890625,-0.17189269018769263,0.04269903178066015,0.025122294161003082
1772794143360866300,0.2018662109375,-0.14419804305434225,0.046643750818446274,0.018943386330362407
1772794143370911200,0.2119111328125,-0.14016542653739453,0.021420279571600257,0.0027287491104565557
1772794143380956000,0.221955810546875,-0.12447393640875816,0.017132957641221584,-0.025648509992193428
1772794143391001000,0.2320009765625,-0.12109364632070063,0.011629903245531021,-0.04520842078570276
1772794143401046000,0.2420458984375,-0.0929272900223732,0.014403715340420602,-0.07354154848568141
1772794143411091200,0.25209130859375,-0.05284370143711566,0.04152553102187812,-0.0582855088985525
1772794143421136100,0.26213623046875,0.025514965006709096,0.0461234167387709,-0.030351509184530005
1772794143431181000,0.27218115234375,0.0905658215880394,0.04802764292489737,0.0017843991987407206
1772794143441226000,0.28222607421875,0.13455343187451363,0.0849268293203786,0.05275661680870689
1772794143451271200,0.292271240234375,0.11544950295388698,0.12532397736683487,0.11875618894961662
1772794143461316000,0.302316162109375,0.09278525120317935,0.1169091637102887,0.10856030969573184
1772794143471361000,0.312361083984375,0.10216273587942123,0.10347593736983834,0.0974331318079494
1772794143481405000,0.322405029296875,0.09209200824201107,0.07964961956981569,0.08239367584725842
1772794143491450000,0.3324501953125,0.10553425813913345,0.03522336213774979,0.019720681712636724
1772794143501495000,0.3424951171875,0.10627134024202824,0.025264168583415448,-0.025770455871429294
1772794143511540000,0.3525400390625,0.09235328952670097,0.03583605067599564,-0.0020512425745371726
1772794143521585000,0.3625849609375,0.09848550867140292,0.06500124528594314,0.022006710290582848
1772794143531630000,0.372630126953125,0.07977905463576317,0.08334679358731954,0.04258682184414938
1772794143541675000,0.382675048828125,0.03923486280143261,0.0849180249594152,0.030069486505910754
1772794143551720200,0.39272021484375,0.02129237887561321,0.08406834932751953,0.01315069220517762
1772794143561764900,0.402764892578125,-0.01580079572200775,0.06386095267701894,-0.05882374396109953
1772794143571810000,0.41281005859375,-0.07640811689794064,0.06589041267801075,-0.11160048110922798
1772794143581855000,0.42285498046875,-0.09635667994916439,0.040139118164777755,-0.14023939595590346
1772794143591900200,0.432900146484375,-0.09586158990859985,-0.01294043785482645,-0.15682398986620827
1772794143601944800,0.44294482421875,-0.06460019020438194,-0.040160343615896994,-0.19340830162623895
1772794143611990000,0.452989990234375,-0.023334698358178137,-0.026217341122403738,-0.18483886366356164
1772794143622035000,0.463034912109375,-0.011699205622076988,0.0071709876079112285,-0.10199775457605718
1772794143632080100,0.473080078125,-0.016364274823665616,0.08514270056076348,0.02412287132749334
1772794143642125000,0.483125,-0.005927051961421966,0.16483962987102568,0.19570939990915356
1772794143652170000,0.493169921875,0.01466799229979515,0.21970062594730405,0.3295406915215775
1772794143662215000,0.50321484375,0.06039981590509414,0.2516416054135188,0.3525421393373981
1772794143672260000,0.513260009765625,0.07610533455908298,0.16973887315466998,0.2963015985362232
1772794143682305000,0.523304931640625,0.05489537326991558,0.10153210982568561,0.16890487001594154
1772794143692350200,0.53335009765625,-0.011335633006691931,0.01734053597729653,0.08201399234728887
1772794143702395000,0.543394775390625,-0.07610065838396549,-0.036387327883206304,0.015472056957986206
1772794143712440000,0.553440185546875,-0.09799392576217651,-0.048119230198487635,-0.06458514789887704
1772794143722485000,0.563485107421875,-0.06311550460457802,-0.00589366114847362,-0.154837346093636
1772794143732530200,0.5735302734375,-0.026349077743291854,0.04828242140356451,-0.1899504710562527
1772794143742574800,0.583574951171875,0.0034901802033185957,0.06432217698059976,-0.24939285837234929
1772794143752620000,0.5936201171875,0.04079845885634422,0.0603151698289439,-0.30473880668766795
1772794143762665000,0.6036650390625,0.01315524964928627,0.04369136728625744,-0.32050073170401155
1772794143772710100,0.613710205078125,-0.033228315863013266,0.020139409448206424,-0.29098714378150176
1772794143782755000,0.623755126953125,-0.04390285461246967,0.017419811758585275,-0.2763837046178989
1772794143792800000,0.633800048828125,-0.0033078093737363813,0.005184599563665688,-0.2534889503132552
1772794143802845000,0.643844970703125,0.027389526706933974,0.026573570681549606,-0.19888033982915804
1772794143812890000,0.65389013671875,0.05538169548213481,0.039022133366204796,-0.13412889545266515
1772794143822935000,0.66393505859375,0.06603168431222438,0.05891308447867632,-0.043069819588121026
1772794143832980000,0.67397998046875,0.05797112745344638,0.07150489155892283,0.02284806105212774
1772794143843025000,0.68402490234375,0.06887772139310837,0.06521306140571832,0.06172426487531047
1772794143853070000,0.694070068359375,0.12078384971916675,0.03265446149781346,0.11192647992689161
1772794143863114200,0.7041142578125,0.1779687952309847,0.011127908540144562,0.1399051864323206
1772794143873159000,0.714158935546875,0.2190899101704359,0.021217815802060065,0.11355355140576139
1772794143883204000,0.7242041015625,0.20305413664877414,0.011109349970147012,0.11310093966689891
1772794143893249000,0.7342490234375,0.14913608397841452,-0.004879771398194134,0.09553623954490757
1772794143903294200,0.744294189453125,0.061788639914989466,-0.0011719298562034963,0.05487265454803127
1772794143913339100,0.754339111328125,0.00931669439971447,-0.023686434405297038,-0.0018638964590267277
1772794143923384000,0.764384033203125,-0.01653553973734379,-0.028636896419525146,-0.030622318632679522
1772794143933429000,0.774428955078125,0.009335983622074127,-0.03868139363713562,-0.0716105164910201
1772794143943474200,0.78447412109375,0.06692775636911392,-0.01296886023171246,-0.11439066895018331
1772794143953519000,0.79451904296875,0.0938987654030323,0.0389796459313482,-0.09008701596199534
1772794143963564000,0.80456396484375,0.0501321043908596,0.07207556758634745,-0.05317938139857724
1772794143973609000,0.81460888671875,-0.03228957370817661,0.08754157839603721,-0.02416522861489793
1772794143983654100,0.824654052734375,-0.0715466483414173,0.07541654857732355,-0.012778554974135476
1772794143993699000,0.834698974609375,-0.07523147433400154,0.05198197004124522,-0.03633242392477114
1772794144003744000,0.844743896484375,-0.061437926781177515,0.00009629998132586479,-0.0178427772778552
1772794144013789000,0.854788818359375,-0.01848433571755886,-0.0036566228114068506,-0.017521084742550735
1772794144023834000,0.864834228515625,0.00756079064309597,0.014839111083000898,-0.01172833581843879
1772794144033879000,0.874879150390625,0.03974982658624649,0.050536082081869244,0.0023696357577689922
1772794144043924000,0.884924072265625,0.06943710884153842,0.10816935588307679,0.026593188697472212
1772794144053969200,0.89496923828125,0.1186550209969282,0.10939750943854451,0.09363343813088722
1772794144064014000,0.90501416015625,0.12532909193336964,0.10804697161242365,0.1634223652179353
1772794144074059000,0.91505908203125,0.10576397524178027,0.1385355603132397,0.1838463454948738
1772794144084104000,0.92510400390625,0.06606324849426747,0.14833243944533167,0.23164441744759678
1772794144094149000,0.935149169921875,0.044191608425974846,0.17803521153070032,0.26011136412769553
1772794144104194000,0.945194091796875,0.012760112851858138,0.17572167389132082,0.25109003594536333
1772794144114239000,0.955239013671875,-0.012101356682181357,0.15952311102338135,0.2047616164200939
1772794144124284000,0.965283935546875,0.01209726502895355,0.1169611496258527,0.17125857526892796
1772794144134329000,0.9753291015625,0.05198737686872482,0.07840769321732223,0.10369042037073523
1772794144144374000,0.9853740234375,0.11419687254428863,0.023916662964597345,0.037000509611796586
1772794144154419000,0.9954189453125,0.19117723637223244,-0.007074614561349153,-0.04665923608194571
1772794144164463900,1.0054638671875,0.2442249359488487,-0.02599003517255187,-0.09041552639715374
1772794144174509000,1.015509033203125,0.18592939884662626,-0.055895417157933114,-0.07467758504459635
1772794144184554000,1.025553955078125,0.050348962011933326,-0.061515960453450674,-0.02955092882479075
1772794144194599200,1.03559912109375,-0.09292202932536602,-0.05765650854632258,0.029656035450368653
1772794144204643800,1.045643798828125,-0.19292203421294687,-0.06662680066116154,0.07297941195773891
1772794144214689000,1.05568896484375,-0.25149405016899107,-0.04361976335477084,0.11524555961331352
1772794144224734000,1.06573388671875,-0.2620411631464958,-0.058219951115362344,0.1273838051066268
1772794144234779100,1.075779052734375,-0.23879005141854284,-0.04947601510230452,0.14410473874770105
1772794144244823000,1.085822998046875,-0.18693653006255626,-0.00893587838858366,0.14160531401424667
1772794144254868000,1.095867919921875,-0.15121055216491222,0.0015782456347718833,0.12501191574297846
1772794144264913200,1.1059130859375,-0.10060089339017868,-0.0019437544789165258,0.13425422059907577
1772794144274958000,1.1159580078125,-0.0678822806149721,-0.03841609376445412,0.13461634104289114
1772794144285003000,1.1260029296875,-0.04538344855904579,-0.05848959836959838,0.08725835014102049
1772794144295048000,1.1360478515625,0.007310615274310111,-0.029591785991564392,0.0517170446278993
1772794144305093000,1.146093017578125,0.09666764559447764,-0.04552482979111373,0.03570319981025532
1772794144315138000,1.156137939453125,0.18786825795471668,-0.02718859730735421,0.01164025110960938
1772794144325183200,1.166183349609375,0.24791326907277106,-0.01677000608034432,-0.030525093919457867
1772794144335228000,1.176227783203125,0.25106851823329923,0.003214285871386528,-0.06508235683129168
1772794144345273000,1.186273193359375,0.21708207747936248,0.0625975451450795,-0.10565000260644591
1772794144355318000,1.196318115234375,0.19516542922556399,0.07505538711473346,-0.12038325129533185
1772794144365363200,1.20636328125,0.12347732658684253,0.10402005418390035,-0.09767677697124891
1772794144375407900,1.216407958984375,0.08818857106268406,0.10646562070511281,-0.05674089153874665
1772794144385452500,1.22645263671875,0.04276128336191177,0.08046257992051542,-0.013159213438350706
1772794144395497500,1.23649755859375,-0.019566870257258413,0.05237900653481483,-0.0053131578467786305
1772794144405542700,1.246542724609375,-0.0590291120737791,0.011859729946032165,-0.03228692509336397
1772794144415587300,1.25658740234375,-0.10771744739711284,0.004183057838305831,-0.0660961826494895
1772794144425632500,1.266632568359375,-0.1140372980684042,-0.004468669846653938,-0.07480376870753243
1772794144435677400,1.276677490234375,-0.09336042074263096,-0.01771897736825049,-0.05324778872597962
1772794144445722600,1.28672265625,-0.051906712847948074,-0.02491604926548898,-0.02312218811865896
1772794144455767300,1.296767333984375,-0.0007043488770723343,-0.02148285994641483,-0.007939871354866773
1772794144465812500,1.3068125,0.03453121515512466,-0.0006848404590040444,0.016335943778324872
1772794144475857400,1.316857421875,0.04105915561914444,0.019017419680953024,0.027045699971634894
1772794144485902600,1.326902587890625,0.027870003700256347,0.021730624162405728,-0.005706139219738542
1772794144495947500,1.336947509765625,0.04357552235424518,-0.0019574176780879494,-0.0835439418609254
1772794144505992400,1.346992431640625,0.0654343029409647,-0.028133476942032574,-0.10921546740252525
1772794144516037400,1.357037353515625,0.11051204655170441,-0.026802009142562744,-0.1409966349308379
1772794144526082600,1.36708251953125,0.13678396740555762,-0.011061492240428924,-0.13451801350126041
1772794144536127500,1.37712744140625,0.1215045652091503,0.004908449503406882,-0.14637083878247067
1772794144546172400,1.38717236328125,0.08637538416087627,0.04622070310078561,-0.10861295319842174
1772794144556217300,1.39721728515625,0.0606938304156065,0.04251096186265349,-0.07388738451497628
1772794144566262500,1.407262451171875,0.0496790999263525,0.028043168310075996,-0.05248743534535169
1772794144576307500,1.417307373046875,0.03806991067528724,0.020887012945115566,-0.002448890989460051
1772794144586352600,1.4273525390625,0.030637130326032637,0.05020933434553444,0.012802819482423365
1772794144596397300,1.437397216796875,0.05505027157068252,0.07276289226338267,0.03141169489510357
1772794144606442500,1.4474423828125,0.08486848672926425,0.06409114470370113,0.0494549723142758
1772794144616486700,1.457486572265625,0.06983224563896656,0.06107873807996511,0.02969533769758418
1772794144626531600,1.467531494140625,0.0687672467559576,0.030622809539735316,0.012021752107329666
1772794144636576500,1.477576416015625,0.06088146194219589,-0.025257117788121102,-0.013556286464538424
1772794144646621400,1.487621337890625,0.06562661064267158,-0.05513743839748204,-0.05538516608085483
1772794144656666600,1.49766650390625,0.050207507714629174,-0.06432692622095346,-0.04842427755966782
1772794144666711600,1.507711669921875,-0.0008504793494939803,-0.028756358080729842,-0.026051738764531908
1772794144676756500,1.517756591796875,-0.03132569711208343,-0.0013914543583989141,-0.004861815616395324
1772794144686801400,1.527801513671875,-0.06875672536194324,-0.005266323030367493,0.03187213374739513
1772794144696846600,1.5378466796875,-0.05614215846061706,-0.011037965234369038,0.006252758518140763
1772794144706891500,1.5478916015625,0.001782207241654396,0.005435249856486917,-0.019459756620973347
1772794144716936700,1.557936767578125,0.07019406468868256,0.04504888284243643,0.0030809052826836704
1772794144726981400,1.5679814453125,0.10169804097712039,0.05212452031709253,0.0045243455566465855
1772794144737026600,1.578026611328125,0.057227615609765047,0.023345877339318394,0.012630750851146877
1772794144747071500,1.588071533203125,0.007379004335403442,0.022951617324724793,0.00028120982786640524
1772794144757116700,1.59811669921875,-0.05700199016034603,0.015217881267517804,-0.01185247822133824
1772794144767161600,1.60816162109375,-0.11396072570085525,-0.016705781737715007,-0.025442246830370274
1772794144777206500,1.61820654296875,-0.11204057129323482,-0.003557619416341185,-0.06703346349960193
1772794144787251500,1.62825146484375,-0.1259182899981737,0.006973857600614428,-0.0275078558569774
1772794144797296600,1.638296630859375,-0.1317880588144064,0.0379933383077383,-0.0074839990798383944
1772794144807341600,1.648341552734375,-0.08025602449774742,0.03029920360855758,0.005830934643186628
1772794144817386500,1.658386474609375,-0.008854922106862067,0.04569689842239022,0.028341731131542473
1772794144827431400,1.668431396484375,0.04130407029092312,0.057575040807947515,0.024864629605505614
1772794144837476600,1.6784765625,0.07204699907898902,0.05553622845672071,0.035444311412051316
1772794144847521500,1.688521484375,0.04758008182048797,0.07021744556427001,0.047971729752887035
1772794144857566700,1.698566650390625,0.009783142867684363,0.09253902135714888,0.06517106716120616
1772794144867611400,1.708611328125,-0.004393851044774055,0.09261588598564266,0.08101482524210586
1772794144877656600,1.718656494140625,-0.006191840377449989,0.06911065336614847,0.045062399911135434
1772794144887701500,1.728701416015625,0.026571196061372756,0.040629312834516165,0.007969261846132576
1772794144897746700,1.73874658203125,0.07926642893850804,0.029393413875252006,-0.03715970049519091
1772794144907791400,1.748791259765625,0.11137129372954369,0.030523440818488595,-0.04287670816881582
1772794144917836500,1.75883642578125,0.11691548385322094,0.03658084116131067,-0.038251824847143144
1772794144927881500,1.768881591796875,0.10037702150642872,0.03620667408667504,-0.02551648111036047
1772794144937926700,1.7789267578125,0.11472586485445499,0.031325916307792065,0.0028649792433716355
1772794144947971600,1.7889716796875,0.1157750816464424,0.023495295747369527,0.0009785809748806059
1772794144958015500,1.799015380859375,0.13768179302811623,-0.007416632932052016,-0.01750727084632963
1772794144968060400,1.809060302734375,0.1324672732502222,-0.029393560005724427,-0.04711816339716315
1772794144978105600,1.819105712890625,0.16315934863388537,-0.02835318410731852,-0.0664330864536576
1772794144988150500,1.829150634765625,0.18440730384588241,-0.040885698748379946,-0.09729653634885325
1772794144998195500,1.839195556640625,0.15939210505485535,-0.006677358872070908,-0.10676420179288834
1772794145008240400,1.849240478515625,0.11085574542284012,0.011587781136855482,-0.09233639319082722
1772794145018285600,1.85928564453125,0.11114742184579372,0.015124869221821427,0.0068595287722535425
1772794145028330500,1.86933056640625,0.10424071119725703,0.0648598640538752,0.11029496973492205
1772794145038375400,1.87937548828125,0.0880687440752983,0.09724866035282612,0.19575106536010278
1772794145048420400,1.88942041015625,0.06071896485686302,0.07070917460396886,0.3075806059848517
1772794145058465500,1.899465576171875,0.020821254232525826,0.051578028882853684,0.3592917962606996
1772794145068510500,1.909510498046875,-0.0707236415207386,0.08010587543733418,0.3304630670635029
1772794145078555600,1.9195556640625,-0.17778642440140247,0.1131826174678281,0.33032066291812806
1772794145088600300,1.929600341796875,-0.28096389028131963,0.10939356391578912,0.28215207715258
1772794145098645500,1.9396455078125,-0.3165788090199232,0.09074249332919716,0.21908227485325185
1772794145108690400,1.9496904296875,-0.32085575568675995,0.08388090046402066,0.07078403907162137
1772794145118735600,1.959735595703125,-0.23946985037624835,0.09453552893660962,-0.021473114870535208
1772794145128780500,1.969780517578125,-0.14775252066552638,0.07619432801678776,-0.08586674965214915
1772794145138825500,1.979825439453125,-0.024102760121226308,0.05068458717446774,-0.12293072555474936
1772794145148870400,1.989870361328125,0.06419394749104976,0.04887392102330923,-0.1544094760703854
1772794145158915600,1.99991552734375,0.16477204452753066,0.03804280347265303,-0.1893658761013299
1772794145168960500,2.00996044921875,0.22756372400522232,0.018324980437383055,-0.161759765767958
1772794145179005400,2.02000537109375,0.26036650793254373,-0.012135624277964234,-0.1351265829868149
1772794145189050400,2.03005029296875,0.2708586758524179,-0.06356847253646701,-0.0971769833561033
1772794145199095600,2.040095458984375,0.24500351910591123,-0.0720069958621636,-0.0942363633269444
1772794145209140500,2.050140380859375,0.20490940912663935,-0.08912271010763943,-0.07272942838519811
1772794145219185700,2.060185546875,0.094565120357275,-0.09436451975125819,-0.07565717066647484
1772794145229230300,2.070230224609375,0.01984802528619766,-0.09000833383575081,-0.0900665850953199
1772794145239275500,2.080275634765625,-0.046371875074505804,-0.09080518330186604,-0.10829670858979225
1772794145249320400,2.090320556640625,-0.03093991266489029,-0.09040368982888758,-0.09496532605546526
1772794145259365600,2.10036572265625,0.000018120178580284118,-0.09177596456278116,-0.08279385414598509
1772794145269409500,2.110409423828125,0.06191080498993396,-0.09662621760554611,-0.08637989593921229
1772794145279454500,2.120454345703125,0.09897826062440872,-0.12411679353415965,-0.042389171247044576
1772794145289499600,2.130499755859375,0.11605682119727134,-0.11644728181958199,-0.009743852036911993
1772794145299544600,2.140544677734375,0.07676292168498039,-0.08766114965509622,-0.04090866863201372
1772794145309589500,2.150589599609375,-0.0319938056319952,-0.020961247225105763,-0.033403471500519664
1772794145319634400,2.160634521484375,-0.17602935160100458,0.056553077349066734,0.029876484684459862
1772794145329679600,2.1706796875,-0.2782277433156967,0.11490089262779801,0.08790847547966986
1772794145339724500,2.180724609375,-0.31464111895561214,0.11920542142130434,0.09340183046525344
1772794145349769500,2.19076953125,-0.27506372632682324,0.12552826776728032,0.090612126681488
1772794145359814400,2.200814453125,-0.18280512934625148,0.10368428289089351,0.03719966717939824
1772794145369859600,2.210859619140625,-0.08451017481088638,0.06498060435671359,-0.02730051498292014
1772794145379905000,2.220905029296875,0.047397710990905756,0.042607992496341465,-0.004293368078675121
1772794145389949700,2.23094970703125,0.1895136870741844,0.015515475974604486,-0.03325938685471192
1772794145399995000,2.240994873046875,0.2958306200236082,0.03721183254122734,-0.040061102758813645
1772794145410039800,2.251039794921875,0.36702246357798574,0.03901530176661908,-0.013804032414220273
1772794145420085000,2.2610849609375,0.40150750150382514,0.0318270707629621,0.02781270228875801
1772794145430129700,2.271129638671875,0.3635100715428591,0.02248904131427407,0.023195801344141363
1772794145440174800,2.2811748046875,0.3182423583179712,0.032632468861714004,0.013238544018566608
1772794145450219800,2.2912197265625,0.23094226052761077,0.014175605672970413,-0.010676675907615571
1772794145460265000,2.301264892578125,0.14959551818370817,-0.013468114990741013,-0.0004382087541744113
1772794145470310000,2.311309814453125,0.10227964025735854,-0.03426386945582926,0.001979483379423618
1772794145480354800,2.321354736328125,0.01891512835025787,-0.040240642310492694,0.027907413101196286
1772794145490399700,2.331399658203125,-0.05162614234089851,-0.010894611240923405,0.05395823855027556
1772794145500445000,2.34144482421875,-0.10265373426675796,0.009603621582314372,0.04485062032397836
1772794145510489900,2.35148974609375,-0.14972645108699797,0.03998608302753418,0.023241174855828283
1772794145520534800,2.36153466796875,-0.1734054328382015,0.045572029933705925,0.06118723995573818
1772794145530579700,2.371579833984375,-0.19361761526167393,0.05279383441340178,0.0656375704281032
1772794145540625000,2.381625,-0.19390636907517908,0.05499620329588651,0.03415403413949534
1772794145550669800,2.391669921875,-0.17307751605808733,0.014154124493524432,0.0017157726756297051
1772794145560715000,2.401715087890625,-0.13348726394772528,0.004624371865019202,0.0011547777920030058
1772794145570759700,2.411759765625,-0.036029929280281064,-0.013926453217491508,0.02658558991290629
1772794145580803800,2.421803955078125,0.03912555720806122,-0.03111450204681605,0.046288452841062096
1772794145590849000,2.43184912109375,0.09500234273076057,-0.04013294415231794,0.06011522681005299
1772794145600894000,2.44189404296875,0.14433715926408766,-0.023103775679133833,0.1246773500263691
1772794145610939000,2.45193896484375,0.16331249336898326,0.013080065521225332,0.16343860396668314
1772794145620983800,2.46198388671875,0.13126082006990908,0.018530841740407047,0.1733814126417972
1772794145631029000,2.472029052734375,0.0990875662177801,0.002087145004980266,0.16938251573136076
1772794145641074000,2.482073974609375,0.08072598009705544,-0.00997011680714786,0.1199831825944595
1772794145651118800,2.492118896484375,0.07992167797684668,0.006576784574426711,0.045234906933829186
1772794145661163800,2.502163818359375,0.09081190530359745,0.006323796194046736,-0.015528883445449173
1772794145671209000,2.512208984375,0.090064886328578,-0.002872157902829349,-0.06097049193251878
1772794145681254000,2.52225390625,0.08125789501667022,-0.01355787563342601,-0.13062312495457007
1772794145691299000,2.532299072265625,0.040895489490032196,-0.031140184477344155,-0.17588433537343515
1772794145701343700,2.54234375,0.014292729246616363,-0.0323259601958096,-0.17856948280418292
1772794145711389000,2.552388916015625,0.029731705918908117,-0.04356697372160852,-0.16896191569911315
1772794145721433900,2.562433837890625,0.03965396499633789,-0.056773990090750154,-0.20088665641658007
1772794145731479000,2.57247900390625,0.08448328680396079,-0.08112162835113704,-0.2390691971534863
1772794145741524000,2.58252392578125,0.09374737423360348,-0.12932404332105069,-0.2583279878422618
1772794145751569000,2.59256884765625,0.08287292899787425,-0.13349168439451603,-0.2486776775740087
1772794145761613800,2.60261376953125,0.08356792552471161,-0.1377883952077478,-0.24923436160869894
1772794145771659000,2.612658935546875,0.07064999176263809,-0.08125131914541125,-0.16237119393087923
1772794145781704000,2.622703857421875,0.04112403754889965,-0.03080876056589186,-0.08558277247846126
1772794145791748900,2.632748779296875,0.0030436054795980453,0.017561594849452376,-0.021219605900347233
1772794145801793800,2.642793701171875,-0.031926585614681244,0.019563911115191877,0.057265755663067096
1772794145811839000,2.6528388671875,-0.09359072236716746,0.015562931845523416,0.08086597308963536
1772794145821884000,2.6628837890625,-0.11744798329472542,0.02430474896673113,0.038644824486412106
1772794145831929000,2.67292919921875,-0.12265899594128131,0.012088497200608252,0.06685363168697804
1772794145841973800,2.682973876953125,-0.08438859425783157,-0.0035573636880144475,0.08988317308612168
1772794145852019000,2.69301904296875,-0.057711599734425544,0.01658639314174652,0.15314298153221606
1772794145862063900,2.70306396484375,-0.08648527427613735,0.0658035746447742,0.19938027044162154
1772794145872109000,2.713109130859375,-0.11431085431277752,0.08558021519519388,0.2656022166289389
1772794145882152700,2.723152587890625,-0.14823650479018688,0.08692300810627639,0.29019465996325017
1772794145892198000,2.733197998046875,-0.14259469951093195,0.0808945415969938,0.23953465924076733
1772794145902242800,2.743242919921875,-0.08658347395360469,0.05334876488242298,0.18268891908805815
1772794145912288000,2.7532880859375,0.023562661895155906,0.0375214830122888,0.09884824103657155
1772794145922332700,2.763332763671875,0.09020634062588215,0.017882058975473045,0.03248440216053277
1772794145932377900,2.7733779296875,0.08879238217473029,-0.007980513892509042,-0.04126059647537768
1772794145942422800,2.7834228515625,0.052395373147726056,-0.007790105886943638,-0.08876432512402534
1772794145952468000,2.793468017578125,0.01333995856642723,-0.0204092758981511,-0.0977588748972863
1772794145962513000,2.803512939453125,-0.0022176760494709014,-0.007638130195625126,-0.10311276661325246
1772794145972557800,2.813557861328125,-0.034871406894922255,0.026954021366499364,-0.0717518885899335
1772794145982602800,2.823602783203125,-0.046888007903099056,0.051542519178055225,-0.04794778262171894
1772794145992648000,2.83364794921875,-0.0252490075469017,0.05918733484279364,0.025434885507822035
1772794146002692900,2.84369287109375,0.024683774879574773,0.0618759528722614,0.07539145066868513
1772794146012737800,2.85373779296875,0.03766366796195507,0.056989605602808295,0.10723119825012982
1772794146022782700,2.86378271484375,0.07448036370575428,0.06838011060189456,0.15690854461081324
1772794146032828000,2.873827880859375,0.0823398450344801,0.04885002869106829,0.18103881379347295
1772794146042872800,2.883872802734375,0.07933189539015292,0.04086038164403289,0.18595365650504828
1772794146052918000,2.89391796875,0.06753799722194671,0.07560348598416894,0.1720309296146035
1772794146062962700,2.903962646484375,0.03749591017961502,0.0853406708182767,0.15721929106041788
1772794146073007900,2.9140078125,0.021059154641628264,0.0883414600694552,0.1431757142692804
1772794146083052800,2.924052734375,0.013876549661159514,0.10677797458991407,0.10225987611096352
1772794146093098000,2.934097900390625,0.0269178175419569,0.08051361598800867,0.07129943211469798
1772794146103143000,2.944142822265625,0.034873160460591315,0.07926131437197327,-0.0025446429815143344
1772794146113187800,2.954187744140625,0.03265782249867916,0.1128377860855311,-0.08653342426680027
1772794146123232800,2.964232666015625,0.06367723014056682,0.10825900692790746,-0.09603132045231759
1772794146133278000,2.97427783203125,0.10071545968055724,0.1114592277413234,-0.11723298883717506
1772794146143323000,2.984322998046875,0.16240063922107217,0.11609623989220708,-0.14703885597083716
1772794146153367800,2.994367919921875,0.1814139672487974,0.1069125242223963,-0.11433478317763655
1772794146163412700,3.004412841796875,0.13725158491730688,0.04670508908424526,-0.11447141516935079
1772794146173458000,3.0144580078125,0.12191665314137935,0.07343856303524225,-0.17595087953731417
1772794146183502000,3.024502197265625,0.14058219064474106,0.06300908508803695,-0.15852653773408382
1772794146193546800,3.034546630859375,0.14624094705879687,0.05681172828525304,-0.12715828012190758
1772794146203592000,3.044592041015625,0.13732348110973835,0.02024897076990455,-0.12707356098052114
1772794146213636900,3.054636962890625,0.1457470260620117,-0.04852952803242951,-0.08722568084727972
1772794146223682000,3.06468212890625,0.12946283073723316,-0.055963769686408336,-0.04554448433965444
1772794146233727000,3.07472705078125,0.09571721300184727,-0.012265607333183288,-0.0004559636065736413
1772794146243772000,3.08477197265625,0.04311199649572372,0.02122662016302347,0.06646426704321057
1772794146253816800,3.09481689453125,-0.020908347994089124,0.0629816856244579,0.08956354921031742
1772794146263862000,3.104862060546875,-0.06418576418459415,0.08526124890651553,0.0733969523832202
1772794146273907000,3.114906982421875,-0.0744704268336296,0.09179295223020016,0.052351205212436615
1772794146283951900,3.124951904296875,-0.12901333340406418,0.04383888599816709,0.06641348670404404
1772794146293996800,3.134996826171875,-0.13244681498408317,0.04361581783201545,0.02759100409578532
1772794146304042000,3.1450419921875,-0.10423077432513236,0.04552073813788592,0.008133512497134506
1772794146314087000,3.1550869140625,-0.07534779419004917,0.034424686040729284,-0.007777575198933482
1772794146324131800,3.1651318359375,-0.09518003738522529,0.0630897491088137,-0.009871697933971881
1772794146334176800,3.1751767578125,-0.08677110548019408,0.06358184347469359,0.00998651995267719
1772794146344222000,3.185221923828125,-0.04984218153357506,0.0669418214270845,0.0244807265881449
1772794146354267000,3.195266845703125,0.022808044135570523,0.053363560592755675,-0.006382979035377502
1772794146364311800,3.205311767578125,0.06326981838345527,0.056927463619410985,0.005773213106580078
1772794146374357000,3.21535693359375,0.06813304050564765,0.06452694230508059,-0.02052614374347031
1772794146384401700,3.225401611328125,0.08394903379678725,0.059201144172437485,-0.015949666140787303
1772794146394446600,3.235446533203125,0.09219313052892684,0.05529412679653614,-0.03568626694176346
1772794146404491800,3.24549169921875,0.07686287492811679,0.022656506835669277,-0.05709072788972407
1772794146414536700,3.25553662109375,0.09260697202682494,-0.012158895555697382,-0.059926462772302326
1772794146424581600,3.26558154296875,0.09345978946387767,-0.005384907908737659,-0.04880666447337716
1772794146434626600,3.27562646484375,0.07712941690981388,0.015386954224109649,-0.02921568268816918
1772794146444671700,3.285671630859375,0.0536135167658329,0.038461942200176416,0.014288272267207502
1772794146454716700,3.295716552734375,0.011674655702710151,0.06110471277143806,0.06150781367961317
1772794146464761900,3.305761962890625,-0.0021954642176628112,0.11031173820663243,0.06636723640952259
1772794146474805500,3.315805419921875,-0.05581248811483383,0.11209379931781441,0.1188413008166477
1772794146484850700,3.3258505859375,-0.15005436786711215,0.11406071547660976,0.12360763843562453
1772794146494895600,3.3358955078125,-0.16970190214514733,0.09065452278479934,0.05783438586387783
1772794146504940500,3.3459404296875,-0.12627952452600003,0.03620608956478536,-0.014107655003294348
1772794146514985500,3.3559853515625,-0.06326631125211715,0.008612345522642135,-0.11275562422741203
1772794146525030700,3.36603076171875,-0.00026069676280021664,-0.03037172085549682,-0.15032120210975408
1772794146535075600,3.37607568359375,0.0832633896201849,-0.03674012337625027,-0.13934062961842864
1772794146545120800,3.386120849609375,0.12834464036226273,-0.035252990091033276,-0.11979863807410002
1772794146555165400,3.39616552734375,0.09998071566522121,0.021728176476992666,-0.07107431812193245
1772794146565210600,3.406210693359375,0.07296236035823822,0.050223801262304184,0.015551643266528845
1772794146575255600,3.416255615234375,0.02990063274502754,0.06752857180647552,0.04261270520407706
1772794146585300700,3.42630078125,-0.010960954475402832,0.08316803948692977,0.0303351151721552
1772794146595345700,3.436345703125,-0.037326983353495595,0.057686757554113864,0.022287089001387355
1772794146605390600,3.446390625,-0.02778524802625179,0.04117244326788932,0.012600538375973701
1772794146615435500,3.456435546875,-0.002653144857287407,0.007017879405431449,0.008025668208487331
1772794146625480700,3.466480712890625,0.01893091044127941,0.015916311860457062,0.04184380319081247
1772794146635525600,3.476525634765625,0.06554828470945358,0.006765037155523896,0.05856167722512036
1772794146645570600,3.486570556640625,0.10171791472136973,0.026053273134492336,0.04870996263325214
1772794146655615500,3.496615478515625,0.14093407282233236,0.05607300221454352,0.06759078685510903
1772794146665660700,3.50666064453125,0.160897833442688,0.05947133941594511,0.08676018222738056
1772794146675705600,3.51670556640625,0.17913316283524036,0.07032751834262162,0.07885196638610213
1772794146685750800,3.526750732421875,0.1528530586749315,0.06924750455357134,0.05258070311937481
1772794146695795500,3.53679541015625,0.08188976317942143,0.07542849474344403,0.04372329679448157
1772794146705840600,3.546840576171875,0.027248656931519507,0.058098991616815324,0.03626023090481758
1772794146715885600,3.556885498046875,-0.009892448461055754,0.04016856345497072,-0.0014550941791385411
1772794146725930800,3.5669306640625,-0.02205576446354389,0.0286001446057111,0.014543269941583274
1772794146735975400,3.576975341796875,-0.042945992279052735,0.0381546663492918,0.05600293265301734
1772794146746020600,3.5870205078125,-0.05598842920362949,0.03698690121155232,0.030869952701218423
1772794146756064800,3.597064697265625,-0.08058569484353065,0.015418445340916513,0.03607749474905431
1772794146766109700,3.607109619140625,-0.07080313649773597,0.028716500994376837,0.046725218556821345
1772794146776154600,3.617154541015625,-0.05854162081778049,0.04085961445905268,0.038325346741080284
1772794146786199600,3.627199462890625,-0.05532032068371773,0.06776822578124701,0.042949937801808113
1772794146796244700,3.63724462890625,-0.033278584745526314,0.04930906103756279,0.08782138171810656
1772794146806289700,3.64728955078125,-0.019479776495695114,0.034363530438020824,0.11254526941236108
1772794146816334800,3.6573349609375,0.0033995793104171753,0.02763024012763053,0.1123259641058743
1772794146826379500,3.667379638671875,0.01441138719022274,0.0293413914270699,0.09408007678668945
1772794146836424700,3.6774248046875,-0.0027688801914453505,0.025899690007977184,0.0591053556477651
1772794146846469600,3.6874697265625,-0.008593056300282478,-0.001873465721681714,0.015984262530133127
1772794146856514800,3.697514892578125,0.011342062747478484,0.003333820597827434,-0.028555501746386287
1772794146866559500,3.7075595703125,0.03472936807572841,-0.019010880342312155,-0.08004073777925223
1772794146876604700,3.717604736328125,0.032088498178124425,-0.020732735698856412,-0.14472308984175325
1772794146886649600,3.727649658203125,-0.0033376199901103973,0.007507818346843123,-0.12358031203728169
1772794146896694800,3.73769482421875,-0.01256663610637188,0.014975596944242714,-0.08695373203810304
1772794146906739700,3.74773974609375,-0.0054775546282529826,0.016616751747392116,-0.06514759495407342
1772794146916784600,3.75778466796875,-0.0006353752940893173,0.004740326394885778,-0.07436528595872223
1772794146926829600,3.76782958984375,-0.01450549521446228,-0.015117124306783079,-0.07890581546518952
1772794146936874800,3.777874755859375,0.033579028996825216,0.0125937798416242,-0.08064699657671152
1772794146946919700,3.787919677734375,0.09844108500778674,0.050907947601564224,-0.059556716144457456
1772794146956964600,3.797964599609375,0.13475392288267612,0.015128449418395756,-0.030427104304544626
1772794146967009500,3.808009521484375,0.1398871941179037,-0.014131693466007709,-0.06519903288036584
1772794146977054700,3.8180546875,0.12593348756730555,-0.02170972750484943,-0.07016622683368623
1772794146987099600,3.828099609375,0.06342179407477379,-0.036026750942505896,-0.09405790148749947
1772794146997144600,3.83814453125,0.0471954664170742,-0.015882592253945768,-0.08011566617898642
1772794147007189500,3.848189453125,0.03530687570273876,-0.028888460027799007,-0.0434446625161916
1772794147017233700,3.858233642578125,0.05810147583484649,0.009311214506998658,-0.027440708904899656
1772794147027278600,3.868278564453125,0.0334533567905426,0.0532260518182069,0.02202971670683473
1772794147037323800,3.87832373046875,0.04097907612025738,0.03705116208679974,0.03743548522926867
1772794147047368400,3.888368408203125,0.03478314408957958,0.02432250381913036,-0.0027437822828069326
1772794147057413600,3.89841357421875,0.0557832620203495,0.0054649874076247214,-0.03588493131902069
1772794147067458600,3.90845849609375,0.10955167708694934,0.014712708224356174,-0.04529807183053344
1772794147077503700,3.918503662109375,0.1812918021738529,0.025703692511841653,-0.011822137882001697
1772794147087548700,3.928548583984375,0.23999708912074563,0.02615848707463592,-0.014501841952651738
1772794147097593600,3.938593505859375,0.22246435503959655,0.039813137613423165,-0.08373750993795692
1772794147107638500,3.948638427734375,0.1106599305897951,0.059854895373433824,-0.09868168883062899
1772794147117683700,3.95868359375,-0.055198155608773225,0.026570794202573595,-0.04757628242820501
1772794147127728600,3.968728759765625,-0.16651216619312761,0.0840809530807659,-0.020258396185375747
1772794147137773600,3.978773681640625,-0.2071516350954771,0.10410784206520765,0.008305727258883415
1772794147147816700,3.988816650390625,-0.20679040056765077,0.1016251584040001,0.003161094379425049
1772794147157861600,3.998861572265625,-0.207334590446949,0.1280299483899027,0.0037950814340263605
1772794147167906600,4.008906494140625,-0.17869126428663729,0.14400197249297053,-0.011430179422348736
1772794147177951500,4.018951416015625,-0.1763560993373394,0.13696772647462785,0.029536804401315748
1772794147187996700,4.02899658203125,-0.15450141040384768,0.12377192561924456,0.029811018232814967
1772794147198041600,4.03904150390625,-0.10414601865112781,0.11040924376435578,0.007407097918726503
1772794147208086800,4.049086669921875,-0.05443886167407035,0.07202376433387399,-0.0027313977252691984
1772794147218131500,4.05913134765625,0.0025520225703716277,0.0590466477304697,-0.03627276159282773
1772794147228176600,4.0691767578125,0.041270168021321295,0.04642656440380961,-0.08294245057012885
1772794147238221600,4.0792216796875,0.08911328469216823,0.031415128961205484,-0.1127175937719643
1772794147248266800,4.089266845703125,0.08940028494000435,0.032145269866660234,-0.08588497029542923
1772794147258311400,4.0993115234375,0.08821838167905807,0.06930380131807178,-0.08339512624107301
1772794147268356600,4.109356689453125,0.07373334473073483,0.06326492301262915,-0.05376403115242719
1772794147278401500,4.119401611328125,0.05763911902010441,0.04743263617381453,-0.021141791423782703
1772794147288446700,4.12944677734375,0.05638064339160919,0.060376069703325624,0.01574975965451449
1772794147298491600,4.13949169921875,0.04870353289246559,0.018871325741149483,0.043637518207170066
1772794147308536600,4.14953662109375,0.044238954699039455,0.00729055886697024,0.07241619771756232
1772794147318581500,4.15958154296875,0.03714636608958244,0.005072882817499339,0.07035188559889793
1772794147328625700,4.169625732421875,0.1090045645982027,0.014096001098118722,0.08198493064958602
1772794147338670800,4.1796708984375,0.1690139198809862,0.0041740342816337945,0.06445526530835777
1772794147348715500,4.189715576171875,0.22807225804924963,-0.0018200550340116022,0.042746706847287715
1772794147358760700,4.1997607421875,0.23512451464831827,-0.00438409683573991,0.06906308789737522
1772794147368805600,4.2098056640625,0.2187286756426096,0.005377601385116577,0.0896727086732164
1772794147378850800,4.219850830078125,0.1315004740446806,-0.0316961013270542,0.10930815065465867
1772794147388895700,4.229895751953125,0.0766752434015274,-0.0802315841762349,0.09611677024606614
1772794147398941000,4.23994091796875,0.07425999895334243,-0.11173409915994852,0.0963723159097135
1772794147408985900,4.24998583984375,0.0731681120634079,-0.10847736238632351,0.08757003730554133
1772794147419030800,4.26003076171875,0.038629882645606996,-0.07910853496305643,0.13951547472868114
1772794147429076000,4.270075927734375,-0.029965514674782753,-0.016376878576911984,0.15777710760626942
1772794147439121000,4.280120849609375,-0.12367372594177722,0.04829363691732287,0.14954459171406922
1772794147449165800,4.290165771484375,-0.19987199948132037,0.06992061804216354,0.0875928336592391
1772794147459210800,4.300210693359375,-0.25767010845541954,0.0781441834429279,-0.013585019368678331
1772794147469256000,4.310255859375,-0.28598785592317577,0.06612966479398309,-0.11109854120276867
1772794147479300900,4.32030078125,-0.28508301603794095,0.040535825864784415,-0.15882449776735155
1772794147489345800,4.330345703125,-0.22456454218924043,0.05024305395204574,-0.1648122304074466
1772794147499390700,4.340390625,-0.14643909997940063,0.04307100689820945,-0.16098532906305044
1772794147509436000,4.350435791015625,-0.029896541091799733,0.04000694315247237,-0.17437369334846733
1772794147519480800,4.360480712890625,0.04185761252045631,0.02330386482849717,-0.17459193920902907
1772794147529525800,4.37052587890625,0.08412906653881072,0.04397497000060975,-0.1379361696479842
1772794147539570700,4.38057080078125,0.0755471161544323,0.07648019575346261,-0.08489095428939908
1772794147549615900,4.390615966796875,0.058604749181866644,0.10441738293841481,-0.04383512313850224
1772794147559660800,4.400660888671875,0.07204173838198184,0.11890775364898144,-0.02530146838650107
1772794147569706000,4.4107060546875,0.06680091511905192,0.11521299078427255,-0.04101717964094132
1772794147579750700,4.420750732421875,0.039458734685182566,0.10959789084885269,-0.026137590417079627
1772794147589795800,4.4307958984375,0.02590951728224754,0.0699026805266738,-0.007701039364002645
1772794147599840800,4.4408408203125,0.044381578040122986,0.07536923883687704,-0.011427402943372725
1772794147609886000,4.450885986328125,0.046835400933027266,0.08666950826924294,0.009460888643376528
1772794147619931000,4.460930908203125,0.06861527106463909,0.061345608855225144,0.03804466663617641
1772794147629975800,4.470975830078125,0.07066752741932869,0.04650229652114212,0.0346327758334577
1772794147640020700,4.481020751953125,0.08426818274855613,0.05846800759229809,0.0033894963078200816
1772794147650066000,4.49106591796875,0.07724222963452339,0.08101732772644608,-0.010374788617901504
1772794147660110800,4.50111083984375,0.06890285583436488,0.08490275432504713,-0.01679006248768419
1772794147670155800,4.51115576171875,0.0652291357576847,0.08647767549157143,-0.023569858820922673
1772794147680200700,4.52120068359375,0.03745791625678539,0.07382657597213983,-0.04613057713191956
1772794147690246000,4.531245849609375,0.00319850378036499,0.07560074603781104,-0.03919376360606402
1772794147700290800,4.541290771484375,-0.013755553629994392,0.07640216208118945,-0.036574192224815484
1772794147710336000,4.5513359375,-0.0507855998635292,0.05670278801806271,-0.01876307959370315
1772794147720380700,4.561380615234375,-0.03263210353553295,0.05082757584173232,0.008609422913193701
1772794147730425900,4.57142578125,0.015572832185029983,0.03159271401781589,0.031482312445901335
1772794147740470800,4.581470703125,0.05015665431022644,0.020212949608452616,0.05172302684411406
1772794147750515000,4.591514892578125,0.07579086178243159,0.03789663646761328,0.07515519422739744
1772794147760559900,4.601559814453125,0.08546937523186206,0.02560731946527958,0.08913721355702728
1772794147770604800,4.611604736328125,0.10586802013814449,0.016443769800662995,0.09025284664873033
1772794147780650000,4.62164990234375,0.09823182617127894,-0.03330368265416473,0.09701178285703062
1772794147790695000,4.63169482421875,0.11371347294151782,-0.08497293348442762,0.06978033278863877
1772794147800739800,4.64173974609375,0.1057499467164278,-0.10223722588773816,0.038354463237710294
1772794147810784800,4.65178466796875,0.0925438436627388,-0.09681688133943825,0.007044000227376818
1772794147820830000,4.661829833984375,0.043864860689640045,-0.058238400087505575,0.007002608771063387
1772794147830875000,4.671875,0.01581950042247772,-0.02952124150600284,0.009753697577491402
1772794147840920000,4.681920166015625,-0.0380108739644289,0.004543232920207083,-0.012801321645081043
1772794147850964700,4.69196484375,-0.06557517271637917,0.0510063299421221,-0.02162910001669079
1772794147861010000,4.702010009765625,-0.0938596024364233,0.07539634603951126,-0.008641352421417833
1772794147871054800,4.712054931640625,-0.09102116414010525,0.09711951754782348,-0.006108546008169651
1772794147881100000,4.72210009765625,-0.10416589239537716,0.08876801491845399,0.012047580668330192
1772794147891144700,4.732144775390625,-0.09877776961624622,0.122234340788424,0.051610944771766656
1772794147901190000,4.74218994140625,-0.10457096606492995,0.15211919144243002,0.10756561783626675
1772794147911234800,4.75223486328125,-0.12944471055865286,0.13983213946241885,0.13840557725802063
1772794147921280000,4.762280029296875,-0.09636018708050251,0.1369924590570852,0.13679288136437534
1772794147931325000,4.772324951171875,-0.024610125121474265,0.1478181332476437,0.17882723869122563
1772794147941369900,4.782369873046875,0.05135960035920143,0.13336170133929698,0.2084478854510933
1772794147951414800,4.792414794921875,0.1399170047342777,0.12065182083733379,0.2195650534015149
1772794147961460000,4.8024599609375,0.22457798619270322,0.049636429828405375,0.21824045373424886
1772794147971505000,4.8125048828125,0.28922318458259105,-0.023750695280544458,0.23038236162252723
1772794147981550000,4.822550048828125,0.3483294535458088,-0.0729102283122018,0.24582382251285015
1772794147991593700,4.83259375,0.35215573383569715,-0.09089286158531903,0.21082111738845705
1772794148001639000,4.842638916015625,0.2708218509733677,-0.10219272915888578,0.1885873660095036
1772794148011683800,4.852683837890625,0.1886030019700527,-0.047248219517618414,0.16940723004750907
1772794148021728800,4.862728759765625,0.0652209524512291,-0.012211100666970015,0.12016944414786994
1772794148031773700,4.872773681640625,-0.009973697003722191,-0.01729413955230266,0.04794833061099052
1772794148041819000,4.88281884765625,-0.03880056303739547,-0.006910071649402379,-0.08320384145267307
1772794148051863800,4.89286376953125,-0.019469255101680755,0.019184666006639598,-0.14595971896462143
1772794148061909000,4.902908935546875,0.03112929775714874,0.006327595586329698,-0.16942082018144428
1772794148071953700,4.91295361328125,0.08231880224645137,-0.020852270425297317,-0.19115312484428285
1772794148081998800,4.922998779296875,0.09791384626328944,-0.03317932562213391,-0.22104411297813056
1772794148092043800,4.933043701171875,0.10167875175476074,-0.030631029378809033,-0.19059592935293912
1772794148102089000,4.9430888671875,0.07037877360582351,-0.0044058702761307356,-0.13643259668461977
1772794148112134000,4.9531337890625,-0.0032779987573623654,0.02218450540974736,-0.11966785130128264
1772794148122178800,4.9631787109375,-0.05196516503691673,0.0274261689228937,-0.07389043498858809
1772794148132223700,4.9732236328125,-0.05308393993377685,0.0726146063664928,-0.04406688606776297
1772794148142269000,4.98326904296875,-0.07067863333523274,0.09189666833300143,-0.013597659654542803
1772794148152313900,4.99331396484375,-0.06280746156871318,0.10016268463600426,-0.020414719258248806
1772794148162358800,5.00335888671875,-0.03774199389517307,0.07147431375756859,-0.025712606470659375
1772794148172403700,5.01340380859375,0.008394318857789039,0.02026109959911555,-0.02883965245001018
1772794148182449000,5.023448974609375,0.07841536506712436,0.03404200686607509,0.005368541295826435
1772794148192493800,5.033493896484375,0.10337795688807963,0.03493212410621345,0.046890419055894014
1772794148202539000,5.0435390625,0.08837094189226627,0.035478579007834195,0.027205036985501644
1772794148212583700,5.053583740234375,0.06392097576856613,0.02447272594477981,0.0036827801659703252
1772794148222628900,5.06362890625,0.020471710142493247,0.026676702262461185,-0.004506371508538723
1772794148232673800,5.073673828125,0.0017126491367816924,0.0253158257054165,-0.015590879298374057
1772794148242718000,5.083718017578125,0.007184943068027496,0.027554471477679907,-0.04566204630471766
1772794148252763000,5.093762939453125,-0.01711713901758194,0.006056998484022915,-0.07501352073438465
1772794148262807800,5.103807861328125,-0.04158405627608299,0.01909348059184849,-0.1138287698842585
1772794148272853000,5.11385302734375,-0.07593231607973575,0.012047982527129351,-0.1419004336364567
1772794148282898000,5.12389794921875,-0.09276946911215782,0.019418292099423706,-0.1489510097350925
1772794148292942800,5.13394287109375,-0.013337620478868484,0.03294986424781382,-0.12980930608734487
1772794148302987800,5.14398779296875,0.04117079930007458,0.05129033451527357,-0.10722864096686244
1772794148313033000,5.154032958984375,0.12314356458783149,0.06179554457981139,-0.06353511825613677
1772794148323078000,5.164077880859375,0.17210019545853136,0.06591277064029127,-0.037604704316332935
1772794148333123000,5.174123046875,0.12804244254529476,0.040849860250018535,-0.017421090400218962
1772794148343167700,5.184167724609375,0.071459554579854,0.048817368530482054,-0.007318944711238146
1772794148353213000,5.194212890625,0.0091062665194273,0.04062054500617086,0.0415078492347151
1772794148363257900,5.2042578125,-0.0006757073044776916,0.06178042007591575,0.08060644537061452
1772794148373303000,5.214302978515625,0.031186580902338026,0.08579550191368907,0.086257456869632
1772794148383348000,5.224347900390625,0.0942342809677124,0.10376870977133512,0.10596428358685224
1772794148393393200,5.23439306640625,0.14895371314883232,0.12237214182391762,0.13088036938495934
1772794148403438300,5.244438232421875,0.17843465917706489,0.05000982971806079,0.08853913806602358
1772794148413483300,5.254483154296875,0.1871300068080425,0.03673274378739297,-0.02924304561913013
1772794148423528400,5.264528564453125,0.15404197619855403,-0.0031118849428370594,-0.1014515919353813
1772794148433573400,5.274573486328125,0.1070002390384674,-0.06831281751934438,-0.15459073265511541
1772794148443618300,5.284618408203125,0.02354629528224468,-0.08843374146278947,-0.22649474306683987
1772794148453663200,5.294663330078125,-0.03665770578980446,-0.049354361484013495,-0.13175039368513972
1772794148463708400,5.30470849609375,-0.06298632526695729,-0.011822028284147381,-0.07584511272031813
1772794148473752300,5.31475244140625,-0.1052618709385395,0.01183470510262996,-0.006862834974192083
1772794148483797200,5.32479736328125,-0.08999123657047749,-0.02590937115177512,0.016253763653896747
1772794148493842400,5.334842529296875,-0.13511808001995085,-0.049305334710516034,0.02826448291055858
1772794148503887400,5.344887451171875,-0.13131167347431183,0.008393697803281247,0.04324307552948594
1772794148513932500,5.3549326171875,-0.14587562087774275,-0.005754983330145478,0.12644735537357626
1772794148523977200,5.364977294921875,-0.14077040669322013,0.01155150424707681,0.15549480535537002
1772794148534022400,5.3750224609375,-0.09534896421134471,0.0059878787705674764,0.16562804030235856
1772794148544067300,5.3850673828125,-0.05915712236762046,0.0007605360437184572,0.15651501524858175
1772794148554112500,5.395112548828125,-0.036872225323319435,0.03418481287024915,0.16483312706500292
1772794148564157400,5.405157470703125,-0.03895546133816242,0.07881536070276052,0.14888525102250277
1772794148574202400,5.415202392578125,-0.06761573863327502,0.1050290120307356,0.0893378872282803
1772794148584247300,5.425247314453125,-0.10454933875501156,0.0878877614852041,0.009541296935826539
1772794148594292500,5.43529248046875,-0.09692074357271194,0.0532685757856816,-0.07601524512283503
1772794148604337400,5.44533740234375,-0.03600888649225235,0.055184200148656964,-0.14425046736132352
1772794148614382300,5.45538232421875,0.012636778733134268,0.05723477600291371,-0.18499566166047005
1772794148624427300,5.46542724609375,0.06681786625385285,0.03715951783210039,-0.16778061522636561
1772794148634472400,5.475472412109375,0.089145433396101,0.03597114829774946,-0.16154373013079165
1772794148644517400,5.485517333984375,0.056252633097767825,0.01570986603554338,-0.10666823060512542
1772794148654562600,5.4955625,0.03499824814498424,0.001457213070988655,-0.04088803683593869
1772794148664607200,5.505607177734375,0.03482873679697513,0.018677775930427014,0.0459843370616436
1772794148674652400,5.51565234375,0.06401566831469535,0.04131455515231937,0.10134630493000149
1772794148684697300,5.525697265625,0.1025432596296072,0.05993797054700553,0.10687851235494017
1772794148694742500,5.535742431640625,0.1499877323716879,0.07710088493507355,0.10311280314587055
1772794148704786200,5.5457861328125,0.157132343429327,0.038347485507652164,0.08091251564510166
1772794148714831400,5.555831298828125,0.1102244617819786,-0.0018776669727638363,0.06395195542871952
1772794148724876300,5.565876220703125,0.068788874065876,-0.0031263518596068023,-0.011526406338438391
1772794148734921500,5.57592138671875,-0.0016179565906524658,-0.02986632861662656,-0.037981136413291094
1772794148744966100,5.585966064453125,0.04286591278016567,-0.005795205742679536,-0.054418111146986484
1772794148755011300,5.59601123046875,0.055036243045330044,0.05355458965282887,-0.002043196265399456
1772794148765056300,5.60605615234375,0.07805471506118775,0.0952124418174848,0.022627499936893582
1772794148775101400,5.616101318359375,0.12664485070705414,0.07781173661816865,-0.009546046176180243
1772794148785146400,5.626146484375,0.126113520309329,0.014409085635282098,-0.015439634259417653
1772794148795191300,5.63619140625,0.13003040149211884,-0.007315181851573288,-0.005584595199301838
1772794148805236200,5.646236328125,0.12874328429102896,-0.03646379065290093,0.018435308944061396
1772794148815281400,5.656281494140625,0.1065560024023056,-0.006914820889756083,0.04907959966324269
1772794148825326300,5.666326416015625,0.09273615136444568,0.013625935900956392,0.07888641664497553
1772794148835371300,5.676371337890625,0.05895253970623016,0.0160279555413872,0.12399104826264083
1772794148845416200,5.686416259765625,-0.04716331771314144,0.012801248579844831,0.14947159954309464
1772794148855461400,5.69646142578125,-0.08903554328083992,0.0417576227447018,0.1225016134224832
1772794148865506300,5.70650634765625,-0.14329963290989398,0.03455455949809402,0.09581848141923546
1772794148875551500,5.716551513671875,-0.13840835373699664,0.010216748511977493,0.07289842827655374
1772794148885596200,5.72659619140625,-0.12100129186213016,-0.01777589518725872,0.02580371882021427
1772794148895641300,5.736641357421875,-0.0970095908999443,-0.0574852071000263,-0.059245019846782085
1772794148905686300,5.746686279296875,-0.04349193572402,-0.06393916901238263,-0.10497048677653073
1772794148915731500,5.7567314453125,0.028905191966891286,-0.0813772470800206,-0.10194726649783552
1772794148925776400,5.7667763671875,0.08159750223457812,-0.03291450067348778,-0.08177205508388578
1772794148935820300,5.7768203125,0.11590835263729095,-0.019836152185313403,-0.05606427091881633
1772794148945865500,5.786865478515625,0.13046177864670752,0.011108473187312484,-0.006253580502048135
1772794148955910400,5.796910400390625,0.09952420406937598,0.012177088799513876,0.005910393087565899
1772794148965955300,5.806955322265625,0.06421908193230629,-0.00991389310788363,0.012592793460935354
1772794148976000300,5.817000244140625,0.02575929515659809,-0.021276048795320093,0.01907484895661473
1772794148986045400,5.82704541015625,0.003605331015586853,-0.035801746547594666,0.018096797704696653
1772794148996090400,5.83709033203125,0.014192776003479957,-0.04986497788727283,0.008672843538224697
1772794149006135600,5.847135498046875,0.0309393281430006,-0.010518982861563563,0.0023404256463050842
1772794149016180200,5.85718017578125,0.012717442753911018,0.012711341806687414,-0.005686959595233201
1772794149026225400,5.867225341796875,-0.0032230536997318268,0.007681129087135195,0.02021174403205514
1772794149036270300,5.877270263671875,0.008583703950047492,0.025887451580911873,0.0011893559150397777
1772794149046315500,5.8873154296875,0.021233342164754865,0.0031530937360599635,-0.027227541078254577
1772794149056360400,5.8973603515625,0.050449499776959415,-0.019787892596796156,-0.05355762186013162
1772794149066405400,5.9074052734375,0.0861345611423254,-0.035524573574028905,-0.08293824931904673
1772794149076450300,5.9174501953125,0.12196458393633365,-0.02526716425810009,-0.09928549994267523
1772794149086495500,5.92749560546875,0.13970365424454212,-0.009798011643253265,-0.08271803069710731
1772794149096540400,5.93754052734375,0.08415946167707443,-0.0038561639714986082,-0.04829122576452791
1772794149106585300,5.94758544921875,0.05750467898547649,-0.05816997449379414,-0.021073621558398006
1772794149116630300,5.95763037109375,0.038139468780159946,-0.08004566968269645,0.013733122602477669
1772794149126675500,5.967675537109375,0.011494038438796997,-0.06051029054224491,0.02017287332639098
1772794149136720400,5.977720458984375,-0.03545125260949135,-0.008268098662234843,0.01126008355244994
1772794149146764300,5.987764404296875,-0.07589607572257519,0.039014169255457816,0.01500007379837334
1772794149156809200,5.997809326171875,-0.1363221951127052,0.07236695174835622,0.013059534189850092
1772794149166854400,6.0078544921875,-0.15253858589828012,0.05033500655181706,-0.010476824220269918
1772794149176899300,6.0178994140625,-0.15087269851267338,0.04751297140102833,-0.08220540499985217
1772794149186944500,6.027944580078125,-0.10452478883564471,0.055020643617399036,-0.09072751495577394
1772794149196989200,6.0379892578125,-0.0551864651709795,0.03373703257013112,-0.09455620639845728
1772794149207034400,6.048034423828125,-0.02018880154788494,0.01875409256964922,-0.09729381466880441
1772794149217079300,6.058079345703125,0.022485972574353218,0.016786336160637436,-0.05996098609641194
1772794149227124500,6.06812451171875,0.07974456784427165,0.013341748664714395,-0.03423274366520345
1772794149237169200,6.078169189453125,0.13425240310132502,0.004512399390526116,0.010083514053747057
1772794149247214300,6.08821435546875,0.21341887879669666,0.02175020564571023,0.032333705110847946
1772794149257259300,6.09825927734375,0.24495792639851569,0.027831607918627557,0.013478928645700215
1772794149267304400,6.108304443359375,0.18427929355204103,0.03522098751757294,-0.008685337693616747
1772794149277349400,6.118349365234375,0.09225392080545425,0.03345353945363313,0.00974025357402861
1772794149287394300,6.128394287109375,-0.0016775778234004973,0.055700880966521794,-0.024010405662655828
1772794149297439200,6.138439208984375,-0.0006248539000749588,0.03271543443743139,-0.0780059074833989
1772794149307484400,6.148484375,-0.09423135835826396,-0.05776183208432048,0.004020268492028117
1772794149317529300,6.158529296875,-0.12830021669864652,-0.023956520050950347,-0.035630408568680286
1772794149327574300,6.16857421875,-0.0748281542301178,-0.019392171277478335,-0.037467926194146274
1772794149337619200,6.178619140625,-0.0030500352203845977,0.00491714426651597,-0.005005187876150011
1772794149347664400,6.188664306640625,-0.003492518290877342,0.04701627392526716,-0.0020293869357556104
1772794149357708500,6.19870849609375,-0.03942366337180137,0.07100033957026898,0.02551942198611796
1772794149367753200,6.208753173828125,-0.03923135567009449,0.07312167910579591,0.04682049562484026
1772794149377798400,6.21879833984375,-0.03392038978040218,0.08925634642466902,0.02233085507787764
1772794149387843000,6.228843017578125,-0.03828501473069191,0.11274345886558293,0.006149754801392555
1772794149397888300,6.23888818359375,-0.0921253259897232,0.09769497934821993,0.007512786782905459
1772794149407933200,6.24893310546875,-0.1125210482865572,0.1087122305881232,-0.033906434320285915
1772794149417978000,6.25897802734375,-0.08879062860906124,0.08239497275520116,-0.043123613868281244
1772794149428023000,6.26902294921875,-0.03135726129412651,0.06246273978427052,-0.049223392048105594
1772794149438068200,6.279068115234375,0.07801438305079937,0.047681934759765864,-0.09247209360077976
1772794149448113200,6.289113037109375,0.14450667061209677,0.07434490075781941,-0.07742671935595571
1772794149458158300,6.299158447265625,0.1548269890964031,0.09709588094390928,-0.016748305705189703
1772794149468203000,6.309203125,0.15597499008774757,0.09012658992055803,0.04017513932622969
1772794149478248200,6.319248291015625,0.16141688888072966,0.06405684057530016,0.06191336227320134
1772794149488293000,6.329293212890625,0.16369243259727953,0.04639324665609747,0.03801664611808955
1772794149498338300,6.33933837890625,0.1684393348634243,0.027374950192309913,-0.016317951463907954
1772794149508383200,6.34938330078125,0.1517073957711458,0.0002860869323834777,-0.025884894297644494
1772794149518428200,6.35942822265625,0.10537293009757995,0.0100345238128677,-0.042665567902475596
1772794149528473000,6.36947314453125,0.0545329696983099,0.01640486256238073,-0.0169406864721328
1772794149538518300,6.379518310546875,-0.012667173871397971,0.018904168564826247,0.05331891773343086
1772794149548563200,6.389563232421875,-0.043729836133122445,0.05189801808483898,0.05168284096419811
1772794149558608100,6.399608154296875,-0.08623743699491024,0.042161563903093335,0.05887099890261888
1772794149568652000,6.409652099609375,-0.11160042631030082,0.04162807808090001,0.08691394801698625
1772794149578697200,6.419697265625,-0.10619944404959678,0.016760617197491227,0.0978588281404227
1772794149588742100,6.4297421875,-0.0721264940559864,-0.008025558610633015,0.08092194106057286
1772794149598787000,6.439787109375,-0.05095277312397956,-0.01990337220262736,0.07274360304102301
1772794149608832000,6.44983203125,-0.01373684892952442,-0.003179616416804492,0.05590856890045106
1772794149618877200,6.459877197265625,-0.010322072049975395,0.032792664392106236,0.05592983088418841
1772794149628922000,6.469922119140625,-0.00281681098639965,0.04418495948947966,0.05294796552918851
1772794149638967300,6.47996728515625,0.03715396487414837,0.03358984265178442,0.03722513041421771
1772794149649012000,6.490011962890625,0.08608429225981235,0.028780579206533728,0.024176775205507872
1772794149659057200,6.50005712890625,0.09404898752868175,0.0191968313684687,-0.009860518952831625
1772794149669102000,6.51010205078125,0.144151865825057,-0.014002331465296447,-0.07253850892297924
1772794149679147300,6.520147216796875,0.18428864590227603,-0.036714660141430794,-0.1284160981632769
1772794149689192000,6.53019189453125,0.2020148567289114,-0.10173563304115087,-0.1762852260582149
1772794149699237000,6.540237060546875,0.19261808283030984,-0.0995418127913028,-0.15597089843451975
1772794149709282000,6.550281982421875,0.13779986644983291,-0.05141706616748124,-0.13554193145520985
1772794149719327200,6.5603271484375,0.04388181182444095,0.003830225812643766,-0.08791713371016084
1772794149729372200,6.5703720703125,-0.02172901672720909,0.0754648081658408,-0.019083178393542767
1772794149739417000,6.5804169921875,-0.11623743846118449,0.13891359984539448,-0.018250307765975592
1772794149749462000,6.5904619140625,-0.14461714524924754,0.1619374786887318,-0.0011967355038970708
1772794149759507200,6.600507080078125,-0.11355389846563338,0.10875628892555832,0.017514540837332605
1772794149769551400,6.61055126953125,-0.05996083996593952,0.06272131765522063,-0.010685133208706975
1772794149779596000,6.620595947265625,-0.0016167875468730926,0.017844576509296894,-0.02966616640202701
1772794149789641200,6.63064111328125,0.04552373381257057,-0.05256733218114823,-0.05942278756648302
1772794149799686100,6.64068603515625,0.051986792346835134,-0.07446790608298033,-0.07965250564664601
1772794149809731300,6.6507314453125,0.030190555602312086,-0.05108202552683651,-0.046509822240471836
1772794149819776000,6.66077587890625,0.013034253618121147,-0.011743410089984535,0.013999299257993697
1772794149829821200,6.6708212890625,-0.007464344531297683,0.043171690793707966,0.08585494048334658
1772794149839866000,6.6808662109375,-0.009617138651013374,0.051610944771766656,0.09941248732320963
1772794149849911300,6.690911376953125,-0.009559855505824088,0.0610685454795137,0.08327369181849062
1772794149859956200,6.700956298828125,0.012335749959945679,0.032276348900422455,0.05513415046185255
1772794149870001200,6.711001220703125,0.0040343700826168056,-0.013043679033592343,-0.014489055536314844
1772794149880046000,6.721046142578125,0.0017500585377216338,-0.03858173265494406,-0.05642550544664263
1772794149890091300,6.73109130859375,0.02729483416080475,-0.06338887818586081,-0.0257093916002661
1772794149900136200,6.74113623046875,0.05898527293205261,-0.048254254755005235,0.0062334875620901585
1772794149910181000,6.75118115234375,0.07203413959741592,0.012369506099075079,0.05188114001527428
1772794149920226000,6.76122607421875,0.07283142745494842,0.03282294993251562,0.09336509691774844
1772794149930271200,6.771271240234375,0.07294073304831981,0.04266304715182632,0.10861673432439566
1772794149940316200,6.781316162109375,0.06525836185216903,0.03456113536935299,0.12695691233091055
1772794149950361300,6.791361328125,0.07314414666593075,0.04513067937437445,0.10642295060716568
1772794149960405000,6.801405029296875,0.04255903878808021,0.05171897172350436,0.05894727900922298
1772794149970450200,6.8114501953125,-0.00543020835518837,0.05319675265848636,-0.007191153613105416
1772794149980495000,6.8214951171875,-0.03939911345243454,0.05419851357955485,-0.03943425783105194
1772794149990540300,6.831540283203125,-0.011725509107112883,0.026649047070555387,-0.0711881172273308
1772794150000585000,6.8415849609375,-0.002589431971311569,-0.016214783350378275,-0.09461611989215016
1772794150010630100,6.851630126953125,0.029020342779159543,-0.0421444301052019,-0.11433949588537215
1772794150020675000,6.861675048828125,0.0749976655781269,-0.050996794928796586,-0.10692644314989447
1772794150030720300,6.87172021484375,0.09105506640970706,-0.018490765458345413,-0.08147804057337343
1772794150040765000,6.881764892578125,0.08961714256107807,0.010696677516028284,-0.01386281339675188
1772794150050810000,6.89181005859375,0.0764005181133747,0.01565429992340505,0.011479425391554832
1772794150060855000,6.90185498046875,0.091816113910079,0.035205424622260034,0.023216332675516604
1772794150070900200,6.911900146484375,0.1042600004196167,0.04485646554287523,0.027723361771181225
1772794150080945200,6.921945068359375,0.09577274258136749,0.029847733514010905,0.020376579204946756
1772794150090990000,6.931989990234375,0.06872983735501766,0.018021759707108138,0.01208287117742002
1772794150101035000,6.942034912109375,0.0521364299505949,0.012184029996953904,0.007938610979542135
1772794150111080200,6.952080078125,0.038541035318374633,-0.004592771150358021,0.014383184009045362
1772794150121125000,6.962125,0.029557518395781517,-0.0020566402688622473,-0.015276552652195095
1772794150131170300,6.97217041015625,0.02979483428299427,0.0006415493065491318,-0.01342690619751811
1772794150141215000,6.982215087890625,0.011890928801894187,-0.008933686431497334,-0.038081308852136134
1772794150151259100,6.992259033203125,0.005602057790756225,0.0010249226009473205,-0.027652196231111884
1772794150161304300,7.00230419921875,0.006481178712844848,-0.02113959946669638,0.03461392500251531
1772794150171349000,7.012348876953125,0.005748188263177871,0.019479045843333005,0.10097834840044378
1772794150181394200,7.022394287109375,0.026013562178611754,0.05164397025853395,0.1759767446309328
1772794150191439000,7.032439208984375,0.05610591810345649,0.046832186062633986,0.20848916730955241
1772794150201484300,7.042484375,0.09202303465902804,-0.004195259732753038,0.17797412899322806
1772794150211529200,7.052529296875,0.12533201454281806,-0.02755516559742391,0.17320808363519608
1772794150221574100,7.06257421875,0.14936930821239947,-0.032124519339576364,0.1733837324630469
1772794150231619000,7.072619140625,0.16920330497324465,0.03415193351395428,0.18436770248785614
1772794150241664300,7.082664306640625,0.13626491196751594,0.06690711543988435,0.14234861579537392
1772794150251709200,7.092709228515625,0.06566635813117026,0.043041999999433755,0.06327179114483296
1772794150261754400,7.10275439453125,0.010673954227566718,0.0017126491367816924,-0.022546032198518515
1772794150271799000,7.112799072265625,-0.005259527963399887,-0.033856932622753085,-0.08681297186054289
1772794150281844200,7.12284423828125,-0.02391279050707817,-0.018849260039813815,-0.14769348395466803
1772794150291889200,7.13288916015625,-0.05772855086922645,-0.00010802695173770189,-0.19879699066095052
1772794150301934300,7.142934326171875,-0.07217033319771289,0.020213132271543144,-0.23610322348736226
1772794150311979000,7.15297900390625,-0.0777075090587139,0.04395199098382145,-0.26379144087992606
1772794150322024200,7.163024169921875,-0.07913315794765949,0.030337380194477737,-0.256959110641852
1772794150332069000,7.173069091796875,-0.03633504970669746,0.05010163618735969,-0.23827106904573736
1772794150342114300,7.1831142578125,-0.030413258442282674,0.05404675708394497,-0.1746313213713467
1772794150352158000,7.193157958984375,-0.023062895679473876,0.04074380605965852,-0.12054667996242642
1772794150362203100,7.203203125,0.019122049099206923,0.04337459295466542,-0.05876432365775108
1772794150372248000,7.213248046875,0.049638183394074435,0.041053018139302726,-0.019348478266224264
1772794150382293200,7.223293212890625,0.11459727003872394,0.026992344082891938,0.03478387474194169
1772794150392338200,7.233338134765625,0.09341185866892338,0.036641960231401025,0.07297748486213386
1772794150402383000,7.243383056640625,0.07182371171712874,0.06423073583748191,0.10072174329087137
1772794150412428000,7.253427978515625,0.03258767987191677,0.0664152402697131,0.14025756180025636
1772794150422473200,7.26347314453125,-0.0034837504625320433,0.0936901276210323,0.1687492775954306
1772794150432518100,7.27351806640625,-0.03983165965080261,0.09903879517260938,0.15151611098274587
1772794150442563000,7.28356298828125,-0.009859715235233307,0.07811123102139682,0.13302300743684173
1772794150452608000,7.29360791015625,0.01250818391740322,0.07219484658446162,0.10625921141281723
1772794150462653200,7.303653076171875,0.0395095880895853,0.058644533202983434,0.11546776926293968
1772794150472698000,7.313697998046875,0.06201777249574661,0.05880542285311967,0.10831607087738811
1772794150482743300,7.323743408203125,0.06220365045666694,0.10219451925717293,0.10710990995801985
1772794150492788000,7.3337880859375,0.02602817522585392,0.09131908764075487,0.100293946332857
1772794150502833200,7.343833251953125,0.01888648677766323,0.06052161565385759,0.046449324224889274
1772794150512878000,7.353878173828125,0.01052840827703476,0.06591572978235781,-0.019941694919019936
1772794150522923300,7.36392333984375,0.012342764222621917,0.06142641900647431,-0.06293496040590107
1772794150532967200,7.37396728515625,-0.00915069018304348,0.056558118850365276,-0.057436801381036635
1772794150543012000,7.38401220703125,-0.016590484794974325,0.027076770963333545,-0.05719670901484787
1772794150553057300,7.394057373046875,-0.027176760739088056,0.006847272078879177,-0.03021824732683599
1772794150563102200,7.404102294921875,-0.028820436292886734,0.004002915498428046,-0.0060153878320008515
1772794150573147100,7.414147216796875,-0.013021978658437728,0.014061989230662583,0.009440028518438339
1772794150583192000,7.424192138671875,-0.01886076781451702,0.030542693508230148,0.042775019626319404
1772794150593237200,7.4342373046875,-0.02224398051202297,0.05792944373618811,0.0650387277521193
1772794150603282200,7.4442822265625,-0.021541969722509383,0.0429957131722942,0.09454707324393093
1772794150613327400,7.454327392578125,-0.03539513850808143,0.05950125963017344,0.0915852277636528
1772794150623372000,7.4643720703125,-0.057825581502914426,0.0651561801193282,0.11620390151776373
1772794150633417200,7.474417236328125,-0.06177987208664417,0.08246383674032985,0.12826397634148598
1772794150643462100,7.484462158203125,-0.028465631505846977,0.07565795611776412,0.1093799007166177
1772794150653507300,7.49450732421875,-0.0009597849428653717,0.06449439174234867,0.06075768943205476
1772794150663552000,7.504552001953125,0.028111411240696906,0.047945261871069664,0.014366452069953083
1772794150673597200,7.51459716796875,0.07299918523728847,0.025962416513264176,-0.05766987948454916
1772794150683642000,7.52464208984375,0.09078560181856155,0.040550986901298165,-0.09926759895980357
1772794150693687300,7.534687255859375,0.13129413781762123,0.03925612478516996,-0.09261581292040645
1772794150703732200,7.544732177734375,0.1780114653289318,0.02401566635966301,-0.10486768398918211
1772794150713777200,7.554777099609375,0.16945932556092738,0.016590192534029484,-0.07911693746522068
1772794150723821000,7.564821044921875,0.1343622932165861,0.05781213749945163,-0.11549451113939285
1772794150733866200,7.5748662109375,0.10096680409312248,0.08547573190741241,-0.06298157602660358
1772794150743911200,7.5849111328125,0.09725976626873016,0.07338906133770942,-0.011130246627703308
1772794150753956000,7.5949560546875,0.09343991571962833,0.07491919351443647,-0.05426372430287301
1772794150764001000,7.6050009765625,0.10494506007432937,0.06000153730250895,-0.06996295934654771
1772794150774046200,7.615046142578125,0.1054576857715845,0.04462824627757072,-0.11403620208986102
1772794150784091100,7.625091064453125,0.1026607485294342,0.03659757310040295,-0.11827237835489213
1772794150794136000,7.635135986328125,0.08292378240227699,0.03056505147051066,-0.06874057794474064
1772794150804181000,7.645180908203125,0.049531800410151476,0.019554924091137946,-0.038710327470675106
1772794150814226200,7.65522607421875,0.009684358668327332,-0.006197795194201171,-0.015079276514425873
1772794150824271000,7.66527099609375,-0.03621697628498077,-0.06819704565256833,-0.02844130078218877
1772794150834316300,7.67531640625,-0.07834697600603104,-0.05718224209807813,-0.016799012979120016
1772794150844361000,7.68536083984375,-0.1221235738903284,-0.00024886019453406334,-0.006218509188666939
1772794150854406100,7.69540625,-0.16933423787653445,0.048571284814923996,0.008918342731893063
1772794150864451000,7.705451171875,-0.18212766847610473,0.06970635423697531,0.012852394245192408
1772794150874496300,7.715496337890625,-0.1631312915831804,0.035909298575297,-0.023246508618071673
1772794150884540200,7.7255400390625,-0.11514379800558089,-0.019829685911908746,-0.09688749889023601
1772794150894585000,7.735585205078125,-0.041724926051497455,-0.06054890551958233,-0.13371325472332538
1772794150904630300,7.74563037109375,0.0446639021128416,-0.08523078070301562,-0.14297463873922825
1772794150914675200,7.75567529296875,0.08583587045669555,-0.04332341075669974,-0.13836254183389246
1772794150924720000,7.76572021484375,0.07965338242948054,0.021304471172206102,-0.10930734693706035
1772794150934765000,7.77576513671875,0.0205652336448431,0.024081023213453588,-0.013759718348458409
1772794150944810200,7.785810302734375,-0.05308978515267372,0.05936090131141245,0.011147051632031798
1772794150954855200,7.795855224609375,-0.09686053781807422,0.04205006635263562,0.02817125166915357
1772794150964900400,7.805900390625,-0.07108487604856491,0.03897686945237219,0.0326736045897007
1772794150974945000,7.815945068359375,-0.03739303432703018,0.04771927109546959,-0.009784458041936159
1772794150984990200,7.825990234375,0.008610007435083389,0.04889584059417248,-0.012300970907509326
1772794150995035100,7.83603515625,0.04703881455063819,0.023262729100510478,-0.0258754688821733
1772794151005080300,7.846080322265625,0.07250818684995174,0.037563860849291086,-0.036755540141090746
1772794151015125200,7.856125244140625,0.05672843391597271,0.02374970889985561,-0.041260377279669046
1772794151025170200,7.866170166015625,0.0789537097275257,0.016659969834610818,-0.01774557311423123
1772794151035215000,7.876215087890625,0.06425181515812874,0.03935856224633753,0.003047770198062062
1772794151045260300,7.88626025390625,0.05351940874159336,0.06752630678415299,0.02389247837141156
1772794151055305200,7.89630517578125,0.07702303392589092,0.04516417978517711,0.04708111932240426
1772794151065349000,7.90634912109375,0.13183306699991226,0.010297887456789612,0.021434929151460527
1772794151075394000,7.91639404296875,0.18146306708753107,-0.0035231326248496768,-0.00425933794490993
1772794151085439200,7.926439208984375,0.2097089183628559,-0.005482888390496373,-0.03086545918919146
1772794151095484200,7.936484130859375,0.24152210673093794,0.04777925765439868,-0.03421944579221308
1772794151105529000,7.946529052734375,0.18723288266062735,0.09887158537954091,0.017290815084055066
1772794151115574000,7.956573974609375,0.108612350410223,0.10864398765750229,0.0643487727265805
1772794151125619200,7.966619140625,0.042702246651053426,0.09717252637669443,0.04895787297971546
1772794151135664000,7.9766640625,-0.0067488897383213035,0.06987586558498442,0.012151698629930615
1772794151145708000,7.9867080078125,-0.017319968113303184,0.05200440106876194,-0.04521057621017098
1772794151155753200,7.996753173828125,-0.009507833057641982,0.008460808222740888,-0.08888130256719887
1772794151165798100,8.006798095703125,0.06462181751430034,-0.012241276609525084,-0.06146612996235489
1772794151175843300,8.01684326171875,0.10398469060957431,-0.02118584976121783,-0.028011165736615655
1772794151185888000,8.026887939453125,0.0918073460817337,0.004528510275110602,0.02579553551375866
1772794151195933200,8.03693310546875,0.0033434652090072628,0.06515972378328443,0.0968677712764591
1772794151205978000,8.04697802734375,-0.08494681266248226,0.11552154527679086,0.15526377307847142
1772794151216023300,8.057023193359376,-0.13592881188094616,0.11428228580541908,0.14068192469216884
1772794151226068200,8.067068115234376,-0.15080664753913878,0.08287000638842582,0.06260229438543319
1772794151236113200,8.077113037109376,-0.1277443363815546,0.0345469972461462,-0.033136838187277314
1772794151246158000,8.087157958984376,-0.09723872348070144,-0.020009134132042528,-0.08611234931051731
1772794151256203300,8.097203369140624,-0.04714578205645084,-0.000336538477987051,-0.08376052548736333
1772794151266248200,8.107248291015624,0.011035188755393027,-0.002419628362357616,-0.09119520553275942
1772794151276293400,8.11729345703125,0.06852174756228924,0.022673969427123665,-0.06107545014433562
1772794151286338000,8.127338134765624,0.08806231433451175,0.0412634460195899,-0.03883957987353205
1772794151296382200,8.13738232421875,0.08837444902360439,0.057330199201405044,-0.03747830145768821
1772794151306427100,8.14742724609375,0.1005558852046728,0.05027260884009301,-0.004456248756498098
1772794151316472000,8.15747216796875,0.1443611246615648,0.03446998648717999,0.01633965183906257
1772794151326517000,8.16751708984375,0.14530688107907772,0.0030353491079062223,-0.011543065212294458
1772794151336562200,8.177562255859375,0.1397644445210695,-0.02486300390399992,-0.0283813872884959
1772794151346607000,8.187607177734375,0.1215530805259943,-0.050966801649332046,-0.014283011570200323
1772794151356652300,8.19765234375,0.11516776340305805,-0.023099501362815498,-0.013566460798680782
1772794151366697000,8.207697021484375,0.10266717827022075,0.01579538889452815,-0.001893631726875901
1772794151376742100,8.2177421875,0.02062894653081894,0.022474939723685382,0.027303528923913835
1772794151386787000,8.227787109375,-0.027118893072009084,-0.02699935834556818,0.03762494338676333
1772794151396831700,8.237831787109375,-0.040458267116546626,-0.06134849493205547,0.05580985776633024
1772794151406877000,8.247876953125,-0.013869535398483275,-0.041890564941987396,0.04628638874813914
1772794151416921900,8.257921875,0.0082914430052042,-0.015546747895702718,0.03926065482981503
1772794151426966800,8.267966796875,0.006904372560977936,0.037747766048833724,0.03766242585293948
1772794151437011700,8.27801171875,-0.03810030581355095,0.05233845532871782,0.023681831295415758
1772794151447057000,8.288056884765625,-0.07857552406489848,0.0318945830412209,0.015613675652071833
1772794151457101800,8.298101806640625,-0.10687456683218478,0.038127705277130004,-0.013318477386981248
1772794151467145700,8.308145751953125,-0.0997808091789484,0.038503041395545,-0.03303600816130638
1772794151477190700,8.318190673828125,-0.07833703913390636,0.017910627482831478,-0.06329100730195641
1772794151487237600,8.328237548828126,-0.003817512461543083,0.02741035029925406,-0.09838526316732167
1772794151497282800,8.33828271484375,0.05846154131889343,0.053672991868108505,-0.06872830298505724
1772794151507327700,8.34832763671875,0.13064298043251038,0.05478394878469407,-0.03514138294272125
1772794151517373000,8.358373046875,0.1337310095757246,0.06607756928056478,-0.03167436441928148
1772794151527417900,8.36841796875,0.11699907048344611,0.05217508146055042,-0.04049363069087267
1772794151537462800,8.378462890625,0.11996902620494365,0.049549189936369656,-0.06795695328637957
1772794151547507700,8.3885078125,0.09576163666546345,0.04810520167313516,-0.052741702367365355
1772794151557553000,8.398552978515625,0.08178980993628501,0.017552534760162233,-0.06397906263135374
1772794151567597800,8.408597900390625,0.04243979632258415,0.01788425093255937,-0.06275383168533444
1772794151577642800,8.418642822265625,0.008932663518190383,0.02364734450392425,-0.06079626787677407
1772794151587687700,8.428687744140625,-0.0256803847014904,0.07474873231835663,-0.034005583845824
1772794151597732900,8.43873291015625,-0.06637246057391166,0.087332173429057,-0.03456475209854543
1772794151607776800,8.44877685546875,-0.10701952826082706,0.06946604267507792,-0.033723259773105384
1772794151617821700,8.45882177734375,-0.12308277431130409,0.02670746272690594,-0.059278702920675275
1772794151627866600,8.46886669921875,-0.10211655865013598,0.020996026277542112,-0.08171192239448427
1772794151637911800,8.478911865234375,-0.07445815187394618,0.003763736447691917,-0.08629618144482373
1772794151647956700,8.488956787109375,-0.015226210704445837,0.000035582770034670826,-0.09152063809484243
1772794151658002000,8.499001953125,0.02290799737870693,0.01430493114106357,-0.11506693337708711
1772794151668046600,8.509046630859375,0.046534372159838674,0.032303602233529086,-0.11867233745791017
1772794151678091800,8.519091796875,0.04888999537527561,0.06630012599006295,-0.09496792900450528
1772794151688136700,8.52913671875,0.0013905775755643844,0.09564867781028151,-0.03705218500010669
1772794151698182000,8.539181884765625,-0.019527122768759727,0.1015145011037588,0.007761793107911944
1772794151708226600,8.5492265625,-0.020409166300296783,0.07800013532973825,0.02741049642972648
1772794151718271700,8.559271728515625,-0.00708498982489109,0.04455620395466685,0.006838979174569249
1772794151728316700,8.569316650390626,0.022846038058400152,0.03811864518783986,0.024681802118197083
1772794151738361900,8.57936181640625,0.017894553130865097,0.03868650820367038,0.0272364550370723
1772794151748406800,8.58940673828125,0.026999066084623335,0.0490418249361217,0.03928659298866987
1772794151758451700,8.59945166015625,0.043457448932528495,0.06877097308300435,0.054631461636722084
1772794151768496600,8.60949658203125,0.04858195233941078,0.06540485765077174,0.0632943683028221
1772794151778540800,8.619540771484376,0.08850538192689418,0.048180312735959886,0.06136325410977005
1772794151788586000,8.6295859375,0.12640402768850326,0.02204597372189164,0.05306362779811025
1772794151798630700,8.639630615234376,0.1353776077389717,0.021770956172794103,0.03216390150189399
1772794151808675800,8.64967578125,0.11163842023313045,0.04181450403109192,0.017772826447337863
1772794151818720800,8.659720703125,0.05936170502901077,0.037617052341252566,0.010356485776230693
1772794151828766000,8.669765869140624,0.006944120049476623,0.035087679994106294,0.008028408154845238
1772794151838810600,8.679810546875,-0.010149053570628166,0.03683839611895382,-0.04109218110591173
1772794151848855800,8.689855712890624,-0.01109480998814106,0.03624868659749627,-0.09785101016014813
1772794151858900700,8.699900634765624,0.014591419932246207,0.0489702940698713,-0.11280658722966909
1772794151868946000,8.70994580078125,0.053444005417823785,0.0791136495295912,-0.108511155058071
1772794151878990800,8.719990966796875,0.0750806676864624,0.07430551859550177,-0.09472001865804194
1772794151889035800,8.730035888671875,0.028636311897635457,0.03915434491112828,-0.10570734968371688
1772794151899080700,8.740080810546875,0.010770984861254692,0.0372656085550785,-0.07182824176177383
1772794151909126000,8.7501259765625,-0.015527823999524116,0.047757849540188906,-0.007011193936318159
1772794151919170800,8.7601708984375,-0.019313187757134437,0.01117116315998137,0.034741716100648044
1772794151929215700,8.7702158203125,-0.019601357048749924,0.021384879464656115,0.04294109690822661
1772794151939259600,8.780259765625,0.0097118311971426,0.012439064203947782,0.03972381536215543
1772794151949304800,8.790304931640625,0.02169452993571758,-0.0057392012391239405,0.05744556920938194
1772794151959349800,8.800349853515625,0.029061843833327293,0.039265842461585994,0.09332907575629651
1772794151969394700,8.810394775390625,0.033168694630265234,0.057067456611990926,0.1426172766689211
1772794151979439600,8.820439697265625,0.023826281267404555,0.06366758552938699,0.11320618100650608
1772794151989484800,8.83048486328125,0.002063362270593643,0.03738974639140069,0.06205649707093835
1772794151999529700,8.84052978515625,-0.02270809089243412,-0.00006152092888951302,-0.002978504354134202
1772794152009575000,8.850574951171875,-0.02942658549249172,-0.010615063647180794,-0.050864583383873105
1772794152019619600,8.86061962890625,-0.018387889605760575,-0.0008062018163502216,-0.07032916231043636
1772794152029664800,8.870664794921876,0.0514087001979351,0.03601137071028351,-0.05875811311267316
1772794152039709700,8.880709716796876,0.08103343861103057,0.054579146927595135,-0.04184921001829207
1772794152049755000,8.8907548828125,0.057684127205610274,0.04206840572692454,-0.0325885566547513
1772794152059799600,8.900799560546876,0.04603402142226696,0.016359379452839492,-0.023885610239207742
1772794152069844700,8.9108447265625,0.01539689109623432,0.005623612035438418,-0.028168986646831033
1772794152079889700,8.9208896484375,0.06158814890682697,-0.03232617939151823,-0.04525076209008693
1772794152089933800,8.930933837890626,0.09885784911513328,-0.04705342759788036,-0.04732552253752947
1772794152099978800,8.940978759765626,0.11439736355245113,-0.04562660966515541,-0.051719665843248365
1772794152110023700,8.951023681640624,0.08509586574435234,0.006606631723418832,0.00006933890916407107
1772794152120068900,8.96106884765625,0.012815642431378364,0.053994405842199916,0.04535334568172693
1772794152130113800,8.97111376953125,-0.03510346208512783,0.057672290637344116,0.09841887317597865
1772794152140159000,8.981158935546874,-0.05506196200847625,0.013483020298928021,0.1236661271572113
1772794152150203600,8.99120361328125,-0.04425415226817131,-0.020706541811674833,0.09999708227813243
1772794152160248800,9.001248779296875,-0.024792495951056478,-0.03179119573198259,0.07783303513452411
1772794152170293800,9.011293701171875,0.041937107497453684,-0.030279987451434134,0.028388547681644557
1772794152180339000,9.0213388671875,0.10627835450470446,-0.04818791152052581,-0.0036942514080554245
1772794152190383600,9.031383544921875,0.12190846983492373,-0.044026773253083226,-0.04227254999689758
1772794152200428800,9.0414287109375,0.09838555542826652,-0.02207614966444671,-0.05152721201106906
1772794152210473700,9.0514736328125,0.04406768978536129,0.01393207924067974,-0.0030136487327516075
1772794152220519000,9.061518798828125,-0.00206043966114521,0.002353138997405767,0.02828406439386308
1772794152230563800,9.071563720703125,-0.03622574411332607,-0.008486088794469833,-0.0001309329032897949
1772794152240608800,9.08160888671875,-0.031635493713617326,-0.04095335715711117,-0.008398118250072003
1772794152250652700,9.091652587890625,-0.022274375650286674,-0.07377864517718553,-0.03518690258488059
1772794152260697900,9.10169775390625,0.0035457097828388213,-0.06179653096050024,-0.04167560701705515
1772794152270742800,9.11174267578125,0.03236965320706367,-0.02618614226654172,-0.017038740019127724
1772794152280787700,9.12178759765625,0.07702946366667747,0.019903408735245466,0.058083794047683476
1772794152290832600,9.13183251953125,0.06888824278712272,0.05716397578902542,0.10610219422020017
1772794152300877800,9.1418779296875,0.05324468345344066,0.07158003915436566,0.11486666156463324
1772794152310922800,9.1519228515625,0.012433365115523337,0.06971387995630503,0.06533603019826113
1772794152320967700,9.1619677734375,-0.019718845948576928,0.047448199069127436,0.014051467836648224
1772794152331012600,9.1720126953125,-0.0319762699753046,0.009223170897364616,-0.04256934098638594
1772794152341057800,9.182057861328126,-0.035443069303035736,-0.02408054828941822,-0.07408529997356235
1772794152351102700,9.192102783203126,-0.04578969127237797,-0.013483824016526341,-0.1085488567199558
1772794152361148000,9.20214794921875,-0.0310264219045639,0.007985299665480852,-0.0585963466797024
1772794152371192600,9.212192626953126,0.003029576954245567,0.03684672555588186,-0.002881327589973807
1772794152381237800,9.22223779296875,0.05565116007328033,0.027556846097856757,0.01974419958554208
1772794152391282400,9.232282470703124,0.11024959622323513,0.04688267414085567,0.026463059511780736
1772794152401326600,9.24232666015625,0.09320084626674652,0.06794613963142036,0.042996553422510624
1772794152411371800,9.252371826171874,0.06252630653977394,0.049079818858951324,0.05454086074382066
1772794152421416400,9.26241650390625,0.001315174251794815,0.049418622359260915,0.03281768923550844
1772794152431461600,9.272461669921874,-0.01784428424835205,0.050566550285369154,0.011122647843137382
1772794152441506600,9.282506591796874,-0.023592472511529922,0.05533807553611696,-0.02447838850058615
1772794152451551700,9.2925517578125,-0.014645195946097374,0.028891382637247442,-0.02378514553941786
1772794152461596700,9.3025966796875,0.046404023778438566,-0.0016887568045407533,-0.048991994445025916
1772794152471641600,9.3126416015625,0.09172492849528789,0.01098309324197471,0.0024698241796344516
1772794152481686500,9.3226865234375,0.09240531197488308,0.04855535659343004,0.017289280714094638
1772794152491731700,9.332731689453125,0.11106792686879634,0.03852379192262888,0.014694953371956943
1772794152501776600,9.342776611328125,0.14704057300388812,-0.003055368982627988,-0.02451389820538461
1772794152511821600,9.352821533203125,0.1878320175975561,-0.03432159099243581,-0.03478825865611434
1772794152521866500,9.362866455078125,0.2007727477133274,-0.02276500871144235,0.022403262726962567
1772794152531911700,9.37291162109375,0.12023732175230979,0.025298107385635375,0.05724851226732135
1772794152541956600,9.38295654296875,0.0038870705664157865,0.07236585576981305,0.05984013619571924
1772794152552000500,9.39300048828125,-0.16167992373108864,0.07305361883826553,0.058009413637220855
1772794152562045700,9.403045654296875,-0.20596797826886176,0.10002930404730141,0.009697364280372857
1772794152572090600,9.413090576171875,-0.24177871184051036,0.09625373103134334,-0.022923998665437102
1772794152582135600,9.423135498046875,-0.1873059478968382,0.09861607624851167,-0.05725457668192684
1772794152592180700,9.4331806640625,-0.11725450654923915,0.08689699688218533,-0.10369279499091208
1772794152602225700,9.4432255859375,-0.033598318219184874,0.08298924885392188,-0.08441833180896938
1772794152612270600,9.4532705078125,0.09278057502806186,0.0622539924044162,-0.04388962980471551
1772794152622315500,9.4633154296875,0.24860709655582902,0.03314677505940199,-0.03756378778405487
1772794152632360700,9.473360595703125,0.3699871586024761,0.01623020011521876,-0.03082205843888223
1772794152642405600,9.483405517578126,0.43751463443040844,0.0521560114338994,-0.014898586185276508
1772794152652450600,9.493450439453126,0.3884598038822412,0.07371982766203582,0.011907733806222677
1772794152662495500,9.50349560546875,0.25848727005720135,0.08320113803893327,0.025763679070770738
