time,seconds_elapsed,z,y,x
1772794143230281500,0.071281494140625,0.03637092560529709,0.024145012721419334,0.07488565146923065
1772794143240326400,0.081326416015625,0.04327836632728577,0.04814542084932327,0.05753302946686745
1772794143250371600,0.09137158203125,0.042409639805555344,0.0482509471476078,0.023792391642928123
1772794143260416300,0.101416259765625,0.04028204083442688,0.038269151002168655,-0.005859244614839554
1772794143270461400,0.11146142578125,0.03683032467961311,0.02229219675064087,-0.034830424934625626
1772794143280506400,0.12150634765625,0.038883890956640244,0.022864775732159615,-0.057516828179359436
1772794143290551600,0.131551513671875,0.0411401130259037,0.028107963502407074,-0.07227513939142227
1772794143300596500,0.141596435546875,0.047055523842573166,0.023585118353366852,-0.07301309704780579
1772794143310641400,0.151641357421875,0.051389291882514954,0.013273036107420921,-0.06508323550224304
1772794143320686300,0.161686279296875,0.05785384774208069,-0.0008539678528904915,-0.050778862088918686
1772794143330731300,0.171731201171875,0.06015268713235855,-0.010173000395298004,-0.029310958459973335
1772794143340776400,0.1817763671875,0.05955374240875244,-0.023534344509243965,-0.011201729066669941
1772794143350821400,0.1918212890625,0.06058545038104057,-0.028576668351888657,0.00621948903426528
1772794143360866300,0.2018662109375,0.06791099905967712,-0.03273892402648926,0.020113732665777206
1772794143370911200,0.2119111328125,0.07169003039598465,-0.04515686631202698,0.025794722139835358
1772794143380956000,0.221955810546875,0.07313958555459976,-0.05273915082216263,0.038707323372364044
1772794143391001000,0.2320009765625,0.07126526534557343,-0.0574568547308445,0.050452664494514465
1772794143401046000,0.2420458984375,0.06898480653762817,-0.05580116808414459,0.06885511428117752
1772794143411091200,0.25209130859375,0.06932301074266434,-0.05885925889015198,0.07757684588432312
1772794143421136100,0.26213623046875,0.06465102732181549,-0.055646687746047974,0.07793237268924713
1772794143431181000,0.27218115234375,0.06482920050621033,-0.06362403929233551,0.07374536991119385
1772794143441226000,0.28222607421875,0.0621950700879097,-0.07047901302576065,0.0557866096496582
1772794143451271200,0.292271240234375,0.07105567306280136,-0.07314615696668625,0.04555106535553932
1772794143461316000,0.302316162109375,0.0771215558052063,-0.06374174356460571,0.03374261036515236
1772794143471361000,0.312361083984375,0.08540930598974228,-0.0537104569375515,0.0272680651396513
1772794143481405000,0.322405029296875,0.09055958688259125,-0.04366661235690117,0.02108766697347164
1772794143491450000,0.3324501953125,0.08831507712602615,-0.02995234727859497,0.011283156462013721
1772794143501495000,0.3424951171875,0.08053412288427353,-0.017452800646424294,0.003355990629643202
1772794143511540000,0.3525400390625,0.07635243237018585,-0.007757890969514847,0.00017962325364351273
1772794143521585000,0.3625849609375,0.07148976624011993,-0.005361578427255154,0.00327634671702981
1772794143531630000,0.372630126953125,0.068478524684906,-0.007614495232701302,0.0001718817511573434
1772794143541675000,0.382675048828125,0.06421906501054764,-0.009579109027981758,-0.00002332800067961216
1772794143551720200,0.39272021484375,0.06012072414159775,-0.016732310876250267,-0.00100132345687598
1772794143561764900,0.402764892578125,0.0518534779548645,-0.023636022582650185,0.0023824889212846756
1772794143571810000,0.41281005859375,0.03638078272342682,-0.02312396466732025,0.009883217513561249
1772794143581855000,0.42285498046875,0.03452695906162262,-0.019123896956443787,0.023334046825766563
1772794143591900200,0.432900146484375,0.01959248073399067,-0.013645130209624767,0.0372825525701046
1772794143601944800,0.44294482421875,0.007338741794228554,-0.012238981202244759,0.04825211316347122
1772794143611990000,0.452989990234375,-0.006610363256186247,-0.01598935015499592,0.04648735001683235
1772794143622035000,0.463034912109375,-0.012746818363666534,-0.012500076554715633,0.045358702540397644
1772794143632080100,0.473080078125,-0.005289966706186533,-0.015428544022142887,0.044548336416482925
1772794143642125000,0.483125,0.013441110029816628,-0.014904433861374855,0.0499713309109211
1772794143652170000,0.493169921875,0.032623596489429474,-0.02339843288064003,0.0543922483921051
1772794143662215000,0.50321484375,0.05390092357993126,-0.04702093452215195,0.05154479667544365
1772794143672260000,0.513260009765625,0.05411263555288315,-0.06862187385559082,0.03852531313896179
1772794143682305000,0.523304931640625,0.04101600497961044,-0.08932209014892578,0.031491369009017944
1772794143692350200,0.53335009765625,0.02731139212846756,-0.10532936453819275,0.034243904054164886
1772794143702395000,0.543394775390625,0.019776243716478348,-0.11380966752767563,0.04381876811385155
1772794143712440000,0.553440185546875,0.000844893860630691,-0.1053372398018837,0.058316148817539215
1772794143722485000,0.563485107421875,-0.010845051147043705,-0.09535065293312073,0.07342612743377686
1772794143732530200,0.5735302734375,-0.02125774696469307,-0.08926591277122498,0.07965933531522751
1772794143742574800,0.583574951171875,-0.03112475946545601,-0.07738128304481506,0.08500456809997559
1772794143752620000,0.5936201171875,-0.04725339636206627,-0.07115865498781204,0.0800250992178917
1772794143762665000,0.6036650390625,-0.059920720756053925,-0.05930225923657417,0.08461879193782806
1772794143772710100,0.613710205078125,-0.07227885723114014,-0.0401778407394886,0.0943848192691803
1772794143782755000,0.623755126953125,-0.08005208522081375,-0.020015046000480652,0.1004757359623909
1772794143792800000,0.633800048828125,-0.08761627227067947,0.002846451010555029,0.10939709097146988
1772794143802845000,0.643844970703125,-0.09796105325222015,0.019981762394309044,0.11253775656223297
1772794143812890000,0.65389013671875,-0.10840409994125366,0.030472103506326675,0.10636136680841446
1772794143822935000,0.66393505859375,-0.1173320859670639,0.032569609582424164,0.1011386439204216
1772794143832980000,0.67397998046875,-0.11885488033294678,0.04055061936378479,0.10622173547744751
1772794143843025000,0.68402490234375,-0.11685031652450562,0.05349145084619522,0.10784999281167984
1772794143853070000,0.694070068359375,-0.10845445096492767,0.0630837082862854,0.10428636521100998
1772794143863114200,0.7041142578125,-0.10298644751310349,0.059622667729854584,0.08870234340429306
1772794143873159000,0.714158935546875,-0.10338830202817917,0.03344530984759331,0.06529112905263901
1772794143883204000,0.7242041015625,-0.10639581084251404,0.009595106355845928,0.043083030730485916
1772794143893249000,0.7342490234375,-0.10794470459222794,-0.008804736658930779,0.024916796013712883
1772794143903294200,0.744294189453125,-0.10215979069471359,-0.013917473144829273,0.012646548449993134
1772794143913339100,0.754339111328125,-0.09125201404094696,-0.0013280105777084827,0.01730511337518692
1772794143923384000,0.764384033203125,-0.0805162787437439,0.014541499316692352,0.023239968344569206
1772794143933429000,0.774428955078125,-0.07113556563854218,0.028459716588258743,0.027950085699558258
1772794143943474200,0.78447412109375,-0.0738072469830513,0.03183048218488693,0.021023469045758247
1772794143953519000,0.79451904296875,-0.0783844143152237,0.014683662913739681,0.01278394740074873
1772794143963564000,0.80456396484375,-0.07810159027576447,0.0070212166756391525,0.012053708545863628
1772794143973609000,0.81460888671875,-0.07588023692369461,0.002132438588887453,0.025959840044379234
1772794143983654100,0.824654052734375,-0.0742700919508934,-0.006094332784414291,0.03675442934036255
1772794143993699000,0.834698974609375,-0.06870967894792557,-0.011767188087105751,0.03945650905370712
1772794144003744000,0.844743896484375,-0.0671200379729271,-0.010098717175424099,0.046877939254045486
1772794144013789000,0.854788818359375,-0.06510137766599655,-0.0019976776093244553,0.045339394360780716
1772794144023834000,0.864834228515625,-0.06646038591861725,-0.005565781146287918,0.04489917308092117
1772794144033879000,0.874879150390625,-0.06778130680322647,-0.004092210903763771,0.041813768446445465
1772794144043924000,0.884924072265625,-0.06692882627248764,-0.005297024734318256,0.03113183006644249
1772794144053969200,0.89496923828125,-0.06014576181769371,-0.0025828855577856302,0.016799429431557655
1772794144064014000,0.90501416015625,-0.047598011791706085,-0.01102590560913086,0.0013280609855428338
1772794144074059000,0.91505908203125,-0.032670725136995316,-0.022079361602663994,-0.011088443920016289
1772794144084104000,0.92510400390625,-0.025676997378468513,-0.037313442677259445,-0.015163878910243511
1772794144094149000,0.935149169921875,-0.01251220516860485,-0.04193427041172981,-0.018342697992920876
1772794144104194000,0.945194091796875,0.0007261022692546248,-0.03956006094813347,-0.01872752420604229
1772794144114239000,0.955239013671875,0.016825199127197266,-0.029525313526391983,-0.017631178721785545
1772794144124284000,0.965283935546875,0.03374559432268143,-0.016645200550556183,-0.01389929000288248
1772794144134329000,0.9753291015625,0.04747097194194794,-0.00023662904277443886,-0.013144789263606071
1772794144144374000,0.9853740234375,0.054429277777671814,0.011666636914014816,-0.022901015356183052
1772794144154419000,0.9954189453125,0.051639895886182785,0.013478527776896954,-0.047529689967632294
1772794144164463900,1.0054638671875,0.04577002301812172,-0.003846134524792433,-0.069825679063797
1772794144174509000,1.015509033203125,0.037191182374954224,-0.021596530452370644,-0.09076569229364395
1772794144184554000,1.025553955078125,0.03245208412408829,-0.03986208885908127,-0.09288211166858673
1772794144194599200,1.03559912109375,0.03312533348798752,-0.060355640947818756,-0.07869092375040054
1772794144204643800,1.045643798828125,0.03579515218734741,-0.06823034584522247,-0.05466148629784584
1772794144214689000,1.05568896484375,0.041838139295578,-0.06728467345237732,-0.02608506754040718
1772794144224734000,1.06573388671875,0.05005558952689171,-0.065618596971035,0.00004453712608665228
1772794144234779100,1.075779052734375,0.05499335005879402,-0.06423177570104599,0.026565026491880417
1772794144244823000,1.085822998046875,0.05168170854449272,-0.06884117424488068,0.04223453253507614
1772794144254868000,1.095867919921875,0.0506553128361702,-0.08043213188648224,0.057286765426397324
1772794144264913200,1.1059130859375,0.05056289955973625,-0.09390266984701157,0.0680488646030426
1772794144274958000,1.1159580078125,0.05052642524242401,-0.1038377583026886,0.07513266056776047
1772794144285003000,1.1260029296875,0.04646510258316994,-0.10692276805639267,0.07944457978010178
1772794144295048000,1.1360478515625,0.043682631105184555,-0.10673064738512039,0.07635573297739029
1772794144305093000,1.146093017578125,0.04156035929918289,-0.09944796562194824,0.07243262976408005
1772794144315138000,1.156137939453125,0.03750116750597954,-0.09763877838850021,0.05669083446264267
1772794144325183200,1.166183349609375,0.02921154908835888,-0.09419211745262146,0.035231348127126694
1772794144335228000,1.176227783203125,0.017825733870267868,-0.09569130837917328,0.01937159150838852
1772794144345273000,1.186273193359375,0.006674811244010925,-0.0930236205458641,-0.002003470901399851
1772794144355318000,1.196318115234375,-0.001133045880123973,-0.09385217726230621,-0.017496861517429352
1772794144365363200,1.20636328125,-0.00897951703518629,-0.09752334654331207,-0.022688427940011024
1772794144375407900,1.216407958984375,-0.008198142051696777,-0.10118338465690613,-0.03152720630168915
1772794144385452500,1.22645263671875,-0.0006475477130152285,-0.10155676305294037,-0.03639599680900574
1772794144395497500,1.23649755859375,0.004261990077793598,-0.08602573722600937,-0.03332457318902016
1772794144405542700,1.246542724609375,0.0028489166870713234,-0.07261618971824646,-0.021768586710095406
1772794144415587300,1.25658740234375,-0.007958188652992249,-0.07307074964046478,-0.003033064305782318
1772794144425632500,1.266632568359375,-0.014558034017682076,-0.06120556592941284,0.01796542853116989
1772794144435677400,1.276677490234375,-0.01633196882903576,-0.051919277757406235,0.029496315866708755
1772794144445722600,1.28672265625,-0.018541859462857246,-0.04533354565501213,0.031052134931087494
1772794144455767300,1.296767333984375,-0.017008410766720772,-0.04593057557940483,0.02173045463860035
1772794144465812500,1.3068125,-0.019312310963869095,-0.04754897952079773,0.018039580434560776
1772794144475857400,1.316857421875,-0.017367402091622353,-0.04552263766527176,0.012715955264866352
1772794144485902600,1.326902587890625,-0.01218409277498722,-0.03697255626320839,0.011096486821770668
1772794144495947500,1.336947509765625,-0.012366250157356262,-0.02275458537042141,0.012286454439163208
1772794144505992400,1.346992431640625,-0.01346427109092474,-0.010935476049780846,0.015652157366275787
1772794144516037400,1.357037353515625,-0.020454544574022293,-0.008196507580578327,0.008963310159742832
1772794144526082600,1.36708251953125,-0.02758835442364216,-0.00788065604865551,0.00690415408462286
1772794144536127500,1.37712744140625,-0.03938429057598114,0.00255217170342803,-0.001831430708989501
1772794144546172400,1.38717236328125,-0.05041510611772537,0.007156511303037405,-0.00565439835190773
1772794144556217300,1.39721728515625,-0.04869949445128441,0.008461032062768936,-0.0021276907064020634
1772794144566262500,1.407262451171875,-0.04919297993183136,0.012704245746135712,-0.005301113240420818
1772794144576307500,1.417307373046875,-0.05173097550868988,0.02086406759917736,0.00026687385980039835
1772794144586352600,1.4273525390625,-0.04849044233560562,0.032382771372795105,0.006023562978953123
1772794144596397300,1.437397216796875,-0.046231817454099655,0.03434143215417862,0.006146016996353865
1772794144606442500,1.4474423828125,-0.043175842612981796,0.035870350897312164,0.0011632423847913742
1772794144616486700,1.457486572265625,-0.03644789010286331,0.04132475703954697,-0.0039349948056042194
1772794144626531600,1.467531494140625,-0.030914906412363052,0.04884658753871918,-0.008594727143645287
1772794144636576500,1.477576416015625,-0.030200377106666565,0.05612830072641373,-0.017410755157470703
1772794144646621400,1.487621337890625,-0.03667585179209709,0.04936866834759712,-0.029459159821271896
1772794144656666600,1.49766650390625,-0.04113133251667023,0.03833787888288498,-0.034387409687042236
1772794144666711600,1.507711669921875,-0.04389835521578789,0.02545723132789135,-0.02900116704404354
1772794144676756500,1.517756591796875,-0.0401424914598465,0.022767266258597374,-0.019082438200712204
1772794144686801400,1.527801513671875,-0.027156122028827667,0.02689489908516407,-0.004138377495110035
1772794144696846600,1.5378466796875,-0.021230589598417282,0.035165879875421524,0.006232238374650478
1772794144706891500,1.5478916015625,-0.018554378300905228,0.03130403161048889,0.0074897827580571175
1772794144716936700,1.557936767578125,-0.01790296472609043,0.02584368921816349,-0.00006854988168925047
1772794144726981400,1.5679814453125,-0.010960903018712997,0.010158736258745193,-0.013449602760374546
1772794144737026600,1.578026611328125,-0.002607631729915738,-0.0031469494570046663,-0.019847847521305084
1772794144747071500,1.588071533203125,0.0017687409417703748,-0.014539952389895916,-0.024242596700787544
1772794144757116700,1.59811669921875,0.004573322366923094,-0.020466936752200127,-0.018780700862407684
1772794144767161600,1.60816162109375,0.0035599893890321255,-0.022568702697753906,-0.008740582503378391
1772794144777206500,1.61820654296875,-0.0031511900015175343,-0.03135108947753906,0.0015757502987980843
1772794144787251500,1.62825146484375,0.004236152395606041,-0.03159503638744354,0.013527750968933105
1772794144797296600,1.638296630859375,0.006722220219671726,-0.02393052540719509,0.026423776522278786
1772794144807341600,1.648341552734375,0.011534285731613636,-0.019432179629802704,0.03405533358454704
1772794144817386500,1.658386474609375,0.010041316971182823,-0.019348233938217163,0.035668905824422836
1772794144827431400,1.668431396484375,0.011700998991727829,-0.026519328355789185,0.03297831490635872
1772794144837476600,1.6784765625,0.010423747822642326,-0.035470638424158096,0.022641673684120178
1772794144847521500,1.688521484375,0.010129202157258987,-0.04660691320896149,0.01958329789340496
1772794144857566700,1.698566650390625,0.013013934716582298,-0.04625111073255539,0.02180921658873558
1772794144867611400,1.708611328125,0.020998358726501465,-0.043157048523426056,0.028531035408377647
1772794144877656600,1.718656494140625,0.027491681277751923,-0.03621222451329231,0.03462658077478409
1772794144887701500,1.728701416015625,0.02651856280863285,-0.022686561569571495,0.03800772875547409
1772794144897746700,1.73874658203125,0.023344608023762703,-0.012401167303323746,0.032552510499954224
1772794144907791400,1.748791259765625,0.01652451790869236,-0.00809670053422451,0.025391535833477974
1772794144917836500,1.75883642578125,0.01276866253465414,-0.003326607635244727,0.01696011796593666
1772794144927881500,1.768881591796875,0.00855101365596056,0.0008023572154343128,0.006178843788802624
1772794144937926700,1.7789267578125,0.011973170563578606,-0.0027360671665519476,0.001455708872526884
1772794144947971600,1.7889716796875,0.01418971922248602,0.0018746634013950825,-0.004290593788027763
1772794144958015500,1.799015380859375,0.01597857102751732,0.011546719819307327,-0.009705963544547558
1772794144968060400,1.809060302734375,0.016022779047489166,0.03537055850028992,-0.024767469614744186
1772794144978105600,1.819105712890625,0.017706425860524178,0.051514171063899994,-0.040792226791381836
1772794144988150500,1.829150634765625,0.021914485841989517,0.06779541075229645,-0.05501750111579895
1772794144998195500,1.839195556640625,0.019989293068647385,0.08801001310348511,-0.07191924005746841
1772794145008240400,1.849240478515625,0.017884863540530205,0.10931610316038132,-0.08031804859638214
1772794145018285600,1.85928564453125,0.017269399017095566,0.10417333990335464,-0.08460646867752075
1772794145028330500,1.86933056640625,0.022902783006429672,0.09030945599079132,-0.08903903514146805
1772794145038375400,1.87937548828125,0.029924210160970688,0.08272971957921982,-0.09919866174459457
1772794145048420400,1.88942041015625,0.03992677479982376,0.06560266762971878,-0.11509933322668076
1772794145058465500,1.899465576171875,0.05208863317966461,0.03796156123280525,-0.12073197960853577
1772794145068510500,1.909510498046875,0.05241832882165909,0.015311909839510918,-0.1221407949924469
1772794145078555600,1.9195556640625,0.056209344416856766,-0.006404948886483908,-0.1038043349981308
1772794145088600300,1.929600341796875,0.06209519878029823,-0.014376855455338955,-0.07840177416801453
1772794145098645500,1.9396455078125,0.07170787453651428,-0.01578454114496708,-0.03608252853155136
1772794145108690400,1.9496904296875,0.0754014104604721,-0.00971013680100441,0.00797041691839695
1772794145118735600,1.959735595703125,0.07967578619718552,-0.005217761732637882,0.04286668077111244
1772794145128780500,1.969780517578125,0.07462776452302933,0.0016052569262683392,0.0635213628411293
1772794145138825500,1.979825439453125,0.07413188368082047,0.009258605539798737,0.07506389915943146
1772794145148870400,1.989870361328125,0.06701165437698364,0.008092939853668213,0.07891349494457245
1772794145158915600,1.99991552734375,0.05689883604645729,0.003343552350997925,0.06611625850200653
1772794145168960500,2.00996044921875,0.05284017696976662,-0.005047003272920847,0.05221003666520119
1772794145179005400,2.02000537109375,0.047842755913734436,-0.007153774611651897,0.03265680372714996
1772794145189050400,2.03005029296875,0.0422690249979496,-0.009179641492664814,0.0038696317933499813
1772794145199095600,2.040095458984375,0.037108615040779114,-0.011651530861854553,-0.01744261384010315
1772794145209140500,2.050140380859375,0.03058706782758236,-0.00929117202758789,-0.0379103422164917
1772794145219185700,2.060185546875,0.026661841198801994,-0.001235920935869217,-0.04220478609204292
1772794145229230300,2.070230224609375,0.019817249849438667,0.012326493859291077,-0.03738472983241081
1772794145239275500,2.080275634765625,0.016651811078190804,0.021927734836935997,-0.025339951738715172
1772794145249320400,2.090320556640625,0.013183576986193657,0.028245283290743828,-0.01647695153951645
1772794145259365600,2.10036572265625,0.01164427399635315,0.029800403863191605,-0.010858380235731602
1772794145269409500,2.110409423828125,0.016244351863861084,0.029030751436948776,-0.008434104733169079
1772794145279454500,2.120454345703125,0.017367932945489883,0.023719940334558487,-0.01520486082881689
1772794145289499600,2.130499755859375,0.016222240403294563,0.014858271926641464,-0.029948653653264046
1772794145299544600,2.140544677734375,0.013074650429189205,-0.003946040757000446,-0.03667260333895683
1772794145309589500,2.150589599609375,0.0011226498754695058,-0.03154570981860161,-0.035171110183000565
1772794145319634400,2.160634521484375,-0.0029594358056783676,-0.041969817131757736,-0.00686455424875021
1772794145329679600,2.1706796875,0.001992712263017893,-0.052852559834718704,0.027619654312729836
1772794145339724500,2.180724609375,0.0011202555615454912,-0.055963706225156784,0.061158839613199234
1772794145349769500,2.19076953125,0.002622544765472412,-0.064796082675457,0.08255094289779663
1772794145359814400,2.200814453125,-0.001434245496056974,-0.06853409856557846,0.09989073127508163
1772794145369859600,2.210859619140625,-0.005028447601944208,-0.06459581851959229,0.11227549612522125
1772794145379905000,2.220905029296875,-0.0056353844702243805,-0.06091628596186638,0.11797619611024857
1772794145389949700,2.23094970703125,-0.014698388054966927,-0.05224157124757767,0.1040143072605133
1772794145399995000,2.240994873046875,-0.02159678004682064,-0.049097590148448944,0.07671449333429337
1772794145410039800,2.251039794921875,-0.027471181005239487,-0.04529859125614166,0.041878484189510345
1772794145420085000,2.2610849609375,-0.023893747478723526,-0.037281639873981476,0.00287710502743721
1772794145430129700,2.271129638671875,-0.021499566733837128,-0.026186376810073853,-0.025625908747315407
1772794145440174800,2.2811748046875,-0.022823425009846687,-0.013482293114066124,-0.053230322897434235
1772794145450219800,2.2912197265625,-0.022737406194210052,-0.0034746669698506594,-0.07377421855926514
1772794145460265000,2.301264892578125,-0.026534277945756912,0.0037532136775553226,-0.08505108207464218
1772794145470310000,2.311309814453125,-0.02405088022351265,0.007541027385741472,-0.09194254875183105
1772794145480354800,2.321354736328125,-0.02446500025689602,0.005693481303751469,-0.09145459532737732
1772794145490399700,2.331399658203125,-0.02789701521396637,0.000060096848756074905,-0.08171514421701431
1772794145500445000,2.34144482421875,-0.030078677460551262,-0.0042455969378352165,-0.06967883557081223
1772794145510489900,2.35148974609375,-0.02983579784631729,-0.00856870599091053,-0.05678780749440193
1772794145520534800,2.36153466796875,-0.0253134835511446,-0.013840699568390846,-0.0426807776093483
1772794145530579700,2.371579833984375,-0.018857181072235107,-0.02433169074356556,-0.022801877930760384
1772794145540625000,2.381625,-0.00960695929825306,-0.03598232567310333,-0.004742599092423916
1772794145550669800,2.391669921875,-0.006337129510939121,-0.03633732721209526,0.019065529108047485
1772794145560715000,2.401715087890625,-0.002049174625426531,-0.034271083772182465,0.027479369193315506
1772794145570759700,2.411759765625,0.001574855181388557,-0.036020778119564056,0.03360117971897125
1772794145580803800,2.421803955078125,0.00511153182014823,-0.032209210097789764,0.032317500561475754
1772794145590849000,2.43184912109375,0.004017505329102278,-0.037395983934402466,0.02435145154595375
1772794145600894000,2.44189404296875,0.001959682907909155,-0.04641302675008774,0.012689271941781044
1772794145610939000,2.45193896484375,0.0052550784312188625,-0.06086333841085434,0.007026325911283493
1772794145620983800,2.46198388671875,0.013513268902897835,-0.06719626486301422,0.0026665297336876392
1772794145631029000,2.472029052734375,0.017851291224360466,-0.06677468866109848,-0.007008201442658901
1772794145641074000,2.482073974609375,0.02595476619899273,-0.06477610766887665,-0.01691998541355133
1772794145651118800,2.492118896484375,0.028711671009659767,-0.07046622037887573,-0.020989030599594116
1772794145661163800,2.502163818359375,0.02681177482008934,-0.05994705855846405,-0.028306612744927406
1772794145671209000,2.512208984375,0.025878868997097015,-0.05964212864637375,-0.03174581751227379
1772794145681254000,2.52225390625,0.014176402240991592,-0.058553364127874374,-0.03579407557845116
1772794145691299000,2.532299072265625,-0.0019152153981849551,-0.05558287724852562,-0.03447367995977402
1772794145701343700,2.54234375,-0.012821657583117485,-0.05335919186472893,-0.030460529029369354
1772794145711389000,2.552388916015625,-0.017830532044172287,-0.04406076297163963,-0.027472995221614838
1772794145721433900,2.562433837890625,-0.02021912857890129,-0.03393327817320824,-0.028973272070288658
1772794145731479000,2.57247900390625,-0.02930290438234806,-0.028620271012187004,-0.035201072692871094
1772794145741524000,2.58252392578125,-0.03324704244732857,-0.020348500460386276,-0.040630776435136795
1772794145751569000,2.59256884765625,-0.03779945150017738,-0.009210361167788506,-0.04717442765831947
1772794145761613800,2.60261376953125,-0.04607468843460083,-0.0077496785670518875,-0.04766100272536278
1772794145771659000,2.612658935546875,-0.05312647297978401,-0.013343116268515587,-0.055166590958833694
1772794145781704000,2.622703857421875,-0.05280342698097229,-0.023598477244377136,-0.0582638643682003
1772794145791748900,2.632748779296875,-0.056499361991882324,-0.031357865780591965,-0.0560329332947731
1772794145801793800,2.642793701171875,-0.04375826567411423,-0.0457259863615036,-0.05656890943646431
1772794145811839000,2.6528388671875,-0.033106688410043716,-0.04875507205724716,-0.050458554178476334
1772794145821884000,2.6628837890625,-0.022501451894640923,-0.04590499773621559,-0.037563931196928024
1772794145831929000,2.67292919921875,-0.012377445586025715,-0.039801035076379776,-0.025760266929864883
1772794145841973800,2.682973876953125,-0.008247943595051765,-0.056186459958553314,-0.02059081941843033
1772794145852019000,2.69301904296875,-0.004036154597997665,-0.07729999721050262,-0.02192346565425396
1772794145862063900,2.70306396484375,0.00576693844050169,-0.09455142170190811,-0.014486539177596569
1772794145872109000,2.713109130859375,0.01945824921131134,-0.1066480278968811,-0.006406508851796389
1772794145882152700,2.723152587890625,0.033069394528865814,-0.10685819387435913,0.010813623666763306
1772794145892198000,2.733197998046875,0.04617374390363693,-0.09809426218271255,0.030407562851905823
1772794145902242800,2.743242919921875,0.051261451095342636,-0.09546215832233429,0.03989570587873459
1772794145912288000,2.7532880859375,0.04882892221212387,-0.09424936026334763,0.03739446774125099
1772794145922332700,2.763332763671875,0.04802997410297394,-0.09839456528425217,0.02366187795996666
1772794145932377900,2.7733779296875,0.042352378368377686,-0.0998755544424057,0.014689421281218529
1772794145942422800,2.7834228515625,0.03510138392448425,-0.0965433344244957,0.008741633035242558
1772794145952468000,2.793468017578125,0.023737674579024315,-0.09218107908964157,0.007961060851812363
1772794145962513000,2.803512939453125,0.016159923747181892,-0.08920533210039139,0.01201534178107977
1772794145972557800,2.813557861328125,0.010094041004776955,-0.08074153959751129,0.021767038851976395
1772794145982602800,2.823602783203125,0.007962174713611603,-0.06877290457487106,0.034072473645210266
1772794145992648000,2.83364794921875,0.005381038878113031,-0.061091020703315735,0.03871303051710129
1772794146002692900,2.84369287109375,0.006285451352596283,-0.05846573784947395,0.04180361330509186
1772794146012737800,2.85373779296875,0.00778614217415452,-0.05562068149447441,0.03675505891442299
1772794146022782700,2.86378271484375,0.011473563499748707,-0.05276498943567276,0.02645753137767315
1772794146032828000,2.873827880859375,0.019129086285829544,-0.04782775789499283,0.019449690356850624
1772794146042872800,2.883872802734375,0.023033805191516876,-0.044669657945632935,0.011290062218904495
1772794146052918000,2.89391796875,0.02613292634487152,-0.046889930963516235,0.004440145567059517
1772794146062962700,2.903962646484375,0.0281209833920002,-0.047560371458530426,0.004414547700434923
1772794146073007900,2.9140078125,0.028699155896902084,-0.04790392518043518,0.007036429829895496
1772794146083052800,2.924052734375,0.027415769174695015,-0.0488564595580101,0.009534856304526329
1772794146093098000,2.934097900390625,0.02715105004608631,-0.044261444360017776,0.004866600502282381
1772794146103143000,2.944142822265625,0.022868957370519638,-0.0446133092045784,0.006647972855716944
1772794146113187800,2.954187744140625,0.00898057222366333,-0.03618866577744484,0.014086714945733547
1772794146123232800,2.964232666015625,0.002761822659522295,-0.029252829030156136,0.017659245058894157
1772794146133278000,2.97427783203125,-0.0077629899606108665,-0.019379692152142525,0.011153941974043846
1772794146143323000,2.984322998046875,-0.01174973789602518,-0.01184732373803854,-0.002019633539021015
1772794146153367800,2.994367919921875,-0.004182897973805666,-0.009677913039922714,-0.021242065355181694
1772794146163412700,3.004412841796875,-0.011514583602547646,0.009421484544873238,-0.026523329317569733
1772794146173458000,3.0144580078125,-0.02189451828598976,0.022344740107655525,-0.024352585896849632
1772794146183502000,3.024502197265625,-0.03108881413936615,0.018747497349977493,-0.02561832033097744
1772794146193546800,3.034546630859375,-0.029391847550868988,0.02642831951379776,-0.02892516739666462
1772794146203592000,3.044592041015625,-0.029815027490258217,0.042800962924957275,-0.036261361092329025
1772794146213636900,3.054636962890625,-0.029322875663638115,0.05245838314294815,-0.05319933220744133
1772794146223682000,3.06468212890625,-0.02713349275290966,0.055712345987558365,-0.07018370926380157
1772794146233727000,3.07472705078125,-0.027538293972611427,0.04744749143719673,-0.07916735112667084
1772794146243772000,3.08477197265625,-0.023774446919560432,0.04282583296298981,-0.08475684374570847
1772794146253816800,3.09481689453125,-0.01804465427994728,0.035966068506240845,-0.07986488193273544
1772794146263862000,3.104862060546875,-0.01234495546668768,0.033326175063848495,-0.07570226490497589
1772794146273907000,3.114906982421875,-0.005355222150683403,0.018575988709926605,-0.06463469564914703
1772794146283951900,3.124951904296875,0.005120313726365566,0.020345361903309822,-0.04933806508779526
1772794146293996800,3.134996826171875,0.012602997943758965,0.0230972059071064,-0.033009693026542664
1772794146304042000,3.1450419921875,0.019594067707657814,0.016879135742783546,-0.021542152389883995
1772794146314087000,3.1550869140625,0.01656232587993145,0.004081581253558397,-0.018792705610394478
1772794146324131800,3.1651318359375,0.01320380624383688,0.0011783801019191742,-0.007334455847740173
1772794146334176800,3.1751767578125,0.016822509467601776,0.002874813973903656,0.0033277757465839386
1772794146344222000,3.185221923828125,0.023272158578038216,0.0014422331005334854,0.013325749896466732
1772794146354267000,3.195266845703125,0.022862564772367477,-0.005137639120221138,0.011255407705903053
1772794146364311800,3.205311767578125,0.023150714114308357,-0.009021531790494919,0.007848975248634815
1772794146374357000,3.21535693359375,0.02275523543357849,-0.010973362252116203,0.0035463711246848106
1772794146384401700,3.225401611328125,0.02665703557431698,-0.006571540143340826,-0.003028955776244402
1772794146394446600,3.235446533203125,0.03117934986948967,-0.0030409875325858593,-0.01076677069067955
1772794146404491800,3.24549169921875,0.030380673706531525,0.0055260187946259975,-0.01902228593826294
1772794146414536700,3.25553662109375,0.03366940841078758,0.016726475208997726,-0.029709551483392715
1772794146424581600,3.26558154296875,0.03432134911417961,0.020459644496440887,-0.0370992086827755
1772794146434626600,3.27562646484375,0.030969761312007904,0.020065762102603912,-0.03783610463142395
1772794146444671700,3.285671630859375,0.03106830269098282,0.015288523398339748,-0.04321250692009926
1772794146454716700,3.295716552734375,0.026947328820824623,0.008525425568223,-0.04159889742732048
1772794146464761900,3.305761962890625,0.020804207772016525,-0.00525833573192358,-0.040396299213171005
1772794146474805500,3.315805419921875,0.025121724233031273,-0.015203378163278103,-0.030177751556038857
1772794146484850700,3.3258505859375,0.030687199905514717,-0.00677495589479804,-0.009947930462658405
1772794146494895600,3.3358955078125,0.033137038350105286,-0.007516379933804274,0.012975494377315044
1772794146504940500,3.3459404296875,0.029567871242761612,0.00160303246229887,0.029653890058398247
1772794146514985500,3.3559853515625,0.023821834474802017,0.007873712107539177,0.04013103246688843
1772794146525030700,3.36603076171875,0.013479449786245823,0.011890500783920288,0.042217917740345
1772794146535075600,3.37607568359375,0.001347952289506793,0.010325893759727478,0.03452164679765701
1772794146545120800,3.386120849609375,-0.007064174395054579,-0.0026129677426069975,0.023486990481615067
1772794146555165400,3.39616552734375,-0.010366227477788925,-0.0070319510996341705,0.008812441490590572
1772794146565210600,3.406210693359375,-0.00849003717303276,-0.01799963042140007,0.0058114733546972275
1772794146575255600,3.416255615234375,-0.006067626178264618,-0.024533430114388466,0.005886041559278965
1772794146585300700,3.42630078125,0.0005343555239960551,-0.028969524428248405,0.009585373103618622
1772794146595345700,3.436345703125,0.004960795398801565,-0.023364635184407234,0.012746544554829597
1772794146605390600,3.446390625,0.010213613510131836,-0.012075971812009811,0.01984250545501709
1772794146615435500,3.456435546875,0.013235235586762428,-0.004914998542517424,0.02326759696006775
1772794146625480700,3.466480712890625,0.012820584699511528,0.004155560862272978,0.022111352533102036
1772794146635525600,3.476525634765625,0.015685081481933594,0.010208392515778542,0.02346530370414257
1772794146645570600,3.486570556640625,0.013441631570458412,0.012436239048838615,0.016530631110072136
1772794146655615500,3.496615478515625,0.012108453549444675,0.0155356265604496,0.007868966087698936
1772794146665660700,3.50666064453125,0.01823771931231022,0.014665361493825912,-0.005761925131082535
1772794146675705600,3.51670556640625,0.018821217119693756,0.012313524261116982,-0.023228799924254417
1772794146685750800,3.526750732421875,0.021344292908906937,0.012492602691054344,-0.03803066536784172
1772794146695795500,3.53679541015625,0.026081256568431854,0.015924885869026184,-0.04308774322271347
1772794146705840600,3.546840576171875,0.027123086154460907,0.015730418264865875,-0.03823569789528847
1772794146715885600,3.556885498046875,0.026372872292995453,0.021854624152183533,-0.03578159213066101
1772794146725930800,3.5669306640625,0.029150286689400673,0.020627645775675774,-0.031154099851846695
1772794146735975400,3.576975341796875,0.03249335289001465,0.007877228781580925,-0.025388622656464577
1772794146746020600,3.5870205078125,0.037716615945100784,-0.0006104870699346066,-0.019971884787082672
1772794146756064800,3.597064697265625,0.0386926643550396,0.0011895433999598026,-0.014655416831374168
1772794146766109700,3.607109619140625,0.03719276934862137,-0.0013260669074952602,-0.0036423485726118088
1772794146776154600,3.617154541015625,0.04094622656702995,-0.005124267190694809,0.0047652507200837135
1772794146786199600,3.627199462890625,0.04369061812758446,-0.00873349979519844,0.013108419254422188
1772794146796244700,3.63724462890625,0.050407376140356064,-0.005815740674734116,0.017551369965076447
1772794146806289700,3.64728955078125,0.06078703701496124,-0.00933082029223442,0.018280260264873505
1772794146816334800,3.6573349609375,0.0682380273938179,-0.02418966218829155,0.015625886619091034
1772794146826379500,3.667379638671875,0.06707397103309631,-0.033365923911333084,0.015755685046315193
1772794146836424700,3.6774248046875,0.07187565416097641,-0.042285919189453125,0.016146637499332428
1772794146846469600,3.6874697265625,0.0716807097196579,-0.0390053316950798,0.01766292378306389
1772794146856514800,3.697514892578125,0.07121651619672775,-0.03559888154268265,0.01737716607749462
1772794146866559500,3.7075595703125,0.06619513034820557,-0.03329136222600937,0.01468690950423479
1772794146876604700,3.717604736328125,0.05463860556483269,-0.03492947295308113,0.016767369583249092
1772794146886649600,3.727649658203125,0.041314806789159775,-0.03298348933458328,0.018185067921876907
1772794146896694800,3.73769482421875,0.037051089107990265,-0.029506733641028404,0.023823246359825134
1772794146906739700,3.74773974609375,0.03442281484603882,-0.024516824632883072,0.022067725658416748
1772794146916784600,3.75778466796875,0.03413279727101326,-0.025981564074754715,0.02436976134777069
1772794146926829600,3.76782958984375,0.0306890569627285,-0.022719023749232292,0.028912747278809547
1772794146936874800,3.777874755859375,0.017493894323706627,-0.01759962923824787,0.03254210576415062
1772794146946919700,3.787919677734375,0.01840762421488762,-0.018051302060484886,0.025885265320539474
1772794146956964600,3.797964599609375,0.015959113836288452,-0.01687418483197689,0.015127693302929401
1772794146967009500,3.808009521484375,0.010401368141174316,-0.01300073228776455,0.0021357461810112
1772794146977054700,3.8180546875,0.004859330132603645,-0.007288252469152212,-0.010684710927307606
1772794146987099600,3.828099609375,-0.002497652778401971,-0.0007734671235084534,-0.016022901982069016
1772794146997144600,3.83814453125,-0.011796878650784492,0.00577711034566164,-0.013317662291228771
1772794147007189500,3.848189453125,-0.011300735175609589,0.0020917835645377636,-0.011878090910613537
1772794147017233700,3.858233642578125,-0.014511441811919212,-0.002043040469288826,-0.011337735690176487
1772794147027278600,3.868278564453125,-0.011470370925962925,-0.003304596757516265,-0.010932817123830318
1772794147037323800,3.87832373046875,-0.00027311075245961547,0.0028683440759778023,-0.010575687512755394
1772794147047368400,3.888368408203125,0.00508276978507638,0.012264782562851906,-0.0123863210901618
1772794147057413600,3.89841357421875,0.008079624734818935,0.037644706666469574,-0.014314982108771801
1772794147067458600,3.90845849609375,0.01180192083120346,0.06237616017460823,-0.024615725502371788
1772794147077503700,3.918503662109375,0.01968540996313095,0.0771804079413414,-0.040704146027565
1772794147087548700,3.928548583984375,0.031028883531689644,0.0761992335319519,-0.06450967490673065
1772794147097593600,3.938593505859375,0.02402290515601635,0.06558547914028168,-0.08747970312833786
1772794147107638500,3.948638427734375,0.01594739407300949,0.05415099486708641,-0.09558412432670593
1772794147117683700,3.95868359375,0.00800132192671299,0.05876412242650986,-0.08485531806945801
1772794147127728600,3.968728759765625,0.006457753013819456,0.06128799915313721,-0.06049937382340431
1772794147137773600,3.978773681640625,0.009941700845956802,0.06052953004837036,-0.03631547465920448
1772794147147816700,3.988816650390625,0.005837504751980305,0.049202997237443924,-0.014051646925508976
1772794147157861600,3.998861572265625,0.0016265143640339375,0.027443639934062958,0.003005366772413254
1772794147167906600,4.008906494140625,-0.001951968646608293,0.013781235553324223,0.01783914305269718
1772794147177951500,4.018951416015625,-0.004265190567821264,0.002940838225185871,0.028219878673553467
1772794147187996700,4.02899658203125,-0.006281210109591484,-0.004592961631715298,0.03781752660870552
1772794147198041600,4.03904150390625,-0.006509443279355764,-0.013749442063272,0.03927267715334892
1772794147208086800,4.049086669921875,-0.011294073425233364,-0.022244831547141075,0.04346827045083046
1772794147218131500,4.05913134765625,-0.021695846691727638,-0.029758408665657043,0.04189833626151085
1772794147228176600,4.0691767578125,-0.03278232738375664,-0.040080491453409195,0.0356828011572361
1772794147238221600,4.0792216796875,-0.03460579365491867,-0.040268778800964355,0.03082146868109703
1772794147248266800,4.089266845703125,-0.036350421607494354,-0.03896049037575722,0.02520003542304039
1772794147258311400,4.0993115234375,-0.039851680397987366,-0.038170330226421356,0.01996905729174614
1772794147268356600,4.109356689453125,-0.0424107164144516,-0.04014228284358978,0.014803305268287659
1772794147278401500,4.119401611328125,-0.04038378223776817,-0.03415895998477936,0.008347801864147186
1772794147288446700,4.12944677734375,-0.03374239057302475,-0.03334258869290352,0.009761873632669449
1772794147298491600,4.13949169921875,-0.029972422868013382,-0.0223943330347538,0.010967752896249294
1772794147308536600,4.14953662109375,-0.026298323646187782,-0.00386417075060308,0.012505795806646347
1772794147318581500,4.15958154296875,-0.015564187429845333,0.0033607184886932373,0.008831165730953217
1772794147328625700,4.169625732421875,-0.007544612977653742,0.01586964726448059,-0.004162114579230547
1772794147338670800,4.1796708984375,-0.00200577056966722,0.026476221159100533,-0.016760997474193573
1772794147348715500,4.189715576171875,0.0020888373255729675,0.02268015593290329,-0.03925799950957298
1772794147358760700,4.1997607421875,0.006671871058642864,0.02008197456598282,-0.05184090510010719
1772794147368805600,4.2098056640625,0.01949259452521801,0.028447074815630913,-0.05824294313788414
1772794147378850800,4.219850830078125,0.03259827569127083,0.04685324430465698,-0.06129838898777962
1772794147388895700,4.229895751953125,0.040293220430612564,0.05564645305275917,-0.06790876388549805
1772794147398941000,4.23994091796875,0.043307650834321976,0.05635032430291176,-0.07094956189393997
1772794147408985900,4.24998583984375,0.04564590007066727,0.040974050760269165,-0.07694952189922333
1772794147419030800,4.26003076171875,0.05143747478723526,0.02536952681839466,-0.07274332642555237
1772794147429076000,4.270075927734375,0.05742266774177551,0.01604009047150612,-0.06325606256723404
1772794147439121000,4.280120849609375,0.06509017199277878,0.003299527335911989,-0.04103704169392586
1772794147449165800,4.290165771484375,0.064773790538311,-0.004888683557510376,-0.014561992138624191
1772794147459210800,4.300210693359375,0.05808845907449722,-0.014978068880736828,0.012853387743234634
1772794147469256000,4.310255859375,0.04686136916279793,-0.017516162246465683,0.04156456142663956
1772794147479300900,4.32030078125,0.042266618460416794,-0.0214693583548069,0.06103599816560745
1772794147489345800,4.330345703125,0.03454877436161041,-0.02257073111832142,0.07706096768379211
1772794147499390700,4.340390625,0.029800092801451683,-0.026590771973133087,0.07778401672840118
1772794147509436000,4.350435791015625,0.016988957300782204,-0.039772406220436096,0.07284069061279297
1772794147519480800,4.360480712890625,0.0060958294197916985,-0.053244542330503464,0.06265942752361298
1772794147529525800,4.37052587890625,0.0009948096703737974,-0.053136467933654785,0.057805899530649185
1772794147539570700,4.38057080078125,-0.000958086340688169,-0.05359932780265808,0.0501069650053978
1772794147549615900,4.390615966796875,-0.0035490733571350574,-0.054245203733444214,0.044767044484615326
1772794147559660800,4.400660888671875,-0.008175516501069069,-0.057802386581897736,0.03919171541929245
1772794147569706000,4.4107060546875,-0.008720927871763706,-0.05180000513792038,0.034345582127571106
1772794147579750700,4.420750732421875,-0.006386134773492813,-0.04638154059648514,0.03276046738028526
1772794147589795800,4.4307958984375,-0.007594682741910219,-0.0442192517220974,0.03002067282795906
1772794147599840800,4.4408408203125,-0.010309242643415928,-0.04791199043393135,0.030934669077396393
1772794147609886000,4.450885986328125,-0.010948137380182743,-0.0466700941324234,0.028344495221972466
1772794147619931000,4.460930908203125,-0.012757223099470139,-0.04360346496105194,0.02602461539208889
1772794147629975800,4.470975830078125,-0.014049651101231575,-0.04590247943997383,0.01935264840722084
1772794147640020700,4.481020751953125,-0.019238021224737167,-0.044485677033662796,0.014731798321008682
1772794147650066000,4.49106591796875,-0.013153227046132088,-0.042325541377067566,0.010153425857424736
1772794147660110800,4.50111083984375,-0.013901309110224247,-0.04047331213951111,0.0022409071680158377
1772794147670155800,4.51115576171875,-0.01335749588906765,-0.041835833340883255,-0.0011129452614113688
1772794147680200700,4.52120068359375,-0.013691987842321396,-0.045388489961624146,0.002408818807452917
1772794147690246000,4.531245849609375,-0.0160592719912529,-0.04758330434560776,0.009892684407532215
1772794147700290800,4.541290771484375,-0.017376471310853958,-0.04869117960333824,0.017514649778604507
1772794147710336000,4.5513359375,-0.01943402923643589,-0.04503897950053215,0.029251767322421074
1772794147720380700,4.561380615234375,-0.02455928362905979,-0.04371192678809166,0.032324790954589844
1772794147730425900,4.57142578125,-0.02829357236623764,-0.048495322465896606,0.029392331838607788
1772794147740470800,4.581470703125,-0.03502071648836136,-0.0474281944334507,0.02917555160820484
1772794147750515000,4.591514892578125,-0.03730890527367592,-0.03935226798057556,0.02896096743643284
1772794147760559900,4.601559814453125,-0.03380391746759415,-0.02844156324863434,0.028094375506043434
1772794147770604800,4.611604736328125,-0.03249683976173401,-0.016736112534999847,0.018934449180960655
1772794147780650000,4.62164990234375,-0.032240644097328186,-0.008408406749367714,0.01032631378620863
1772794147790695000,4.63169482421875,-0.03201800212264061,-0.005745145492255688,0.002904449589550495
1772794147800739800,4.64173974609375,-0.03772755339741707,-0.007790985517203808,-0.0004527313867583871
1772794147810784800,4.65178466796875,-0.0350276418030262,-0.01258083712309599,-0.003980954177677631
1772794147820830000,4.661829833984375,-0.03014926239848137,-0.013409346342086792,-0.004466181620955467
1772794147830875000,4.671875,-0.026190470904111862,-0.016538619995117188,-0.0030528586357831955
1772794147840920000,4.681920166015625,-0.021804245188832283,-0.02101645991206169,0.005047145299613476
1772794147850964700,4.69196484375,-0.017240919172763824,-0.028563058003783226,0.01376793347299099
1772794147861010000,4.702010009765625,-0.018745604902505875,-0.040657270699739456,0.027098119258880615
1772794147871054800,4.712054931640625,-0.02148013934493065,-0.05372209846973419,0.035185541957616806
1772794147881100000,4.72210009765625,-0.02749462239444256,-0.06693164259195328,0.04248553141951561
1772794147891144700,4.732144775390625,-0.025352640077471733,-0.08106131851673126,0.05543750151991844
1772794147901190000,4.74218994140625,-0.023514525964856148,-0.08177690953016281,0.0707450807094574
1772794147911234800,4.75223486328125,-0.022768307477235794,-0.07938677817583084,0.08510914444923401
1772794147921280000,4.762280029296875,-0.0189522635191679,-0.08959787338972092,0.09314842522144318
1772794147931325000,4.772324951171875,-0.0174409206956625,-0.09078872203826904,0.09589988738298416
1772794147941369900,4.782369873046875,-0.013269344344735146,-0.08003674447536469,0.08941855281591415
1772794147951414800,4.792414794921875,-0.004117927048355341,-0.05961460620164871,0.07015630602836609
1772794147961460000,4.8024599609375,0.005465458147227764,-0.03268791735172272,0.040525179356336594
1772794147971505000,4.8125048828125,0.02124682068824768,-0.013545071706175804,0.005685039330273867
1772794147981550000,4.822550048828125,0.03284009173512459,-0.005291136913001537,-0.02890143357217312
1772794147991593700,4.83259375,0.038556572049856186,0.004492401145398617,-0.05213190242648125
1772794148001639000,4.842638916015625,0.04813596233725548,0.007345179095864296,-0.061999447643756866
1772794148011683800,4.852683837890625,0.06349281221628189,0.004233935382217169,-0.05622909218072891
1772794148021728800,4.862728759765625,0.07139866799116135,0.01936947926878929,-0.04022509232163429
1772794148031773700,4.872773681640625,0.07170439511537552,0.03136207163333893,-0.02738313190639019
1772794148041819000,4.88281884765625,0.07187244296073914,0.03632593899965286,-0.014815675094723701
1772794148051863800,4.89286376953125,0.06948918104171753,0.03641999140381813,-0.014880789443850517
1772794148061909000,4.902908935546875,0.06561295688152313,0.029446769505739212,-0.019311489537358284
1772794148071953700,4.91295361328125,0.06035906448960304,0.026301953941583633,-0.030184444040060043
1772794148081998800,4.922998779296875,0.052561063319444656,0.018660545349121094,-0.03622449189424515
1772794148092043800,4.933043701171875,0.045032572001218796,0.010250227525830269,-0.045811306685209274
1772794148102089000,4.9430888671875,0.043473027646541595,0.008455522358417511,-0.03778667002916336
1772794148112134000,4.9531337890625,0.040828511118888855,0.013302786275744438,-0.029601577669382095
1772794148122178800,4.9631787109375,0.03815602883696556,0.017853597179055214,-0.023570051416754723
1772794148132223700,4.9732236328125,0.045101553201675415,0.021359438076615334,-0.014708948321640491
1772794148142269000,4.98326904296875,0.04921374097466469,0.032329000532627106,-0.002668531145900488
1772794148152313900,4.99331396484375,0.046604640781879425,0.038422100245952606,0.0036716230679303408
1772794148162358800,5.00335888671875,0.04210389778017998,0.037390924990177155,0.007837340235710144
1772794148172403700,5.01340380859375,0.03787665814161301,0.03126715496182442,0.006427411455661058
1772794148182449000,5.023448974609375,0.03559592738747597,0.015498313121497631,-0.0018528884975239635
1772794148192493800,5.033493896484375,0.038654573261737823,0.010223113000392914,-0.009474954567849636
1772794148202539000,5.0435390625,0.035713110119104385,0.00016115838661789894,-0.015163200907409191
1772794148212583700,5.053583740234375,0.035040926188230515,0.002651756629347801,-0.017443832010030746
1772794148222628900,5.06362890625,0.03388191759586334,0.0025460291653871536,-0.01451249048113823
1772794148232673800,5.073673828125,0.03243209794163704,0.00021676253527402878,-0.015469430945813656
1772794148242718000,5.083718017578125,0.03151996433734894,0.0021334397606551647,-0.012030224315822124
1772794148252763000,5.093762939453125,0.026808034628629684,0.005662122741341591,-0.010721596889197826
1772794148262807800,5.103807861328125,0.018817219883203506,0.012747463770210743,0.0017968580359593034
1772794148272853000,5.11385302734375,0.014310082420706749,0.02384619601070881,0.016156189143657684
1772794148282898000,5.12389794921875,0.012778498232364655,0.02637593261897564,0.019406311213970184
1772794148292942800,5.13394287109375,0.010880725458264351,0.034291822463274,0.012314845807850361
1772794148302987800,5.14398779296875,0.004944273736327887,0.0372130423784256,0.00020997982937842607
1772794148313033000,5.154032958984375,0.0031647542491555214,0.036117829382419586,-0.011992973275482655
1772794148323078000,5.164077880859375,-0.0037131253629922867,0.035092778503894806,-0.02679615467786789
1772794148333123000,5.174123046875,-0.011606737971305847,0.04142120108008385,-0.02796408347785473
1772794148343167700,5.184167724609375,-0.014548465609550476,0.056092023849487305,-0.021310441195964813
1772794148353213000,5.194212890625,-0.018875032663345337,0.07639248669147491,-0.016124302521348
1772794148363257900,5.2042578125,-0.026341205462813377,0.08553431928157806,-0.008403798565268517
1772794148373303000,5.214302978515625,-0.030114376917481422,0.09405709058046341,-0.010698610916733742
1772794148383348000,5.224347900390625,-0.023285498842597008,0.09683237224817276,-0.02646425925195217
1772794148393393200,5.23439306640625,-0.02245299331843853,0.09264273196458817,-0.03394601121544838
1772794148403438300,5.244438232421875,-0.02743709832429886,0.08729430288076401,-0.0541657954454422
1772794148413483300,5.254483154296875,-0.03058229386806488,0.07662291824817657,-0.0704314187169075
1772794148423528400,5.264528564453125,-0.03510327637195587,0.06309778988361359,-0.0729513019323349
1772794148433573400,5.274573486328125,-0.044613685458898544,0.05456298589706421,-0.07863496989011765
1772794148443618300,5.284618408203125,-0.056963030248880386,0.04896049574017525,-0.07348041981458664
1772794148453663200,5.294663330078125,-0.05501998960971832,0.03999566659331322,-0.058884214609861374
1772794148463708400,5.30470849609375,-0.04417133703827858,0.037515994161367416,-0.0461156889796257
1772794148473752300,5.31475244140625,-0.03417409583926201,0.02567206136882305,-0.04177342355251312
1772794148483797200,5.32479736328125,-0.029691729694604874,0.023242458701133728,-0.033781543374061584
1772794148493842400,5.334842529296875,-0.02822033315896988,0.011019613593816757,-0.018026283010840416
1772794148503887400,5.344887451171875,-0.019165052101016045,-0.005288785323500633,-0.004192491993308067
1772794148513932500,5.3549326171875,-0.008298291824758053,-0.010074003599584103,0.007437349297106266
1772794148523977200,5.364977294921875,0.0023082797415554523,-0.01935884729027748,0.017615685239434242
1772794148534022400,5.3750224609375,0.009217584505677223,-0.03879816457629204,0.012849541381001472
1772794148544067300,5.3850673828125,0.021458538249135017,-0.0632110983133316,0.010566946119070053
1772794148554112500,5.395112548828125,0.028901806101202965,-0.08713848143815994,0.012598056346178055
1772794148564157400,5.405157470703125,0.03459884226322174,-0.10084177553653717,0.020478883758187294
1772794148574202400,5.415202392578125,0.04218725115060806,-0.10421387106180191,0.028782134875655174
1772794148584247300,5.425247314453125,0.040406130254268646,-0.09766755253076553,0.04150165989995003
1772794148594292500,5.43529248046875,0.035473957657814026,-0.0898771584033966,0.04500418156385422
1772794148604337400,5.44533740234375,0.022402893751859665,-0.08580012619495392,0.049750469624996185
1772794148614382300,5.45538232421875,0.013376111164689064,-0.08812987059354782,0.04802863299846649
1772794148624427300,5.46542724609375,0.0015500786248594522,-0.090029776096344,0.03691206872463226
1772794148634472400,5.475472412109375,-0.0063246251083910465,-0.08835037052631378,0.03360212594270706
1772794148644517400,5.485517333984375,-0.014225691556930542,-0.09009740501642227,0.03720032051205635
1772794148654562600,5.4955625,-0.016301888972520828,-0.08862793445587158,0.04282596707344055
1772794148664607200,5.505607177734375,-0.012457616627216339,-0.08649899810552597,0.04431787133216858
1772794148674652400,5.51565234375,-0.010497530922293663,-0.08193220943212509,0.036460477858781815
1772794148684697300,5.525697265625,-0.008665808476507664,-0.07918809354305267,0.024798231199383736
1772794148694742500,5.535742431640625,-0.004046822898089886,-0.07633253931999207,0.007880166172981262
1772794148704786200,5.5457861328125,-0.003519783029332757,-0.06704156845808029,-0.004518979229032993
1772794148714831400,5.555831298828125,-0.003238022793084383,-0.05742808058857918,-0.015508946031332016
1772794148724876300,5.565876220703125,-0.003574380185455084,-0.04262863099575043,-0.0072909630835056305
1772794148734921500,5.57592138671875,-0.008019191212952137,-0.03704485297203064,-0.0019160219235345721
1772794148744966100,5.585966064453125,-0.0015873913653194904,-0.039727188646793365,-0.0007298499695025384
1772794148755011300,5.59601123046875,0.005375441163778305,-0.03098263591527939,0.0022015077993273735
1772794148765056300,5.60605615234375,0.008796538226306438,-0.019458338618278503,-0.004124565050005913
1772794148775101400,5.616101318359375,0.00663139158859849,-0.007534101605415344,-0.015031340532004833
1772794148785146400,5.626146484375,0.0051445490680634975,0.0008740308694541454,-0.021510813385248184
1772794148795191300,5.63619140625,-0.0010992363095283508,0.005045832600444555,-0.034668777137994766
1772794148805236200,5.646236328125,-0.0053528374992311,0.003010378684848547,-0.04252883046865463
1772794148815281400,5.656281494140625,-0.012015002779662609,0.004206197336316109,-0.05484966188669205
1772794148825326300,5.666326416015625,-0.00835262332111597,-0.013549096882343292,-0.06267828494310379
1772794148835371300,5.676371337890625,-0.000019590253941714764,-0.015163887292146683,-0.05762918293476105
1772794148845416200,5.686416259765625,0.011163288727402687,-0.01658601500093937,-0.042383916676044464
1772794148855461400,5.69646142578125,0.015496520325541496,-0.02237844467163086,-0.027101336047053337
1772794148865506300,5.70650634765625,0.025603216141462326,-0.026789437979459763,-0.006407775916159153
1772794148875551500,5.716551513671875,0.026357421651482582,-0.026862988248467445,0.008552930317819118
1772794148885596200,5.72659619140625,0.02471797913312912,-0.022870376706123352,0.01912328414618969
1772794148895641300,5.736641357421875,0.022944847121834755,-0.010733979754149914,0.03349731117486954
1772794148905686300,5.746686279296875,0.021124841645359993,-0.006361335515975952,0.0352717749774456
1772794148915731500,5.7567314453125,0.015673883259296417,-0.00910875853151083,0.023977959528565407
1772794148925776400,5.7667763671875,0.01666324771940708,-0.008246161043643951,0.011042986065149307
1772794148935820300,5.7768203125,0.017008932307362556,-0.014448465779423714,0.00520735140889883
1772794148945865500,5.786865478515625,0.02256055735051632,-0.018416309729218483,-0.001873727422207594
1772794148955910400,5.796910400390625,0.024259114637970924,-0.020404867827892303,-0.0054298629984259605
1772794148965955300,5.806955322265625,0.02525540255010128,-0.026666760444641113,-0.006680483464151621
1772794148976000300,5.817000244140625,0.025588300079107285,-0.021184973418712616,-0.002952124457806349
1772794148986045400,5.82704541015625,0.022583454847335815,-0.023501921445131302,-0.0008197315619327128
1772794148996090400,5.83709033203125,0.022235382348299026,-0.022194793447852135,0.003981598187237978
1772794149006135600,5.847135498046875,0.02435419335961342,-0.013133654370903969,0.009512451477348804
1772794149016180200,5.85718017578125,0.022210612893104553,-0.004520398564636707,0.015923229977488518
1772794149026225400,5.867225341796875,0.02062922716140747,0.003461628220975399,0.01985751837491989
1772794149036270300,5.877270263671875,0.022410083562135696,0.015863487496972084,0.020874494686722755
1772794149046315500,5.8873154296875,0.024163242429494858,0.03306644409894943,0.01922253705561161
1772794149056360400,5.8973603515625,0.021211661398410797,0.045018553733825684,0.017325500026345253
1772794149066405400,5.9074052734375,0.0076215495355427265,0.03701202571392059,0.012805849313735962
1772794149076450300,5.9174501953125,0.003820421639829874,0.033364661037921906,0.0035035274922847748
1772794149086495500,5.92749560546875,0.00302813109010458,0.032641347497701645,-0.0038286875933408737
1772794149096540400,5.93754052734375,0.00790384504944086,0.03395348787307739,-0.009068140760064125
1772794149106585300,5.94758544921875,0.009092680178582668,0.031210167333483696,-0.01162157952785492
1772794149116630300,5.95763037109375,0.008867910131812096,0.020733343437314034,-0.010933768004179
1772794149126675500,5.967675537109375,0.0028971030842512846,0.006084891967475414,-0.011007005348801613
1772794149136720400,5.977720458984375,0.006915547885000706,0.0005688425153493881,-0.004036114551126957
1772794149146764300,5.987764404296875,0.009373379871249199,-0.0005667293444275856,0.01399801392108202
1772794149156809200,5.997809326171875,0.012742276303470135,-0.0019976412877440453,0.029660914093255997
1772794149166854400,6.0078544921875,0.009330234490334988,0.0016074799932539463,0.04931291192770004
1772794149176899300,6.0178994140625,0.008099323138594627,-0.0012132390402257442,0.0639076679944992
1772794149186944500,6.027944580078125,0.0030544972978532314,-0.0014249603264033794,0.0684044137597084
1772794149196989200,6.0379892578125,-0.0008768640109337866,-0.00016122590750455856,0.06966521590948105
1772794149207034400,6.048034423828125,0.002905357163399458,0.0057344804517924786,0.06969024986028671
1772794149217079300,6.058079345703125,0.004246532451361418,0.010756539180874825,0.06403729319572449
1772794149227124500,6.06812451171875,0.004452661145478487,0.013609848916530609,0.051024824380874634
1772794149237169200,6.078169189453125,0.010358747094869614,0.01336272805929184,0.030355433002114296
1772794149247214300,6.08821435546875,0.013563062995672226,0.012717444449663162,0.00552651472389698
1772794149257259300,6.09825927734375,0.016678960993885994,0.010168317705392838,-0.01954270340502262
1772794149267304400,6.108304443359375,0.019411098212003708,0.016113024204969406,-0.028527142480015755
1772794149277349400,6.118349365234375,0.022829532623291016,0.029300300404429436,-0.029833855107426643
1772794149287394300,6.128394287109375,0.021430574357509613,0.019866585731506348,-0.035807326436042786
1772794149297439200,6.138439208984375,0.03843805938959122,0.03078697808086872,-0.024412892758846283
1772794149307484400,6.148484375,0.04492738097906113,0.05264966934919357,-0.003794698743149638
1772794149317529300,6.158529296875,0.04222266748547554,0.047045912593603134,0.008838655427098274
1772794149327574300,6.16857421875,0.03229733183979988,0.0279553085565567,0.011429643258452415
1772794149337619200,6.178619140625,0.02606181427836418,0.014247365295886993,0.007982148788869381
1772794149347664400,6.188664306640625,0.028263982385396957,0.010068332776427269,0.0170371625572443
1772794149357708500,6.19870849609375,0.033231571316719055,0.010921995155513287,0.022754469886422157
1772794149367753200,6.208753173828125,0.030179589986801147,-0.007418395020067692,0.02361840009689331
1772794149377798400,6.21879833984375,0.02700030617415905,-0.02125851809978485,0.027309557422995567
1772794149387843000,6.228843017578125,0.026295367628335953,-0.027122799307107925,0.03477120399475098
1772794149397888300,6.23888818359375,0.02104121819138527,-0.030022665858268738,0.04991353675723076
1772794149407933200,6.24893310546875,0.020906729623675346,-0.026094239205121994,0.06259684264659882
1772794149417978000,6.25897802734375,0.01475429441779852,-0.01799524948000908,0.0692748948931694
1772794149428023000,6.26902294921875,0.008601327426731586,-0.019402198493480682,0.06718618422746658
1772794149438068200,6.279068115234375,-0.006322761997580528,-0.0221874862909317,0.05386285483837128
1772794149448113200,6.289113037109375,-0.0136182252317667,-0.018596215173602104,0.0402117595076561
1772794149458158300,6.299158447265625,-0.009270879440009594,-0.01032998412847519,0.028723811730742455
1772794149468203000,6.309203125,-0.006236206740140915,-0.008994407951831818,0.01768660731613636
1772794149478248200,6.319248291015625,-0.00003690371522679925,-0.0033896658569574356,0.004561252426356077
1772794149488293000,6.329293212890625,-0.0025218992959707975,0.002559036947786808,-0.01075298897922039
1772794149498338300,6.33933837890625,-0.009824552573263645,0.0028466535732150078,-0.020475974306464195
1772794149508383200,6.34938330078125,-0.01571333408355713,0.008672318421304226,-0.028838833793997765
1772794149518428200,6.35942822265625,-0.02125324308872223,0.0027799694798886776,-0.03093409165740013
1772794149528473000,6.36947314453125,-0.02071634866297245,0.006681500468403101,-0.02665945142507553
1772794149538518300,6.379518310546875,-0.020096896216273308,0.0015191687270998955,-0.015244893729686737
1772794149548563200,6.389563232421875,-0.02034030854701996,-0.003258276032283902,-0.008996052667498589
1772794149558608100,6.399608154296875,-0.013341258279979229,-0.0023983782157301903,0.0061975158751010895
1772794149568652000,6.409652099609375,-0.010589680634438992,-0.0014921044930815697,0.017656564712524414
1772794149578697200,6.419697265625,-0.007294283248484135,-0.0027342664543539286,0.026113631203770638
1772794149588742100,6.4297421875,-0.005819424521178007,-0.009029978886246681,0.028372524306178093
1772794149598787000,6.439787109375,-0.005240987986326218,-0.007406347431242466,0.026863262057304382
1772794149608832000,6.44983203125,0.0025407690554857254,0.00015916069969534874,0.035125453025102615
1772794149618877200,6.459877197265625,0.010729726403951645,0.010791442357003689,0.04007458686828613
1772794149628922000,6.469922119140625,0.010270064696669579,0.020839016884565353,0.045632872730493546
1772794149638967300,6.47996728515625,0.0033213451970368624,0.013816632330417633,0.04868074506521225
1772794149649012000,6.490011962890625,0.004865446127951145,0.016242504119873047,0.044014886021614075
1772794149659057200,6.50005712890625,-0.0018944585463032126,0.014914239756762981,0.03335908055305481
1772794149669102000,6.51010205078125,-0.006771239452064037,0.019769717007875443,0.015875957906246185
1772794149679147300,6.520147216796875,-0.015407603234052658,0.03255416080355644,-0.011950895190238953
1772794149689192000,6.53019189453125,-0.02450123243033886,0.03309930860996246,-0.03650017827749252
1772794149699237000,6.540237060546875,-0.028631530702114105,0.029409028589725494,-0.05569569393992424
1772794149709282000,6.550281982421875,-0.03213678300380707,0.0313723087310791,-0.06194720044732094
1772794149719327200,6.5603271484375,-0.028763355687260628,0.0246967151761055,-0.049683328717947006
1772794149729372200,6.5703720703125,-0.02425622195005417,0.01803002506494522,-0.030585000291466713
1772794149739417000,6.5804169921875,-0.018359985202550888,0.016260413452982903,-0.0057571325451135635
1772794149749462000,6.5904619140625,-0.013729546219110489,0.012587381526827812,0.017526352778077126
1772794149759507200,6.600507080078125,-0.006111042108386755,0.01123705692589283,0.029615940526127815
1772794149769551400,6.61055126953125,-0.0016593019245192409,0.008003979921340942,0.03125325217843056
1772794149779596000,6.620595947265625,-0.0012110888492316008,-0.00039543258026242256,0.027278631925582886
1772794149789641200,6.63064111328125,-0.009573946706950665,-0.0027648471295833588,0.01869579590857029
1772794149799686100,6.64068603515625,-0.018147198483347893,-0.0037903659977018833,0.012493360787630081
1772794149809731300,6.6507314453125,-0.0192196536809206,-0.007450880948454142,0.007561719045042992
1772794149819776000,6.66077587890625,-0.009545453824102879,-0.01120913028717041,0.008204123936593533
1772794149829821200,6.6708212890625,-0.002474761800840497,-0.021170683205127716,0.010317342355847359
1772794149839866000,6.6808662109375,0.006258541718125343,-0.02632741443812847,0.010634342208504677
1772794149849911300,6.690911376953125,0.015568952076137066,-0.028210802003741264,0.01441496517509222
1772794149859956200,6.700956298828125,0.01497400552034378,-0.022134918719530106,0.015010412782430649
1772794149870001200,6.711001220703125,0.012217367067933083,-0.014603763818740845,0.015272201970219612
1772794149880046000,6.721046142578125,0.005991427227854729,-0.009558713994920254,0.02113906480371952
1772794149890091300,6.73109130859375,-0.002418835647404194,-0.012377936393022537,0.01975901424884796
1772794149900136200,6.74113623046875,-0.003089151345193386,-0.00433354964479804,0.019560957327485085
1772794149910181000,6.75118115234375,-0.00027205958031117916,-0.004377225413918495,0.018403813242912292
1772794149920226000,6.76122607421875,-0.00013517483603209257,-0.001648914534598589,0.01180232036858797
1772794149930271200,6.771271240234375,0.002464070450514555,0.0013010692782700062,0.009864871390163898
1772794149940316200,6.781316162109375,0.0066263265907764435,-0.007868203334510326,0.004258816596120596
1772794149950361300,6.791361328125,0.012611513957381248,-0.004245505202561617,0.0001476948382332921
1772794149960405000,6.801405029296875,0.013362524099647999,-0.007552393712103367,0.003809192683547735
1772794149970450200,6.8114501953125,0.01138539332896471,-0.005499362945556641,0.01471137534826994
1772794149980495000,6.8214951171875,0.014750031754374504,-0.001606570091098547,0.02740604802966118
1772794149990540300,6.831540283203125,0.009739293716847897,0.0013527343980967999,0.02813309244811535
1772794150000585000,6.8415849609375,0.0062881046906113625,0.003981797955930233,0.03011331707239151
1772794150010630100,6.851630126953125,-0.002704058540984988,0.0031373100355267525,0.02126230113208294
1772794150020675000,6.861675048828125,-0.008525196462869644,-0.0015887855552136898,0.0194261334836483
1772794150030720300,6.87172021484375,-0.006654592230916023,-0.0014234031550586224,0.017416778951883316
1772794150040765000,6.881764892578125,-0.008349161595106125,-0.0005363551899790764,0.013418393209576607
1772794150050810000,6.89181005859375,-0.007920925505459309,0.0035920776426792145,0.007018284406512976
1772794150060855000,6.90185498046875,-0.006949670612812042,0.0034454423002898693,-0.0002629145747050643
1772794150070900200,6.911900146484375,-0.007079366594552994,0.0015732408501207829,-0.0035087750293314457
1772794150080945200,6.921945068359375,-0.01024479791522026,0.0034553976729512215,-0.006960664875805378
1772794150090990000,6.931989990234375,-0.008778728544712067,0.0013906490057706833,-0.002425834070891142
1772794150101035000,6.942034912109375,-0.015290957875549793,-0.0004997602663934231,-0.003045867197215557
1772794150111080200,6.952080078125,-0.025326814502477646,0.002394296694546938,0.00138936098664999
1772794150121125000,6.962125,-0.02780754864215851,-0.004008259158581495,0.002582008484750986
1772794150131170300,6.97217041015625,-0.03058123029768467,-0.0063561019487679005,0.006865968927741051
1772794150141215000,6.982215087890625,-0.030068838968873024,-0.0064940620213747025,0.017110250890254974
1772794150151259100,6.992259033203125,-0.033143457025289536,-0.00491667166352272,0.020890340209007263
1772794150161304300,7.00230419921875,-0.026177959516644478,0.0007704072631895542,0.02682323195040226
1772794150171349000,7.012348876953125,-0.011710071004927158,0.0113759133964777,0.027633631601929665
1772794150181394200,7.022394287109375,0.003912031184881926,0.017314814031124115,0.027142461389303207
1772794150191439000,7.032439208984375,0.016335410997271538,0.03328712284564972,0.019466165453195572
1772794150201484300,7.042484375,0.0229168813675642,0.03936547040939331,0.009415213018655777
1772794150211529200,7.052529296875,0.03115563467144966,0.03701097145676613,-0.0016600748058408499
1772794150221574100,7.06257421875,0.03737758472561836,0.02350691519677639,-0.01542299147695303
1772794150231619000,7.072619140625,0.04338514059782028,0.015637274831533432,-0.018505601212382317
1772794150241664300,7.082664306640625,0.051991142332553864,0.02484074980020523,-0.026760516688227654
1772794150251709200,7.092709228515625,0.05728284269571304,0.025816265493631363,-0.028461212292313576
1772794150261754400,7.10275439453125,0.05974413827061653,0.028837203979492188,-0.03087352029979229
1772794150271799000,7.112799072265625,0.04955568164587021,0.02518228068947792,-0.0299691092222929
1772794150281844200,7.12284423828125,0.03926229849457741,0.026972293853759766,-0.023202450945973396
1772794150291889200,7.13288916015625,0.029494090005755424,0.029491376131772995,-0.015541069209575653
1772794150301934300,7.142934326171875,0.012207244522869587,0.030575815588235855,0.004261930473148823
1772794150311979000,7.15297900390625,-0.004024988040328026,0.03013160079717636,0.01563788764178753
1772794150322024200,7.163024169921875,-0.018043870106339455,0.021551433950662613,0.020551471039652824
1772794150332069000,7.173069091796875,-0.02758304588496685,0.021523471921682358,0.02708260715007782
1772794150342114300,7.1831142578125,-0.027131373062729836,0.00990857370197773,0.028931723907589912
1772794150352158000,7.193157958984375,-0.0241510309278965,0.002743339631706476,0.02638254500925541
1772794150362203100,7.203203125,-0.019671324640512466,-0.0015691290609538555,0.02313227206468582
1772794150372248000,7.213248046875,-0.013301310129463673,-0.006242710165679455,0.014822943136096
1772794150382293200,7.223293212890625,-0.010949472896754742,-0.01252494752407074,0.0028012855909764767
1772794150392338200,7.233338134765625,-0.009723619557917118,-0.013767044991254807,-0.006703802850097418
1772794150402383000,7.243383056640625,-0.00016580004012212157,-0.00928601436316967,-0.008219458162784576
1772794150412428000,7.253427978515625,0.01072413194924593,-0.008173346519470215,-0.007290014531463385
1772794150422473200,7.26347314453125,0.02049260586500168,0.00007260777056217194,-0.0009310842724516988
1772794150432518100,7.27351806640625,0.029795294627547264,0.007351825479418039,0.0013440541224554181
1772794150442563000,7.28356298828125,0.03125497326254845,0.012559590861201286,0.0031247774604707956
1772794150452608000,7.29360791015625,0.036170635372400284,0.0069291358813643456,-0.003209550864994526
1772794150462653200,7.303653076171875,0.034483522176742554,0.004820128437131643,-0.008479596115648746
1772794150472698000,7.313697998046875,0.0346481055021286,-0.0032950565218925476,-0.009850858710706234
1772794150482743300,7.323743408203125,0.042372602969408035,-0.0037194713950157166,-0.009708113968372345
1772794150492788000,7.3337880859375,0.04470446705818176,-0.004199373070150614,-0.008125663734972477
1772794150502833200,7.343833251953125,0.03837466612458229,-0.004537057597190142,-0.008696595206856728
1772794150512878000,7.353878173828125,0.0369085967540741,-0.006297140847891569,-0.006810012273490429
1772794150522923300,7.36392333984375,0.03206031396985054,-0.002074546180665493,-0.0059521920047700405
1772794150532967200,7.37396728515625,0.03448059409856796,0.0029862592928111553,-0.0003574233269318938
1772794150543012000,7.38401220703125,0.029063457623124123,0.006674047559499741,-0.0014070415636524558
1772794150553057300,7.394057373046875,0.027718560770154,0.004263619892299175,0.001961058471351862
1772794150563102200,7.404102294921875,0.02633558213710785,-0.0038204051088541746,0.0035203387960791588
1772794150573147100,7.414147216796875,0.025652481243014336,-0.007980262860655785,0.008898593485355377
1772794150583192000,7.424192138671875,0.025396283715963364,-0.014481943100690842,0.014251663349568844
1772794150593237200,7.4342373046875,0.02706289105117321,-0.028104012832045555,0.019955886527895927
1772794150603282200,7.4442822265625,0.02044866234064102,-0.03435997664928436,0.022277483716607094
1772794150613327400,7.454327392578125,0.026485249400138855,-0.03294024616479874,0.026153981685638428
1772794150623372000,7.4643720703125,0.03493093326687813,-0.03680439293384552,0.03776248171925545
1772794150633417200,7.474417236328125,0.03935444355010986,-0.04115014150738716,0.041601963341236115
1772794150643462100,7.484462158203125,0.04542938247323036,-0.028935451060533524,0.048102304339408875
1772794150653507300,7.49450732421875,0.04673326388001442,-0.025097569450736046,0.045943547040224075
1772794150663552000,7.504552001953125,0.047432608902454376,-0.017206184566020966,0.04167769476771355
1772794150673597200,7.51459716796875,0.04180188849568367,-0.006200138479471207,0.03304266184568405
1772794150683642000,7.52464208984375,0.045077577233314514,0.00301482155919075,0.027501756325364113
1772794150693687300,7.534687255859375,0.04275237023830414,0.012122832238674164,0.01331110205501318
1772794150703732200,7.544732177734375,0.027204571291804314,0.010240450501441956,0.003726368770003319
1772794150713777200,7.554777099609375,0.013623779639601707,0.013496166095137596,-0.009732182137668133
1772794150723821000,7.564821044921875,0.010911883786320686,0.022064723074436188,-0.01410312857478857
1772794150733866200,7.5748662109375,0.016493603587150574,0.028368156403303146,-0.01545281894505024
1772794150743911200,7.5849111328125,0.018408682197332382,0.039201103150844574,-0.016425572335720062
1772794150753956000,7.5949560546875,0.021018579602241516,0.03684607148170471,-0.023365236818790436
1772794150764001000,7.6050009765625,0.013995823450386524,0.04395533725619316,-0.0328187420964241
1772794150774046200,7.615046142578125,0.01560277584940195,0.03880850970745087,-0.039738431572914124
1772794150784091100,7.625091064453125,0.00717413704842329,0.03085102140903473,-0.04628050699830055
1772794150794136000,7.635135986328125,0.008608249947428703,0.023264475166797638,-0.0461428202688694
1772794150804181000,7.645180908203125,0.011331863701343536,0.017976241186261177,-0.052305858582258224
1772794150814226200,7.65522607421875,0.011058090254664421,0.007592576090246439,-0.05180332064628601
1772794150824271000,7.66527099609375,0.007951246574521065,-0.00160224549472332,-0.05357795208692551
1772794150834316300,7.67531640625,0.009059654548764229,-0.017504513263702393,-0.043267522007226944
1772794150844361000,7.68536083984375,0.011148904450237751,-0.02096785232424736,-0.02639123611152172
1772794150854406100,7.69540625,0.017820656299591064,-0.0264947097748518,-0.0034992368891835213
1772794150864451000,7.705451171875,0.019081927835941315,-0.029725920408964157,0.014390864409506321
1772794150874496300,7.715496337890625,0.020534681156277657,-0.023709572851657867,0.029913630336523056
1772794150884540200,7.7255400390625,0.019405236467719078,-0.020670220255851746,0.0327531062066555
1772794150894585000,7.735585205078125,0.010865011252462864,-0.032282669097185135,0.030366649851202965
1772794150904630300,7.74563037109375,0.00017348554683849216,-0.04317121580243111,0.020051877945661545
1772794150914675200,7.75567529296875,-0.008043964393436909,-0.05379749462008476,0.013760160654783249
1772794150924720000,7.76572021484375,-0.0074061378836631775,-0.06653565168380737,0.014482561498880386
1772794150934765000,7.77576513671875,-0.004117933101952076,-0.0707027018070221,0.02413039468228817
1772794150944810200,7.785810302734375,-0.00014795834431424737,-0.06269005686044693,0.03773292154073715
1772794150954855200,7.795855224609375,0.0007034542504698038,-0.05600418522953987,0.049247898161411285
1772794150964900400,7.805900390625,-0.00412725331261754,-0.054679516702890396,0.05241566151380539
1772794150974945000,7.815945068359375,-0.010204053483903408,-0.053473636507987976,0.054624754935503006
1772794150984990200,7.825990234375,-0.019184766337275505,-0.04995929077267647,0.04935305938124657
1772794150995035100,7.83603515625,-0.02161969430744648,-0.04570569097995758,0.04509200155735016
1772794151005080300,7.846080322265625,-0.02348976582288742,-0.04274238273501396,0.03662192076444626
1772794151015125200,7.856125244140625,-0.028463218361139297,-0.037884775549173355,0.037559084594249725
1772794151025170200,7.866170166015625,-0.028586789965629578,-0.03788946568965912,0.040573082864284515
1772794151035215000,7.876215087890625,-0.024767551571130753,-0.023835966363549232,0.03794853761792183
1772794151045260300,7.88626025390625,-0.021599452942609787,-0.013264115899801254,0.04054054245352745
1772794151055305200,7.89630517578125,-0.0207123551517725,0.00282910093665123,0.03342537581920624
1772794151065349000,7.90634912109375,-0.02210571989417076,0.017920048907399178,0.01903197169303894
1772794151075394000,7.91639404296875,-0.025907382369041443,0.029024364426732063,0.0028540664352476597
1772794151085439200,7.926439208984375,-0.03499142453074455,0.02968248724937439,-0.01636813022196293
1772794151095484200,7.936484130859375,-0.036569081246852875,0.032064951956272125,-0.034937288612127304
1772794151105529000,7.946529052734375,-0.025995802134275436,0.03633928298950195,-0.03933051973581314
1772794151115574000,7.956573974609375,-0.016768213361501694,0.040621377527713776,-0.037127554416656494
1772794151125619200,7.966619140625,-0.009848256595432758,0.0435510016977787,-0.0341925173997879
1772794151135664000,7.9766640625,-0.006452459841966629,0.048800092190504074,-0.026215285062789917
1772794151145708000,7.9867080078125,-0.005692659877240658,0.05169336125254631,-0.018729785457253456
1772794151155753200,7.996753173828125,-0.013456840068101883,0.05085659772157669,-0.02242492139339447
1772794151165798100,8.006798095703125,-0.01316682156175375,0.04178954288363457,-0.030132662504911423
1772794151175843300,8.01684326171875,-0.018768781796097755,0.021984145045280457,-0.04485967755317688
1772794151185888000,8.026887939453125,-0.017562102526426315,0.013190816156566143,-0.04350108280777931
1772794151195933200,8.03693310546875,-0.007678046356886625,0.0019754450768232346,-0.02796659618616104
1772794151205978000,8.04697802734375,0.004035335034132004,0.0002046581357717514,-0.015877358615398407
1772794151216023300,8.057023193359376,0.010370462201535702,-0.0016497010365128517,-0.00014766398817300797
1772794151226068200,8.067068115234376,0.009177366271615028,-0.008213648572564125,0.010675988160073757
1772794151236113200,8.077113037109376,-0.00005075323861092329,-0.006202695891261101,0.014351683668792248
1772794151246158000,8.087157958984376,-0.004074256867170334,-0.004201228730380535,0.025744520127773285
1772794151256203300,8.097203369140624,-0.010345468297600746,-0.003127442440018058,0.025259025394916534
1772794151266248200,8.107248291015624,-0.012641645967960358,-0.0005415170453488827,0.026461126282811165
1772794151276293400,8.11729345703125,-0.013926355168223381,0.0006414591334760189,0.01993531547486782
1772794151286338000,8.127338134765624,-0.012702366337180138,0.009294924326241016,0.01726972497999668
1772794151296382200,8.13738232421875,-0.010419771075248718,0.014205525629222393,0.010227793827652931
1772794151306427100,8.14742724609375,-0.004773602820932865,0.01374337263405323,0.004392810165882111
1772794151316472000,8.15747216796875,-0.00721066165715456,0.01741347648203373,-0.0057599591091275215
1772794151326517000,8.16751708984375,-0.010767846368253231,0.02431856282055378,-0.014887595549225807
1772794151336562200,8.177562255859375,-0.014931964688003063,0.02655508555471897,-0.024444349110126495
1772794151346607000,8.187607177734375,-0.023998163640499115,0.025498026981949806,-0.02757054939866066
1772794151356652300,8.19765234375,-0.0276498906314373,0.02394993044435978,-0.0338103361427784
1772794151366697000,8.207697021484375,-0.02324102818965912,0.030703336000442505,-0.02933983877301216
1772794151376742100,8.2177421875,-0.018162114545702934,0.043589040637016296,-0.02253226563334465
1772794151386787000,8.227787109375,-0.008889252319931984,0.04474223405122757,-0.021163003519177437
1772794151396831700,8.237831787109375,-0.00871588010340929,0.04806585982441902,-0.0211827103048563
1772794151406877000,8.247876953125,-0.006142467260360718,0.040037866681814194,-0.01605437695980072
1772794151416921900,8.257921875,-0.0027764984406530857,0.028957517817616463,-0.015440784394741058
1772794151426966800,8.267966796875,-0.0019799470901489258,0.02495383843779564,-0.008942370302975178
1772794151437011700,8.27801171875,0.0030715367756783962,0.021924760192632675,0.00015791726764291525
1772794151447057000,8.288056884765625,0.006754155736416578,0.016071129590272903,0.012995635159313679
1772794151457101800,8.298101806640625,0.008235139772295952,0.012770140543580055,0.023406196385622025
1772794151467145700,8.308145751953125,0.006852426566183567,0.01200880203396082,0.027021989226341248
1772794151477190700,8.318190673828125,0.006277449894696474,0.01201226469129324,0.03154270350933075
1772794151487237600,8.328237548828126,-0.0015067034400999546,0.012691476382315159,0.039170414209365845
1772794151497282800,8.33828271484375,-0.00046380949788726866,0.02024047076702118,0.03589898720383644
1772794151507327700,8.34832763671875,0.0012821588898077607,0.01616348698735237,0.02905878983438015
1772794151517373000,8.358373046875,0.0008760266937315464,0.012163684703409672,0.01671690307557583
1772794151527417900,8.36841796875,0.002606548834592104,0.017043501138687134,0.0024238666519522667
1772794151537462800,8.378462890625,0.005199402570724487,0.01889146864414215,-0.0073038614355027676
1772794151547507700,8.3885078125,0.00432641850784421,0.022981930524110794,-0.012960963882505894
1772794151557553000,8.398552978515625,0.0056697167456150055,0.025764670222997665,-0.01947159320116043
1772794151567597800,8.408597900390625,0.002473657950758934,0.028535107150673866,-0.022970587015151978
1772794151577642800,8.418642822265625,-0.0007793933618813753,0.02704879455268383,-0.022242745384573936
1772794151587687700,8.428687744140625,-0.0015090997330844402,0.015496481209993362,-0.016200266778469086
1772794151597732900,8.43873291015625,-0.0026816895697265863,0.006938678678125143,-0.00954209640622139
1772794151607776800,8.44877685546875,0.0024994898121804,0.004479509312659502,0.00216452544555068
1772794151617821700,8.45882177734375,0.001764989923685789,-0.004486288409680128,0.010262665338814259
1772794151627866600,8.46886669921875,0.001300801057368517,-0.008778661489486694,0.02108009345829487
1772794151637911800,8.478911865234375,0.001003325916826725,-0.00523266289383173,0.021317115053534508
1772794151647956700,8.488956787109375,-0.002816445892676711,-0.0062727369368076324,0.021412523463368416
1772794151658002000,8.499001953125,-0.010135611519217491,-0.007199250627309084,0.018326185643672943
1772794151668046600,8.509046630859375,-0.017032932490110397,-0.012543788179755211,0.014159252867102623
1772794151678091800,8.519091796875,-0.020347770303487778,-0.021373232826590538,0.013532346114516258
1772794151688136700,8.52913671875,-0.020078258588910103,-0.021949488669633865,0.016531778499484062
1772794151698182000,8.539181884765625,-0.011826719157397747,-0.021330304443836212,0.02121627889573574
1772794151708226600,8.5492265625,-0.007343553472310305,-0.020734712481498718,0.025300171226263046
1772794151718271700,8.559271728515625,-0.00764502352103591,-0.019819118082523346,0.02368869259953499
1772794151728316700,8.569316650390626,-0.012518341653048992,-0.025863004848361015,0.01965460181236267
1772794151738361900,8.57936181640625,-0.013991336338222027,-0.027595391497015953,0.02091108076274395
1772794151748406800,8.58940673828125,-0.015645956620573997,-0.022027188912034035,0.026533666998147964
1772794151758451700,8.59945166015625,-0.010090070776641369,-0.020169101655483246,0.024240419268608093
1772794151768496600,8.60949658203125,-0.008560084737837315,-0.010211064480245113,0.02563648112118244
1772794151778540800,8.619540771484376,-0.005896391347050667,-0.004176873713731766,0.015259474515914917
1772794151788586000,8.6295859375,-0.0032281705643981695,-0.0035604103468358517,0.007506728172302246
1772794151798630700,8.639630615234376,-0.0054553719237446785,-0.002766521880403161,-0.005935044959187508
1772794151808675800,8.64967578125,-0.008916680701076984,-0.0027494672685861588,-0.015439714305102825
1772794151818720800,8.659720703125,-0.009847189299762249,-0.004988120403140783,-0.018240828067064285
1772794151828766000,8.669765869140624,-0.01063655223697424,0.00018563587218523026,-0.014510609209537506
1772794151838810600,8.679810546875,-0.009365958161652088,0.0035587958991527557,-0.01086314395070076
1772794151848855800,8.689855712890624,-0.01717061921954155,0.00908662099391222,-0.0023549250327050686
1772794151858900700,8.699900634765624,-0.019360270351171494,0.01353516522794962,0.00039079412817955017
1772794151868946000,8.70994580078125,-0.021283868700265884,0.00891660526394844,-0.004027273505926132
1772794151878990800,8.719990966796875,-0.01885107159614563,0.0018046339973807335,-0.008757846429944038
1772794151889035800,8.730035888671875,-0.020384786650538445,-0.00046692928299307823,-0.01687411032617092
1772794151899080700,8.740080810546875,-0.026267442852258682,-0.004354079253971577,-0.012736357748508453
1772794151909126000,8.7501259765625,-0.02342052385210991,-0.008006075397133827,-0.008493726141750813
1772794151919170800,8.7601708984375,-0.025120418518781662,-0.014505520462989807,0.0015197590691968799
1772794151929215700,8.7702158203125,-0.028679203242063522,-0.015391772612929344,0.007867269217967987
1772794151939259600,8.780259765625,-0.031883783638477325,-0.014485232532024384,0.010632695630192757
1772794151949304800,8.790304931640625,-0.03127045929431915,-0.015142971649765968,0.006056654267013073
1772794151959349800,8.800349853515625,-0.03089175559580326,-0.012673689052462578,-0.0005296091549098492
1772794151969394700,8.810394775390625,-0.02432812936604023,-0.01549562904983759,-0.003929101396352053
1772794151979439600,8.820439697265625,-0.019659074023365974,-0.01715770736336708,-0.006162694655358791
1772794151989484800,8.83048486328125,-0.014391609467566013,-0.014863559044897556,-0.0028581456281244755
1772794151999529700,8.84052978515625,-0.020852703601121902,-0.01052207313477993,0.003724123351275921
1772794152009575000,8.850574951171875,-0.028745513409376144,-0.01074992399662733,0.0150335393846035
1772794152019619600,8.86061962890625,-0.03432110697031021,-0.010227145627140999,0.022341519594192505
1772794152029664800,8.870664794921876,-0.037470828741788864,-0.02249888889491558,0.020711762830615044
1772794152039709700,8.880709716796876,-0.035604219883680344,-0.03495529294013977,0.015558812767267227
1772794152049755000,8.8907548828125,-0.03406544402241707,-0.03910556808114052,0.007206772454082966
1772794152059799600,8.900799560546876,-0.030257925391197205,-0.0402240976691246,0.0061324527487158775
1772794152069844700,8.9108447265625,-0.02535957098007202,-0.02595710940659046,0.00873830821365118
1772794152079889700,8.9208896484375,-0.02282583899796009,-0.01673831045627594,0.00788822676986456
1772794152089933800,8.930933837890626,-0.024374201893806458,-0.01198121253401041,-0.0008010183810256422
1772794152099978800,8.940978759765626,-0.02921076864004135,-0.008718308061361313,-0.010694395750761032
1772794152110023700,8.951023681640624,-0.03503616526722908,-0.016390293836593628,-0.01799398846924305
1772794152120068900,8.96106884765625,-0.03301616013050079,-0.01930299401283264,-0.01668131723999977
1772794152130113800,8.97111376953125,-0.023927591741085052,-0.013003876432776451,-0.005173015873879194
1772794152140159000,8.981158935546874,-0.01607392728328705,-0.012371642515063286,-0.0010933195007964969
1772794152150203600,8.99120361328125,-0.006266036070883274,-0.007144960109144449,0.01183182094246149
1772794152160248800,9.001248779296875,0.0008251628605648875,-0.0038972352631390095,0.01678476855158806
1772794152170293800,9.011293701171875,-0.001685667666606605,-0.002768874866887927,0.02072034776210785
1772794152180339000,9.0213388671875,-0.0037038112059235573,-0.003994461614638567,0.013764438219368458
1772794152190383600,9.031383544921875,-0.00597282312810421,-0.007327178027480841,0.0003700903616845608
1772794152200428800,9.0414287109375,-0.013094915077090263,-0.007299214601516724,-0.005227341316640377
1772794152210473700,9.0514736328125,-0.008296698331832886,-0.009252380579710007,-0.005513682030141354
1772794152220519000,9.061518798828125,-0.0015397260431200266,-0.007354346103966236,-0.001535718678496778
1772794152230563800,9.071563720703125,0.006376253440976143,0.0003127856180071831,0.007154508493840694
1772794152240608800,9.08160888671875,0.007749379612505436,0.004448142368346453,0.012735161930322647
1772794152250652700,9.091652587890625,0.005845485720783472,0.008068924769759178,0.019541753455996513
1772794152260697900,9.10169775390625,0.00458394642919302,0.013333460316061974,0.02030634693801403
1772794152270742800,9.11174267578125,-0.003778379876166582,0.007982686161994934,0.017357559874653816
1772794152280787700,9.12178759765625,-0.0031376234255731106,0.0046880897134542465,0.015545278787612915
1772794152290832600,9.13183251953125,0.003933870233595371,0.00040435371920466423,0.009597877971827984
1772794152300877800,9.1418779296875,0.011404835619032383,-0.009523644112050533,0.0014094564830884337
1772794152310922800,9.1519228515625,0.01845954917371273,-0.01307886466383934,0.0036854413338005543
1772794152320967700,9.1619677734375,0.01922893524169922,-0.013612829148769379,0.004452165681868792
1772794152331012600,9.1720126953125,0.015127401798963547,-0.012323537841439247,0.009323320351541042
1772794152341057800,9.182057861328126,0.009650078602135181,-0.006903472822159529,0.016055792570114136
1772794152351102700,9.192102783203126,0.0024978918954730034,-0.0005252594128251076,0.025553138926625252
1772794152361148000,9.20214794921875,0.0022962905932217836,-0.00006400002166628838,0.03329548239707947
1772794152371192600,9.212192626953126,0.0014637873973697424,0.003312628250569105,0.03396909311413765
1772794152381237800,9.22223779296875,0.002809748984873295,0.001893164124339819,0.028547167778015137
1772794152391282400,9.232282470703124,0.0030646149534732103,-0.0021682055667042732,0.021156763657927513
1772794152401326600,9.24232666015625,0.002060603117570281,-0.00900294166058302,0.008091295138001442
1772794152411371800,9.252371826171874,0.007153897546231747,-0.014185883104801178,0.007903906516730785
1772794152421416400,9.26241650390625,0.011368882842361927,-0.01148969866335392,0.011358559131622314
1772794152431461600,9.272461669921874,0.011059689335525036,-0.0063728103414177895,0.01689719967544079
1772794152441506600,9.282506591796874,0.01502194069325924,-0.005769604351371527,0.0266017597168684
1772794152451551700,9.2925517578125,0.015256032347679138,0.006890585180372,0.02905450016260147
1772794152461596700,9.3025966796875,0.011496447958052158,0.010411284863948822,0.03570600971579552
1772794152471641600,9.3126416015625,0.014953496865928173,0.0018377662636339664,0.032747454941272736
1772794152481686500,9.3226865234375,0.016849935054779053,0.0020446940325200558,0.03277994319796562
1772794152491731700,9.332731689453125,0.019463561475276947,0.006565738003700972,0.02962762862443924
1772794152501776600,9.342776611328125,0.017038222402334213,0.012294994667172432,0.012490454129874706
1772794152511821600,9.352821533203125,0.013240817002952099,0.013665502890944481,-0.010555130429565907
1772794152521866500,9.362866455078125,0.009327036328613758,0.010079024359583855,-0.027769535779953003
1772794152531911700,9.37291162109375,0.010051948949694633,0.004427960608154535,-0.03155771642923355
1772794152541956600,9.38295654296875,0.01689068041741848,0.0009730416350066662,-0.024419911205768585
1772794152552000500,9.39300048828125,0.02231713756918907,0.007835796102881432,0.008141727186739445
1772794152562045700,9.403045654296875,0.023011690005660057,0.005548406392335892,0.04280037060379982
1772794152572090600,9.413090576171875,0.025423714891076088,0.005685026757419109,0.07574660331010818
1772794152582135600,9.423135498046875,0.01629067026078701,-0.010896879248321056,0.08395525813102722
1772794152592180700,9.4331806640625,0.004545597359538078,-0.01725001074373722,0.0864124447107315
1772794152602225700,9.4432255859375,0.001266713603399694,-0.0138406315818429,0.08172661811113358
1772794152612270600,9.4532705078125,0.00293891248293221,-0.016387518495321274,0.06780266016721725
1772794152622315500,9.4633154296875,0.001324238022789359,-0.021983087062835693,0.039693526923656464
1772794152632360700,9.473360595703125,0.00025071873096749187,-0.018954269587993622,-0.0032802533823996782
1772794152642405600,9.483405517578126,-0.003175704274326563,-0.024077925831079483,-0.04574595391750336
1772794152652450600,9.493450439453126,-0.005948588717728853,-0.014384714886546135,-0.0735551118850708
1772794152662495500,9.50349560546875,-0.0019660976249724627,-0.0031893188133835793,-0.0774230882525444
