time,seconds_elapsed,z,y,x
1772794654886919000,0.0659189453125,0.9787053319126366,0.3823468739598989,-0.7132747455235571
1772794654896964000,0.075964111328125,1.174690845349431,0.353542658149451,-0.7188253653880208
1772794654907008000,0.086008056640625,1.2511585834801195,0.3527123448051512,-0.6749472068253904
1772794654917052000,0.096052001953125,1.186671790522337,0.426458841278404,-0.5225619483252987
1772794654927097000,0.10609716796875,1.074120347097516,0.5590398040361703,-0.40839459413643925
1772794654937141000,0.11614111328125,0.9687824883133173,0.688913553661853,-0.34041868042126294
1772794654947185200,0.12618505859375,0.8911568123191594,0.7561573171775787,-0.2642325722435489
1772794654957230000,0.13622998046875,0.8324281444966792,0.7893801531478762,-0.21430402760077266
1772794654967274000,0.14627392578125,0.7447773335725069,0.7666745464734732,-0.16612630868069828
1772794654977318100,0.156318115234375,0.6022609599947929,0.7000897583231329,-0.16408095699083058
1772794654987361800,0.16636181640625,0.43678222850263115,0.6518450020488351,-0.23840240380782632
1772794654997407000,0.176406982421875,0.298641585791111,0.6497949376512319,-0.303551131273061
1772794655007451100,0.186451171875,0.22596739472448824,0.6554890576396137,-0.29482480398193
1772794655017495000,0.1964951171875,0.22257833680808542,0.6817943693064152,-0.3401168844630942
1772794655027540000,0.2065400390625,0.18959259752929208,0.6995248179167509,-0.33144331027250734
1772794655037584100,0.216584228515625,0.1830968057692051,0.6775498636044561,-0.2383549114042893
1772794655047628000,0.2266279296875,0.17809271387159822,0.574018177459389,-0.12744858657168223
1772794655057673000,0.2366728515625,0.2109463512033224,0.4599974651996046,0.06268000839729793
1772794655067717000,0.246717041015625,0.30630291419923306,0.32684133290238676,0.23485788133507593
1772794655077761000,0.256760986328125,0.4550590589493513,0.23140374055951832,0.30931919328048824
1772794655087806000,0.266805908203125,0.6049398238152265,0.08924049126841127,0.311406155622378
1772794655097850000,0.27685009765625,0.6992232046216725,-0.014304565814882516,0.3235113116968423
1772794655107894000,0.28689404296875,0.6186825179636478,-0.12229615397825837,0.40358350406028326
1772794655117939000,0.29693896484375,0.3443909450531006,-0.24882673065587876,0.5196496776077896
1772794655127983000,0.306983154296875,0.10732464868724345,-0.29251455427817996,0.5722881387963891
1772794655138027000,0.317027099609375,-0.04074059118926525,-0.2781428415112197,0.604118278299272
1772794655148072000,0.327072021484375,-0.153786540132761,-0.33654980309866367,0.6265170109815895
1772794655158116000,0.3371162109375,-0.25397066941559315,-0.3583846913531422,0.5001225183064117
1772794655168160000,0.347159912109375,-0.4248983139634132,-0.3785115335807204,0.3928489056866616
1772794655178205000,0.357204833984375,-0.5718699133843184,-0.4200735972207039,0.5252149835847317
1772794655188249000,0.3672490234375,-0.7036842756837606,-0.47000937532186504,0.6822319570060819
1772794655198293000,0.37729296875,-0.7608855878084898,-0.6102928752809763,0.7670120347995311
1772794655208338000,0.387337890625,-0.7763929535418749,-0.7797039777860045,0.8405965456441045
1772794655218381800,0.3973818359375,-0.6669166797786951,-0.9328425023388117,0.8129651730053127
1772794655228426000,0.407426025390625,-0.5031985282182693,-0.9499586915083229,0.7370744310449808
1772794655238471000,0.417470947265625,-0.25494915905892845,-0.9535326044723391,0.7571790614407509
1772794655248514800,0.427514892578125,-0.03252455150783062,-0.9388876277219503,0.8079813932433724
1772794655258559000,0.43755908203125,0.17515549137592315,-1.0195671383287757,0.7695546319544315
1772794655268604200,0.447604248046875,0.4178934036374092,-1.005448669670522,0.5915715159371495
1772794655278647800,0.457647705078125,0.6416629960566759,-0.9964056045804173,0.5271652408696711
1772794655288692000,0.46769189453125,0.8432821314662694,-0.865571047098562,0.6067506726294756
1772794655298737200,0.477737060546875,0.8371569265842437,-1.1638069016329944,0.6612929946780204
1772794655308780800,0.48778076171875,0.7795078706920147,-1.6325706608079373,0.31734935500100253
1772794655318825000,0.497824951171875,0.6657984894037247,-1.8326450509935617,-0.15762100372910498
1772794655328869000,0.507869140625,0.48747605842947955,-1.694780448744446,-0.32113062710538504
1772794655338913800,0.517913818359375,0.4481973564863205,-1.6014673742748795,-0.8211448261991142
1772794655348958000,0.5279580078125,0.08652735985219479,-1.4450523853346704,-1.0597274454120547
1772794655359002000,0.538002197265625,-0.51513329616189,-1.4284111932657657,-1.0349839762344957
1772794655369047000,0.548047119140625,-1.1916928335547448,-1.4533416363827882,-0.7482031433027237
1772794655379091000,0.558091064453125,-1.6800491819500922,-1.3048739531852305,-0.5792264136269688
1772794655389134800,0.568134765625,-1.956433927747607,-0.9072170626949518,-0.5834696041546762
1772794655399180000,0.578179931640625,-1.9545301399528978,-0.5586079884901642,-0.5675182209808379
1772794655409224000,0.588223876953125,-1.702386685964465,-0.4182463452609256,-0.5187913802780211
1772794655419267800,0.598267822265625,-1.4027443986982107,-0.4571168682619929,-0.40107941228486593
1772794655429313000,0.60831298828125,-1.2182231130838392,-0.5190210243154317,-0.0662593190556392
1772794655439357000,0.61835693359375,-0.582974660244584,-0.054164602176798506,-0.13619677863474935
1772794655449400800,0.62840087890625,-0.16953355984091759,0.06810835358896292,0.034250461984984576
1772794655459446000,0.638446044921875,0.10635843400359153,0.11702057906235568,0.06803769037239253
1772794655469490200,0.648490234375,0.29623335560560227,0.6947882178489119,-0.6367468016382306
1772794655479533800,0.658533935546875,0.10471592749357223,0.5621060232063755,-0.7706551405422389
1772794655489579000,0.6685791015625,-0.24709435390532014,0.6707464671999216,-0.6792128283806145
1772794655499623200,0.678623046875,-0.43560617046058175,0.7299410720337182,-0.6575358341015874
1772794655509666800,0.688666748046875,-0.5572480983138084,0.9941149363599717,-0.21674046096745878
1772794655519712000,0.6987119140625,-0.4587327790260315,1.014545803035423,-0.04377679881369695
1772794655529756200,0.708756103515625,-0.5606365717083215,0.6392444636728615,-0.1493654357548803
1772794655539799800,0.7187998046875,-0.7535264572173357,0.3079329630864784,-0.30704229785706844
1772794655549845000,0.728844970703125,-0.6737655227601528,-0.08874815944051369,-0.432510323337093
1772794655559889200,0.73888916015625,-0.40251930889487264,-0.5448443976841867,-0.2174400240715593
1772794655569933000,0.74893310546875,0.2258341237336397,-0.9155865393724292,0.07310936761349439
1772794655579978000,0.75897802734375,0.7632371193706989,-1.196862418212369,0.32994138127695766
1772794655590022100,0.769022216796875,1.1625789672732352,-1.4978297435373067,0.7894063105024397
1772794655600066000,0.779066162109375,1.3494050226986407,-1.5796679226599633,1.0552981577277183
1772794655610111000,0.789111083984375,1.145923016026616,-1.4412798810586331,1.2168113465897739
1772794655620155100,0.799155029296875,0.9022498687416315,-1.0336632490247488,1.4538912330895661
1772794655630199000,0.809198974609375,0.915813114669919,-0.5069193023070693,1.653074081262946
1772794655640244000,0.819243896484375,0.8745014455944299,-0.2621297182127833,1.8870646234452724
1772794655650288000,0.8292880859375,0.7991869691520929,-0.05647738176435232,2.1764476747646926
1772794655660332000,0.83933203125,0.6914443873137235,0.599006342113018,1.9275301970854402
1772794655670377000,0.849376953125,0.09001461744606494,1.2377629492036997,1.5500271098949014
1772794655680420900,0.8594208984375,-0.832663706818223,1.1297663195390253,1.343238609023392
1772794655690465000,0.869465087890625,-1.4356389525622129,0.8863890133954584,0.8819467931643128
1772794655700510000,0.879510009765625,-1.7135037077844142,0.914800795822218,0.3412478247217834
1772794655710553900,0.889553955078125,-1.5703431910842656,0.639618630747497,0.27171624252982435
1772794655720598000,0.899597900390625,-1.5682435884565114,0.34146639937590806,0.4677153461005538
1772794655730643000,0.909642822265625,-1.3388520645022393,0.1716406516553834,0.5721235958844423
1772794655740686800,0.919686767578125,-0.831257347151637,-0.04557047729743644,0.533779179116711
1772794655750731000,0.92973095703125,-0.17397300359308718,-0.12004351621326058,0.5478454061310738
1772794655760776000,0.93977587890625,0.4100380139619112,-0.31395726487729697,0.7046918452911078
1772794655770819800,0.94981982421875,0.8920330106317996,-0.4858148472189903,0.675519234559685
1772794655780864000,0.959864013671875,1.3664035037726163,-0.5812907257456332,0.3851746447317302
1772794655790909000,0.969908935546875,1.6568454164952038,-0.725674719826132,0.03349127764813602
1772794655800952800,0.979952880859375,1.763243597987294,-0.7048759696863591,-0.25439963541738686
1772794655810997000,0.9899970703125,1.756242194792628,-0.47369515116252003,-0.3767367059279233
1772794655821042200,1.000042236328125,1.641984531971812,-0.3360101067313924,-0.2478440032288432
1772794655831085800,1.0100859375,1.537740313643217,-0.3381989585451782,0.06871646641679108
1772794655841130000,1.0201298828125,1.4050164352834225,-0.5451917498171329,0.29914171733297407
1772794655851175200,1.030175048828125,1.2710732442617416,-0.48790926221497355,0.04518924116119742
1772794655861218800,1.04021875,1.0976309865444898,-0.4202577581485733,-0.31475122826658186
1772794655871263000,1.050262939453125,0.9076414986521005,-0.39904151324909176,-0.3561076863318682
1772794655881307400,1.060307373046875,0.6241226631909609,-0.2477124492710456,-0.1958824183885008
1772794655891352000,1.07035205078125,0.34334757348001,-0.017286001911619678,-0.10635858013406395
1772794655901396200,1.080396240234375,0.13465163155198095,-0.11170868159090168,-0.0065112085249274965
1772794655911440100,1.090440185546875,0.051830725002288816,-0.2501968316989951,0.008419380233809351
1772794655921485300,1.1004853515625,-0.026397008538246152,-0.3332639132957905,-0.03629690965339541
1772794655931529200,1.110529296875,-0.10976152044534683,-0.3887378171060234,0.06121880413778126
1772794655941573000,1.120572998046875,-0.20748364352881907,-0.42509098699130116,0.21020020901113748
1772794655951618300,1.130618408203125,-0.2690004807651043,-0.41730409597475077,0.2862297018550336
1772794655961662200,1.140662109375,-0.2799929994225502,-0.3938942500211298,0.27673699330128726
1772794655971706000,1.1507060546875,-0.2848123824030161,-0.34829814509209245,0.27321130339317024
1772794655981751300,1.160751220703125,-0.27290508698821064,-0.29918405863735825,0.40049832446128125
1772794655991795200,1.170795166015625,-0.24065000007152557,-0.28357557061705735,0.47983204648233946
1772794656001839000,1.180839111328125,-0.31375849090218544,-0.17735365900732575,0.5133453167665749
1772794656011884300,1.19088427734375,-0.36719606657922266,-0.09594481121264398,0.5579368112303317
1772794656021928200,1.20092822265625,-0.4242705374538898,-0.1271576956000179,0.6083394031256437
1772794656031972000,1.21097216796875,-0.48067514624297614,-0.29955665480941535,0.6272118613779545
1772794656042017300,1.221017333984375,-0.5439443801045417,-0.4888434743251651,0.6004812369711697
1772794656052061400,1.2310615234375,-0.6334861193418503,-0.5896573528788983,0.545559487150982
1772794656062105000,1.24110498046875,-0.6671814681947231,-0.6743227913167327,0.5412178777500987
1772794656072150300,1.251150390625,-0.6561842733621597,-0.7798419980172068,0.49552558243758976
1772794656082194400,1.2611943359375,-0.5896674358814954,-0.8264500199351459,0.3777454445790499
1772794656092238000,1.271238037109375,-0.4858177698284387,-0.7655712614066899,0.2880099363353103
1772794656102283300,1.281283203125,-0.35902269699573514,-0.7205432752218097,0.2993595248021185
1772794656112327400,1.291327392578125,-0.2447089200735092,-0.7019744030259549,0.2998296995971352
1772794656122371000,1.30137109375,-0.019614801052212714,-0.6903186712194234,0.3029308804828673
1772794656132416300,1.311416259765625,0.2862234182447195,-0.7027194492395967,0.2741813905343413
1772794656142460400,1.32146044921875,0.14851181460022925,-0.6527144052945077,0.20986973494775593
1772794656152504300,1.33150439453125,0.093009707608819,-0.6275197582833468,0.29206491081453856
1772794656162549200,1.34154931640625,0.6645674863040447,-0.9468274077452719,0.20165515657104552
1772794656172593400,1.351593505859375,0.7139782906830311,-1.2667216249234974,-0.02197327381186187
1772794656182637300,1.36163720703125,0.7757844662547111,-1.442289642623067,-0.22901523798778653
1772794656192682200,1.37168212890625,0.9191799607545137,-1.3873618283882736,-0.21256620749011634
1772794656202726100,1.38172607421875,0.8905237751126289,-1.112420340201631,0.07013327441215515
1772794656212770300,1.391770263671875,0.6881903539538383,-0.8639856776032596,0.339006767796725
1772794656222815200,1.401815185546875,0.39598786129951474,-0.666178136371076,0.49326340965926646
1772794656232859100,1.411859130859375,0.13332476686239242,-0.5352313506864012,0.5462237232133745
1772794656242903300,1.4219033203125,-0.056638417544960976,-0.4688986376009881,0.6097919400215148
1772794656252948200,1.4319482421875,-0.14110826034545898,-0.41895504151955243,0.6949566332183778
1772794656262992100,1.4419921875,-0.16710428686738013,-0.4164684854008257,0.7204036475554109
1772794656273036300,1.452036376953125,-0.18665654407739637,-0.4118824727848172,0.666215545772016
1772794656283081200,1.462081298828125,-0.1186941839635372,-0.5578424109451472,0.5637649328619241
1772794656293125000,1.472125,-0.01555120487511158,-0.807548043327406,0.36165903684869405
1772794656303169300,1.482169189453125,0.04584755893945694,-0.9785060830134897,0.13992518804073334
1772794656313214200,1.492214111328125,0.03834112883210182,-1.127802472120151,0.05095277312397956
1772794656323258000,1.502258056640625,-0.09648352119922637,-1.2534348578490315,0.0026361937224864958
1772794656333302300,1.51230224609375,-0.3201344556748867,-1.3647281179063022,-0.04614303475469351
1772794656343347200,1.52234716796875,-0.5318488686412572,-1.4263188971616327,-0.07842354837357997
1772794656353391000,1.53239111328125,-0.7134101354062556,-1.3667663457356392,-0.2244698496431112
1772794656363435300,1.542435302734375,-0.8019248696833848,-1.3433875159747897,-0.3651153147824108
1772794656373480200,1.552480224609375,-0.8609241711407899,-1.4087151436708867,-0.44002785936035216
1772794656383524000,1.562524169921875,-0.9500830485403537,-1.4438456398934125,-0.570638398827985
1772794656393568300,1.572568359375,-1.0182739567130803,-1.4436634151943026,-0.5373902822859585
1772794656403612200,1.582612060546875,-1.128677282193303,-1.5614553896211087,-0.4417491301950067
1772794656413657000,1.592656982421875,-1.178663256111741,-1.5684779817342758,-0.3937365752413869
1772794656423701200,1.602701171875,-1.1906839487731455,-1.3412535726860164,-0.22560813295803964
1772794656433745200,1.6127451171875,-1.203324234637618,-1.1050568256963045,-0.009574833879247307
1772794656443790000,1.6227900390625,-1.1487976946800946,-0.8653551393255591,0.26625658888444304
1772794656453834200,1.632834228515625,-0.9976976171523332,-0.6810610865958034,0.5882712322827428
1772794656463879400,1.64287939453125,-0.789328422960639,-0.48495859571583566,0.907677008356899
1772794656473923300,1.65292333984375,-0.636513358208537,-0.28655893380939956,1.1161153953272849
1772794656483967200,1.66296728515625,-0.5397042583167553,-0.1919359457850456,1.1917836536433548
1772794656494011100,1.67301123046875,-0.42861762674748893,-0.12122048757076263,1.0316877111680804
1772794656504056300,1.683056396484375,-0.2804401586681604,-0.00231076116040349,0.7349534203030169
1772794656514100200,1.693100341796875,-0.17070786431729792,0.09621222997717559,0.40132845514249055
1772794656524144000,1.70314404296875,-0.2200532022446394,0.15829977977350354,0.11607643921319395
1772794656534189300,1.713189208984375,-0.37093466858565805,0.34801549222581085,0.00018653554804623127
1772794656544233200,1.723233154296875,-0.463951974979043,0.5095341609805822,0.019436375745385884
1772794656554277000,1.733277099609375,-0.47946401688754553,0.6128794577080756,0.20450070046158506
1772794656564322300,1.743322265625,-0.40613983747959137,0.6854413475066423,0.33995102637689556
1772794656574366200,1.7533662109375,-0.23905308626890182,0.7677330425504595,0.4611060109633952
1772794656584410000,1.76341015625,-0.04877016838788986,0.7921792823471129,0.5413001492060721
1772794656594455300,1.773455322265625,0.11731471230387687,0.7659612836375832,0.5948501357490197
1772794656604499500,1.78349951171875,0.23933774842917918,0.6713244132183491,0.5487749055335298
1772794656614543000,1.793543212890625,0.34551614969074723,0.5475406510308385,0.5016934574175625
1772794656624588300,1.80358837890625,0.4370452633529901,0.38488932498432693,0.38795090451203285
1772794656634632400,1.813632568359375,0.5125993937700987,0.17441749595757572,0.3274382758822292
1772794656644676000,1.823676025390625,0.5783452468782663,0.030147757640201597,0.3770027364529669
1772794656654721300,1.83372119140625,0.6114426298379898,-0.09836937147844582,0.36279702790267765
1772794656664765400,1.843765380859375,0.5731845031142234,-0.21373110481733454,0.3342576005082577
1772794656674809300,1.853809326171875,0.48262861839830873,-0.2047752613529563,0.28481528674615547
1772794656684854300,1.863854248046875,0.4037298537284136,-0.13883037854135036,0.2174593680928461
1772794656694898200,1.873898193359375,0.32141280504763126,-0.02600357964071445,0.2093040456227027
1772794656704942300,1.8839423828125,0.2976595890164375,0.05299608812038786,0.26172574052177366
1772794656714987300,1.8939873046875,0.30374913806319237,0.19366985690556465,0.3130709835620597
1772794656725031200,1.90403125,0.3203939833939075,0.3601041355568915,0.3300706336798146
1772794656735075300,1.914075439453125,0.3447726378470659,0.5834118095528334,0.32693047249056395
1772794656745120300,1.924120361328125,0.3550637302368879,0.8002970492858439,0.33666889943368733
1772794656755164200,1.9341640625,0.3903367036700249,1.0293781921166927,0.42885267761237916
1772794656765208300,1.944208251953125,0.4498334332555532,1.1590856452647595,0.5037045415116473
1772794656775253200,1.954253173828125,0.5926619415223598,1.2372867099940776,0.5633520412120968
1772794656785297200,1.964297119140625,0.7085422371089458,1.1825951887331903,0.6990037166520953
1772794656795341300,1.97434130859375,0.7798983313143253,1.0412440595425665,0.6342500163864344
1772794656805386200,1.98438623046875,0.9867898541688919,1.021350368483737,0.49798926913738245
1772794656815430100,1.99443017578125,0.9468675936251878,0.8245131335884333,0.5771786873169243
1772794656825474300,2.004474365234375,0.7609627446979284,0.3758259477585554,0.6472517559744417
1772794656835519200,2.014519287109375,0.6638105304569005,0.07499450550666079,0.48881801109034567
1772794656845563100,2.024563232421875,0.5272440051943064,-0.1551978865017183,0.23173711896603927
1772794656855607300,2.034607177734375,0.29896891804933545,-0.2812531372851692,0.028327876136125994
1772794656865652200,2.04465234375,0.07810849107503891,-0.3769905345585197,-0.05488366456581279
1772794656875695900,2.05469580078125,-0.024992986959218977,-0.4943648680951446,-0.05127704577543772
1772794656885739800,2.06473974609375,-0.09003799832165241,-0.5605236493857577,0.006718403268512338
1772794656895785000,2.074784912109375,-0.17077917598783968,-0.5561565402174368,0.04451024592109024
1772794656905828900,2.084828857421875,-0.29993571725487705,-0.47081828055195507,0.017137706881575284
1772794656915872800,2.094872802734375,-0.39496845512390133,-0.2937304328739643,-0.06901190569940954
1772794656925918000,2.10491796875,-0.4999205294609069,-0.1397817975146696,-0.09376772290188819
1772794656935961900,2.1149619140625,-0.5209773460149765,-0.01648782813809812,-0.13878113257214425
1772794656946005800,2.125005859375,-0.5234633176118135,0.13868501525390892,-0.16005864267218858
1772794656956051000,2.135051025390625,-0.547778259178996,0.25624171962011605,-0.13783815263360738
1772794656966094800,2.1450947265625,-0.6161059454739093,0.2249369922308251,-0.12157901868484913
1772794656976138800,2.155138671875,-0.6478168425112962,0.16383348503578454,-0.13819445525798946
1772794656986184000,2.165183837890625,-0.6183540166616439,0.1151114301059395,-0.21302589742373673
1772794656996228000,2.17522802734375,-0.5716787747263908,-0.010846753511205315,-0.24462188111087305
1772794657006271700,2.185271728515625,-0.38938685559928415,-0.1052733421806246,-0.2793591402321122
1772794657016317000,2.19531689453125,-0.24914076504111288,-0.25015439906306564,-0.27940575585281474
1772794657026361000,2.205361083984375,-0.05875263321995735,-0.3183202458597719,-0.3536842585772276
1772794657036404700,2.21540478515625,0.08369125964343548,-0.5342985633483156,-0.4987365803733468
1772794657046450000,2.225449951171875,0.2048515414595604,-0.6775544667143374,-0.49984972924701865
1772794657056494000,2.235494140625,0.4133142591536045,-0.666543389486894,-0.7030974887717515
1772794657066538000,2.2455380859375,0.6682458825558424,-0.8162554467223584,-0.7765968786161392
1772794657076583000,2.2555830078125,0.8114484848320483,-1.0429648919858039,-0.6703725923862308
1772794657086627000,2.265626953125,0.9311030382603407,-1.1146722107816487,-0.7026062711887061
1772794657096671000,2.2756708984375,0.8888163866728543,-1.1555914464734494,-0.767192578998208
1772794657106716000,2.2857158203125,0.8146656933128833,-1.1665718363016844,-0.8020894125953316
1772794657116760000,2.295760009765625,0.6803361333221196,-1.1515940474003552,-0.8332195871353149
1772794657126804000,2.305803955078125,0.46675475744009015,-0.937267625304684,-0.7181587181728333
1772794657136849000,2.315848876953125,0.32620003932416436,-0.6215428758308291,-0.6039214405529201
1772794657146893000,2.32589306640625,0.20284370876848695,-0.4055185637760907,-0.500337147437781
1772794657156937000,2.33593701171875,0.08920856176018714,-0.27946565108019855,-0.4255070935115218
1772794657166982000,2.34598193359375,-0.02183013901412487,-0.19534297774955628,-0.4034446801114827
1772794657177025800,2.35602587890625,-0.11174304965138435,-0.11084876769278197,-0.4425301610374823
1772794657187070000,2.366070068359375,-0.18093816643059252,-0.04763933772705495,-0.5064166500145569
1772794657197115000,2.376114990234375,-0.18688158500492572,-0.019807620210573074,-0.5060057676587254
1772794657207158800,2.38615869140625,-0.1320481710553169,-0.008706051688082516,-0.4164697275098413
1772794657217203000,2.396202880859375,-0.16788462359011172,-0.17989621962960808,-0.2928082765277475
1772794657227247900,2.406247802734375,-0.12938859645724296,-0.2746734849002212,-0.4429305585319176
1772794657237291800,2.416291748046875,-0.06491758559048176,-0.3152307554118335,-0.5955393601221963
1772794657247336000,2.4263359375,-0.07918167326450347,-0.36216450215280055,-0.6169836050912737
1772794657257380900,2.436380859375,-0.0032218846559524533,-0.3587435512607917,-0.6338784796603024
1772794657267424800,2.4464248046875,-0.009485621225833893,-0.5612770250363275,-0.5508078361332416
1772794657277469000,2.456468994140625,-0.06330956587195397,-0.7636831826377659,-0.5938419816197827
1772794657287513900,2.466513916015625,-0.12943828081786632,-0.8518967420112341,-0.7972504481315612
1772794657297557800,2.476557861328125,-0.13030337321460247,-0.9313404272127896,-1.0037508527766912
1772794657307602000,2.486601806640625,-0.1482657308846712,-1.1019927619505674,-1.1061461553029714
1772794657317647000,2.496647216796875,-0.17245909189879893,-1.3707662290267646,-1.1842374029822647
1772794657327690800,2.506690673828125,-0.14083879575431346,-1.4840011246711016,-1.3276777595371008
1772794657337735000,2.51673486328125,-0.0845703805655241,-1.588199019639939,-1.4853656910225748
1772794657347780000,2.526780029296875,-0.009937456646561623,-1.7013097043827174,-1.523849004804343
1772794657357823700,2.53682373046875,0.0268219559520483,-1.7551390558563171,-1.4756540059559047
1772794657367868000,2.546867919921875,-0.031095980009436607,-1.7508597711019216,-1.4407552726626396
1772794657377913000,2.5569130859375,-0.24137714530229568,-1.4116997124396264,-1.1979366233151405
1772794657387956700,2.566956787109375,-0.49717327657938,-0.6669394761323928,-0.7337811616532504
1772794657398001000,2.5770009765625,-0.6651835723757743,0.07657777437642216,-0.4046631890557706
1772794657408046000,2.587046142578125,-0.7942880911946296,0.6949281377762556,-0.05611300543136894
1772794657418090000,2.597090087890625,-0.9552665886580943,0.9265233092546462,-0.02040799725651741
1772794657428134000,2.6071337890625,-0.9662298812210559,1.1513653532110153,-0.03845525673106313
1772794657438179000,2.617178955078125,-0.8541478088736534,1.3162639467276631,-0.024005729487538336
1772794657448223000,2.627222900390625,-0.792801067507267,1.2616441755287349,-0.01872230919189751
1772794657458267000,2.637266845703125,-0.7817331455260514,0.9935502882145345,-0.028729981530457735
1772794657468312000,2.64731201171875,-0.7154413489729166,0.7471353679407388,-0.0666866410896182
1772794657478356000,2.65735595703125,-0.6483551871716976,0.6653508917666972,-0.11485365595258772
1772794657488400000,2.66739990234375,-0.5301946716934443,0.5935125670023262,-0.21722623519040643
1772794657498444800,2.67744482421875,-0.4042880721330642,0.44166115965060887,-0.16653262445926664
1772794657508489000,2.687489013671875,-0.2608253576159477,0.3869380011424422,0.023831541964411736
1772794657518532900,2.697532958984375,-0.1386357327520847,0.3691391634710133,0.25013627888448536
1772794657528577800,2.707577880859375,-0.006484101322293281,0.39710517489165065,0.49456579749472435
1772794657538622000,2.7176220703125,0.12085749947726726,0.40969829714614897,0.6854233734585344
1772794657548666000,2.727666015625,0.19601064787805078,0.5410419001286849,0.8709680838365107
1772794657558710800,2.737710693359375,0.20666297479569912,0.6161553375735879,1.0086324142731726
1772794657568755000,2.7477548828125,0.225598561412096,0.68224240533486,1.1298822010036558
1772794657578799000,2.757799072265625,0.25440555370151996,0.7204689678765833,1.2004479485489428
1772794657588843800,2.76784375,0.2894605004698038,0.778449228484556,1.2302198403477669
1772794657598888000,2.777887939453125,0.362051689428091,0.824975052011758,1.2406675846040247
1772794657608932000,2.78793212890625,0.4569114088177681,0.8670418503034859,1.147440654047951
1772794657618976800,2.797976806640625,0.5625754308164119,0.9195815272927284,1.0687761365253479
1772794657629021000,2.80802099609375,0.7103337967008352,0.96982176823318,0.9995318468421697
1772794657639065000,2.818065185546875,0.848572054567933,1.045344188337773,0.9537025542117654
1772794657649109800,2.82810986328125,1.031879872739315,1.0681596120622008,0.9025061085250228
1772794657659154000,2.83815380859375,1.289880820584297,1.0304529086761176,0.8880845652669668
1772794657669197800,2.84819775390625,1.5098293934106826,0.9027836833573877,0.8288238363943994
1772794657679242800,2.85824267578125,1.6319722565233707,0.7588259518649428,0.8144337842531502
1772794657689287000,2.868286865234375,1.643553388723731,0.6328939256023616,0.7906347563188523
1772794657699330800,2.878330810546875,1.4908768556594847,0.546661931967549,0.6949371248003094
1772794657709375700,2.888375732421875,1.2344804204016924,0.486332879743725,0.5978387596383691
1772794657719420000,2.898419921875,0.932113092085719,0.46512631598804144,0.5341931667450815
1772794657729463800,2.9084638671875,0.6358814900457859,0.47001690104119476,0.4823970015995204
1772794657739509000,2.918509033203125,0.33069442813396455,0.4461216461908072,0.4644911964222789
1772794657749553000,2.928552978515625,0.10388006119132041,0.42844208751749246,0.4076149515334517
1772794657759596800,2.9385966796875,-0.05929857666492462,0.40858547706604004,0.2950493334528059
1772794657769642000,2.94864208984375,-0.1972960115134716,0.3846770704731345,0.14957414660211651
1772794657779686000,2.958685791015625,-0.35862931376397605,0.37005288078244775,0.009109262194111943
1772794657789729800,2.968729736328125,-0.5452525400936603,0.41933545567188407,-0.0702510921055451
1772794657799775000,2.97877490234375,-0.7113818444490432,0.45606593443695453,-0.0967146265413612
1772794657809819000,2.98881884765625,-0.8068681713044643,0.5245276223750784,-0.0684385262582451
1772794657819862800,2.99886279296875,-0.8217717259258032,0.5966537511048838,-0.06000424071624875
1772794657829908000,3.008907958984375,-0.7616846292316913,0.6728112907752394,-0.05030187146719545
1772794657839952000,3.018951904296875,-0.6268143864929676,0.691579704131186,-0.042935397819802164
1772794657849995800,3.028995849609375,-0.48558162298500535,0.631865459337458,0.006851984786614775
1772794657860041000,3.039041015625,-0.3066004358410835,0.5172662896025926,0.03308401202149689
1772794657870085000,3.049085205078125,-0.11430500909388065,0.39649814890921115,0.032489224466122686
1772794657880129000,3.05912890625,0.06037175885438919,0.22663669055448843,0.05002411397174
1772794657890174000,3.069174072265625,0.21404607078433036,0.04040633599990979,0.03752232326250523
1772794657900218000,3.079218017578125,0.3530459606736898,-0.1871792162446305,-0.0008176365258172153
1772794657910262000,3.089261962890625,0.43099604631662364,-0.375889587579295,0.00040434301719069476
1772794657920307000,3.099306884765625,0.45908524572551246,-0.584773014903441,0.035878318915143606
1772794657930351000,3.10935107421875,0.5199883349776268,-0.7558163217201829,0.07389277307614683
1772794657940394800,3.119394775390625,0.5459925448060036,-0.9010973377056419,0.09916287821000441
1772794657950440000,3.12943994140625,0.5642945096939802,-0.9415260864667594,0.08848004655623808
1772794657960484000,3.139484130859375,0.6052256550192833,-0.9549489740762859,0.13416488921465353
1772794657970528000,3.149528076171875,0.631356706097722,-0.9380077761474996,0.15654193978812544
1772794657980573000,3.159572998046875,0.6030144087105989,-0.9137637809246778,0.18529718362400308
1772794657990617000,3.1696171875,0.5311193853229284,-0.8645661809049546,0.25636470667896794
1772794658000661000,3.179660888671875,0.42626901779472826,-0.7900189625080675,0.34004444028139114
1772794658010706000,3.189705810546875,0.31260698277950283,-0.6774622583862394,0.4227192163586616
1772794658020750000,3.19975,0.19039631512761115,-0.5399372268224135,0.5027877554602921
1772794658030794000,3.2097939453125,0.0693774876087904,-0.4402341225221753,0.5753473802365362
1772794658040839000,3.2198388671875,-0.0032639702320098876,-0.3406693307140842,0.6917154593400657
1772794658050883000,3.229883056640625,-0.03599018179178238,-0.24854184929989276,0.7766743277665227
1772794658060927000,3.239927001953125,-0.08747954601049422,-0.26582718449123205,0.8616673907235264
1772794658070972000,3.249971923828125,-0.12095336106717586,-0.3455274748023599,0.9500345332235097
1772794658081016000,3.26001611328125,-0.12414777319431304,-0.45202232160195704,1.0019782170809806
1772794658091060000,3.27006005859375,-0.10101005871295929,-0.5521088357292115,1.0084078117370605
1772794658101105000,3.28010498046875,-0.10207973377108573,-0.6719729402549565,0.9869563698422164
1772794658111149000,3.290149169921875,-0.1460696821451187,-0.7588557624813169,0.899487199095264
1772794658121193000,3.30019287109375,-0.1842255175381899,-0.8800888172727077,0.7382767195068299
1772794658131237000,3.310237060546875,-0.18456980093121528,-0.969949632396549,0.6332340442769229
1772794658141282000,3.320281982421875,-0.2011649619013071,-1.0363823717903344,0.6040261065037921
1772794658151326000,3.330325927734375,-0.22880817110836504,-1.0779172551624476,0.6175103323791176
1772794658161370000,3.3403701171875,-0.2600818457722664,-1.0956151897426694,0.6278354001037776
1772794658171415000,3.3504150390625,-0.29292905336320396,-1.0732732287488878,0.6455723515201359
1772794658181459000,3.360458984375,-0.29342765053510667,-1.013391664564237,0.6650256784003228
1772794658191503000,3.370503173828125,-0.22614216676950452,-0.9249612475696951,0.6997953054212034
1772794658201548000,3.380548095703125,-0.12700374714732168,-0.9003463732078671,0.7094710423916578
1772794658211592000,3.390592041015625,-0.07989362092614173,-0.8604907481595874,0.6826970172345638
1772794658221636000,3.400635986328125,-0.06680968294739723,-0.8853357049502432,0.6296679492931813
1772794658231681000,3.410680908203125,0.023519991797208786,-0.9817807938352227,0.48954862691983575
1772794658241725000,3.420724853515625,0.051126960647106166,-1.0387619604032485,0.36856176544185726
1772794658251769000,3.43076904296875,0.013650339689850806,-1.0636446919210254,0.28126490078819916
1772794658261813800,3.440813720703125,-0.0738777216374874,-1.0284362350914626,0.30880203753858804
1772794658271858000,3.45085791015625,-0.16354454855918885,-0.9464543366491794,0.031339561240654436
1772794658281902000,3.460902099609375,-0.34713936697840686,-0.7836332800589502,-0.03854585305738728
1772794658291947000,3.470947021484375,-0.5945972934991121,-0.7375739780649543,-0.11618992779133841
1772794658301991000,3.480990966796875,-0.9029512950092553,-0.7526816038910299,-0.22310740218348799
1772794658312035000,3.49103515625,-1.2117881116002798,-0.7802151421785354,-0.3482855413388461
1772794658322080000,3.501080078125,-1.509901289603114,-0.770133235559985,-0.5129745837580413
1772794658332124000,3.5111240234375,-1.5998539477288722,-0.838232812187448,-0.4302650286283344
1772794658342168000,3.52116796875,-1.8669933107972143,-0.67364255396761,-0.7684694670662283
1772794658352213000,3.531212890625,-1.9608383001863956,-0.17410495940968393,-1.0215228024411946
1772794658362257000,3.5412568359375,-2.025215203028917,0.16250570703074335,-0.8940081831622868
1772794658372301000,3.551301025390625,-2.007669024944305,0.32453853585273024,-0.4191759542612359
1772794658382346000,3.561345947265625,-1.9005197328239678,0.5412044337466358,0.07503255422841758
1772794658392390000,3.571389892578125,-1.6197405514597891,0.8014164087045937,0.37152251494359223
1772794658402434000,3.58143408203125,-1.1755752269685267,0.9829901696249842,0.49447322384044523
1772794658412479000,3.59147900390625,-0.6690992845147847,1.0745257860932498,0.5148677040282637
1772794658422523100,3.601523193359375,-0.14244506190717218,1.070032566327229,0.5624402601294219
1772794658432566800,3.61156689453125,0.31296412565410137,0.9587170213729143,0.5212530942164361
1772794658442612000,3.621612060546875,0.626541414770484,0.8919402177818119,0.49223961956948037
1772794658452656000,3.63165625,0.9229816911250353,0.9346909797497093,0.5306824186777696
1772794658462699800,3.64169970703125,1.0700871460586785,0.809060128390789,0.4650786409214139
1772794658472745000,3.651744873046875,1.1393418840706349,0.6587349807582795,0.43628827097322787
1772794658482789000,3.6617890625,1.1823948438555,0.5542326960153877,0.34195111415293067
1772794658492833000,3.6718330078125,1.1436042176902292,0.40203010060582306,0.2019008749604225
1772794658502878000,3.6818779296875,1.0455430719107388,0.3204807118292898,0.12317008726857602
1772794658512922000,3.691922119140625,0.9513590598255396,0.31422439138088376,0.05412617899570614
1772794658522966000,3.701966064453125,0.8567699740707874,0.4145660858456045,0.04265325641017407
1772794658533011000,3.712010986328125,0.806958187675476,0.5281976891899481,0.1410543382011354
1772794658543055000,3.72205517578125,0.8647329157739877,0.6015503275074064,0.2842001687888056
1772794658553099000,3.73209912109375,0.9286158976197242,0.6739847915340215,0.42793150764685123
1772794658563144000,3.74214404296875,0.9422264898210764,0.7112570490255952,0.5178021865775808
1772794658573188000,3.75218798828125,0.9910743996202945,0.7097129613887518,0.5731313481548801
1772794658583232000,3.76223193359375,0.9804758487164974,0.7174876870434731,0.5831147993676364
1772794658593277000,3.77227685546875,0.9808896902143954,0.7550387614764272,0.6192015734016895
1772794658603321000,3.782321044921875,0.9903238735139369,0.6795629569925368,0.6258476603526621
1772794658613365000,3.792364990234375,0.9675064770281314,0.5416585341896861,0.6091878366485237
1772794658623410000,3.802409912109375,0.9310311420679092,0.38740700689367946,0.5522728671845049
1772794658633454000,3.8124541015625,0.8342290564388036,0.19534962668605146,0.423171270975098
1772794658643498000,3.822498046875,0.7091729362279177,-0.00045601840550079937,0.28291188254393634
1772794658653543000,3.83254296875,0.5772615432947874,-0.15637469346243887,0.1259701663158834
1772794658663587000,3.842587158203125,0.35027649596035476,-0.25422515563331544,-0.010965557585284114
1772794658673631000,3.852630859375,0.07489654329121112,-0.28881222916152327,-0.21027349344305693
1772794658683676000,3.862676025390625,-0.11564940944015979,-0.2468498593586497,-0.3674623893652111
1772794658693720000,3.872719970703125,-0.2978086420983076,-0.16600830832421778,-0.4703740439157933
1772794658703764000,3.882763916015625,-0.48704234318733214,-0.05143628232460469,-0.49451428650319573
1772794658713809000,3.892808837890625,-0.4786953706026077,-0.06709855092533398,-0.3847054197847843
1772794658723853000,3.90285302734375,-0.5247726466447115,0.07597886776835658,-0.5527796476628631
1772794658733897000,3.91289697265625,-0.4726099132090807,0.19699291864736004,-0.5393131401073187
1772794658743942100,3.922942138671875,-0.29515608176290986,0.13421730438848026,-0.43944136470928785
1772794658753985800,3.93298583984375,-0.07207797873914241,0.07412285093839746,-0.32998087303712964
1772794658764030000,3.943030029296875,0.07510814021527766,-0.028481276599550617,-0.2783780385065824
1772794658774075100,3.9530751953125,0.1591331618577242,-0.11376633563991635,-0.35791020570918913
1772794658784118800,3.963118896484375,0.2667763749748468,-0.1387277401507832,-0.49504408253096044
1772794658794163000,3.973162841796875,0.3221510561943054,-0.1921333497869782,-0.5483387426059693
1772794658804208000,3.9832080078125,0.3502531150847673,-0.31915311648733913,-0.5195381069920957
1772794658814251000,3.9932509765625,0.39758243701457974,-0.47255862141326066,-0.4272902506012469
1772794658824296000,4.0032958984375,0.4150573034286499,-0.5826174443047494,-0.431937784146145
1772794658834340000,4.013340087890625,0.426612716665864,-0.6918420083291829,-0.4696444875322282
1772794658844384000,4.023384033203125,0.4371908093035221,-0.7504745223008096,-0.506126617559418
1772794658854429000,4.033428955078125,0.4104898493826389,-0.8246301110316068,-0.517635195980221
1772794658864473000,4.04347314453125,0.3818260649561882,-0.8562135092318057,-0.5383559855129569
1772794658874517000,4.05351708984375,0.35973815178871155,-0.8365522386893629,-0.5366010316044092
1772794658884562200,4.063562255859375,0.3080015348106622,-0.7976008690044284,-0.504550746544823
1772794658894606300,4.0736064453125,0.20324644435048103,-0.7194649054005742,-0.4642999116338789
1772794658904650500,4.083650390625,0.16008476349413395,-0.6670994889996945,-0.42753129281550645
1772794658914695200,4.093695068359375,0.13087152849137781,-0.5769247125558554,-0.3974056191429496
1772794658924739300,4.1037392578125,0.042002573949098586,-0.5386977481553331,-0.29538280319087207
1772794658934783500,4.113783447265625,-0.01772737987041473,-0.4852794982332736,-0.29383959233686324
1772794658944828200,4.123828125,-0.0064233110457658765,-0.4661227431468665,-0.29939978374727066
1772794658954872300,4.133872314453125,0.017697569254040715,-0.4815820319548249,-0.25938414583168923
1772794658964916500,4.14391650390625,0.02385433831810951,-0.5327754089016467,-0.22448438962511716
1772794658974961400,4.15396142578125,-0.08045826907157898,-0.6036088674724102,-0.07044065986089408
1772794658985005300,4.16400537109375,-0.047531566503643985,-0.6659416242014616,-0.16957243054658175
1772794658995049500,4.174049560546875,0.008994038316607474,-0.7469234056904912,-0.3240812936045229
1772794659005094400,4.184094482421875,-0.057060442349314684,-0.8426405456271022,-0.3296647197600454
1772794659015138300,4.19413818359375,-0.10445523073077201,-0.9099453916803002,-0.3667290335893631
1772794659025182500,4.204182373046875,-0.11941606849730015,-1.0337569917228073,-0.34854411920979617
1772794659035227400,4.214227294921875,-0.12657704616785048,-1.1840972638592124,-0.28190782006792725
1772794659045271300,4.224271240234375,-0.07721475710570812,-1.3435399300575255,-0.27474939968064427
1772794659055315200,4.234315185546875,0.0641705666154623,-1.5802495219402015,-0.11921871929429471
1772794659065360400,4.2443603515625,0.008581365862488746,-1.526069165071845,-0.3591999532587826
1772794659075404300,4.254404296875,0.06770575500428676,-1.4410674073517322,-0.37996202464997764
1772794659085448200,4.2644482421875,-0.06182604931592941,-1.450767255850136,-0.22994857331514357
1772794659095493400,4.274493408203125,-0.15667758539915083,-1.344521926832199,-0.21724472069516776
1772794659105537500,4.28453759765625,-0.28621348137259484,-1.2150318427618592,-0.24963044825419783
1772794659115581200,4.294581298828125,-0.49103755030333995,-1.1284654660735278,-0.23247926083654163
1772794659125626400,4.30462646484375,-0.613171061065793,-1.1366791676674037,-0.15260609817653895
1772794659135670500,4.31467041015625,-0.5974164425730705,-1.0817058337904513,-0.13068484681285916
1772794659145714200,4.324714111328125,-0.5868173071473837,-1.0017845942050219,-0.20626747267208992
1772794659155759400,4.33475927734375,-0.5486509503602981,-0.9266577492892741,-0.2921204403940588
1772794659165803500,4.344803466796875,-0.5810726260155439,-0.928376024449244,-0.21048574795424937
1772794659175847200,4.35484716796875,-0.6026484980076551,-0.6279984817110001,-0.5085197597736493
1772794659185892400,4.364892333984375,-0.6502934617578983,-0.4932401018489152,-0.6187843709029257
1772794659195936500,4.3749365234375,-0.7869815675735473,-0.314606412968412,-0.5550337832652033
1772794659205980400,4.38498046875,-1.0205880788743495,0.030169403216429053,-0.5657768206736072
1772794659216025300,4.395025390625,-1.1917138763427733,0.16970314425416289,0.06578465074859559
1772794659226069500,4.405069580078125,-1.7316870147287844,0.5468704966843128,0.1399428150289692
1772794659236113400,4.415113525390625,-2.043147750082612,0.8226148256864398,0.25139471798036245
1772794659246158300,4.425158447265625,-2.121528043836355,0.6701944593403488,0.3793538661563769
1772794659256202500,4.435202392578125,-1.9941163004100322,1.0426716081276535,0.05684416925013065
1772794659266246400,4.445246337890625,-1.8061171095520256,1.3281317869149147,-0.16642381205623968
1772794659276291300,4.455291259765625,-1.4021739053338764,1.5557342354953287,-0.6194988758478314
1772794659286335500,4.46533544921875,-1.1270330221176146,1.5510776418611407,-1.1368632920626551
1772794659296379400,4.47537939453125,-0.7620902874231338,1.1856935931399464,-1.2061479137562214
1772794659306424300,4.48542431640625,-0.35412148095071316,0.5558095899432898,-0.6745956899739801
1772794659316468500,4.495468505859375,0.018861352336406706,0.34792722942046816,-0.2481127006350085
1772794659326512400,4.505512451171875,0.4755290155261755,0.21028834395231677,-0.45127113790847356
1772794659336557300,4.515557373046875,0.831734901535511,0.29595793619770555,-0.6866857946097851
1772794659346601500,4.5256015625,1.0265858579844236,0.5447385261569172,-0.5876621970063075
1772794659356645400,4.535645263671875,1.0796458325207232,0.6123110467029735,-0.29028124226816
1772794659366690300,4.545690185546875,1.073612982097268,0.6299119141168892,0.03385994656374678
1772794659376734200,4.555734130859375,1.0377847128689288,0.8931801348403096,0.4208199586085975
1772794659386778400,4.5657783203125,1.0192623832285403,1.1583734784074127,0.7584760424487292
1772794659396823300,4.5758232421875,0.9477391157627105,1.285544837206602,1.0081915386378764
1772794659406867200,4.5858671875,0.8562748840302229,1.318598381024599,1.1168676019340753
1772794659416911400,4.595911376953125,0.7503940044105053,1.3706380726024507,1.1598067260809242
1772794659426956300,4.605956298828125,0.6369640245854854,1.3944513482578098,1.1404805327117442
1772794659437000200,4.616000244140625,0.5055529823899269,1.3218151511140166,1.1169150212723762
1772794659447044400,4.62604443359375,0.40909342658817766,1.2414105119258165,1.0477880743585526
1772794659457089500,4.636089599609375,0.4239151481449604,1.2395192913517354,1.0029917049724608
1772794659467133200,4.64613330078125,0.46503918569386005,1.1474193920642137,1.06386732169576
1772794659477177300,4.65617724609375,0.4313075964838266,1.045242262333259,1.0161717237368226
1772794659487222500,4.666222412109375,0.5314905567228794,1.0025057480864226,0.9294679113391786
1772794659497266200,4.67626611328125,0.6917822409659624,0.9370481373351067,0.8969800385799258
1772794659507310300,4.686310302734375,0.753038965961337,0.7762895662326366,0.8056867795001715
1772794659517355500,4.69635546875,0.7348673494547605,0.6219567903939635,0.6352182768967002
1772794659527399400,4.7063994140625,0.6807534819513559,0.49080556817837057,0.42192116131614893
1772794659537443300,4.716443359375,0.5768143840491772,0.37739063979201015,0.3216830002911389
1772794659547488500,4.726488525390625,0.4756453353822231,0.28672552254796024,0.2885829869829118
1772794659557532400,4.736532470703125,0.3683580960959196,0.24256240956410766,0.2467996452750638
1772794659567576300,4.746576416015625,0.24788813463151455,0.27157975666858253,0.18601046472620217
1772794659577621500,4.75662158203125,0.1549544148683548,0.3956401438403874,0.1045839442775119
1772794659587665400,4.76666552734375,0.11635375831723213,0.5798757443811744,0.08972330634929239
1772794659597709300,4.776709228515625,0.08224106083512306,0.7917000474628061,0.1136482074192725
1772794659607754500,4.78675439453125,0.03915010712742805,1.014032154424861,0.16687451496580616
1772794659617798400,4.79679833984375,0.005512041419744491,1.1781944695562123,0.21783232959108426
1772794659627843300,4.80684326171875,0.05683247881233692,1.3329954474285244,0.19992906343080102
1772794659637887500,4.816887451171875,0.0457663103967905,1.4137548914037643,0.34372396904435004
1772794659647931400,4.826931396484375,0.022857728496193885,1.4694330856144426,0.25370115002552046
1772794659657976300,4.836976318359375,-0.007090835043787956,1.3011122625641525,0.07793362769847735
1772794659668020500,4.8470205078125,0.005285831448435783,0.8183133291002362,-0.35438228731136767
1772794659678064400,4.857064453125,0.16005319931209086,0.17985011546555907,-0.5923488935178145
1772794659688109300,4.867109375,0.4222399084091186,-0.1371173275457695,-0.8705503698810935
1772794659698153200,4.8771533203125,0.5673901376217604,-0.49667584845125673,-1.001230540518835
1772794659708197400,4.887197265625,0.5588105253249407,-0.7865852617323398,-0.9295280440285801
1772794659718242300,4.8972421875,0.5728320364147425,-0.8808443848803639,-0.8797600967749952
1772794659728286200,4.9072861328125,0.6247393337845802,-0.8604049695722759,-0.7901612205229699
1772794659738330400,4.917330322265625,0.6564508153438567,-0.8480389706045389,-0.618308643149957
1772794659748375300,4.927375244140625,0.6638163756757974,-0.7630771795686334,-0.3657995707195252
1772794659758419200,4.937419189453125,0.6494605180650949,-0.5704220526635646,-0.10214251507529988
1772794659768463400,4.94746337890625,0.5490706370770931,-0.4171912101848051,0.05010386467706412
1772794659778508500,4.957508544921875,0.31788287735581394,-0.31150388037580995,0.1980858832495287
1772794659788552200,4.96755224609375,0.02252279745340347,-0.22640686385398728,0.36531858226954933
1772794659798596400,4.977596435546875,-0.25975743612349034,-0.2002077342417091,0.498532180375047
1772794659808641500,4.9876416015625,-0.5421007980644703,-0.21589575377162545,0.5854803229225799
1772794659818685200,4.997685302734375,-0.746071465036273,-0.23270044757286085,0.6374583839736878
1772794659828729300,5.007729248046875,-0.8387836510032415,-0.27976543774437157,0.6410727750785649
1772794659838774500,5.0177744140625,-0.7896592623502016,-0.31769626874253154,0.5589143510255963
1772794659848818200,5.027818115234375,-0.6413543684989214,-0.2282057117031887,0.6507479275271296
1772794659858862300,5.0378623046875,-0.5213572852432727,-0.1627922688871622,0.8319228253230452
1772794659868907500,5.047907470703125,-0.36969314409196374,-0.08342892804597504,0.8498502578102052
1772794659878951400,5.057951416015625,-0.17015256852209568,0.03780678449338302,0.8214883789397776
1772794659888994800,5.067994873046875,-0.013144728255271911,0.09829184012967161,0.844167462933436
1772794659899040000,5.0780400390625,0.06009060382544994,0.01990607561636716,0.8270107225578278
1772794659909084200,5.088084228515625,0.18077157769203184,0.005497725200024433,0.8311642620407045
1772794659919128000,5.098128173828125,0.23810031558871267,-0.02359203868668992,0.8808344480082392
1772794659929173000,5.108173095703125,0.20351240181028843,-0.22552867451366035,0.8092810045998543
1772794659939217200,5.118217041015625,0.16527356430888174,-0.42558300829194484,0.6715604869965464
1772794659949261000,5.128260986328125,0.14071429259181023,-0.5994453911174088,0.5980293868396431
1772794659959306000,5.138305908203125,0.10807809740304947,-0.8821032989002764,0.568452286960557
1772794659969350100,5.14835009765625,0.10541092402040958,-1.0951086284600198,0.49105479369908567
1772794659979394000,5.15839404296875,0.06874737301170826,-1.2765364781036972,0.3035522272516042
1772794659989439000,5.16843896484375,0.00836333919763565,-1.4794855469428,0.12787293119728566
1772794659999483100,5.178483154296875,0.014827566775679587,-1.7721002736598253,0.23581783067472278
1772794660009527000,5.188527099609375,-0.03931844943165779,-1.778308334519714,-0.1572275474321097
1772794660019572000,5.198572021484375,-0.02067278567254543,-1.7551462162494658,-0.2554132694393396
1772794660029615900,5.208615966796875,0.02049158388674259,-1.6360573338799178,-0.16764979192093013
1772794660039660000,5.218659912109375,0.11658815159499644,-1.2458563854187725,-0.1952755385365337
1772794660049705000,5.228705078125,0.0884440071284771,-0.9820597569070756,-0.23227299767471848
1772794660059748900,5.238748779296875,-0.09542144492566584,-0.7175596563011407,-0.1436239694934338
1772794660069793000,5.24879296875,-0.3668400927484035,-0.4343908763866871,-0.18970321829691528
1772794660079838000,5.258837890625,-0.603066431158781,-0.279917048109509,-0.16677081712931394
1772794660089881900,5.2688818359375,-0.7506739903956651,-0.456798742223531,0.07542794675417244
1772794660099926000,5.278926025390625,-0.8199445104986429,-0.5992778890633955,0.25708763239234683
1772794660109971000,5.288970947265625,-0.8168886300593614,-0.6333503641329705,0.26628442673943936
1772794660120014800,5.299014892578125,-0.900678673902154,-0.5943151886221021,0.20033786342740056
1772794660130059000,5.30905908203125,-1.050745901250839,-0.5383024652274325,0.03737381816990673
1772794660140104000,5.31910400390625,-1.1530746413469315,-0.41957222356982526,-0.13200652387067674
1772794660150147800,5.32914794921875,-1.257918579134345,-0.3361718366317451,-0.2549075118742883
1772794660160192000,5.33919189453125,-1.3405512696355582,-0.31122517303228375,-0.31979243730418383
1772794660170237200,5.3492373046875,-1.5024568188160656,-0.2297030741214752,-0.34552360234484075
1772794660180280800,5.35928076171875,-1.6364245597571134,-0.09023023295812309,-0.37342232068292797
1772794660190325000,5.369324951171875,-1.7599749515801668,0.12843352422211318,-0.3679993457861244
1772794660200370200,5.3793701171875,-1.7148258962988852,0.403106168872118,-0.2769659066863358
1772794660210413800,5.389413818359375,-1.5065291828215122,0.667948068653047,-0.14949746463671326
1772794660220458000,5.3994580078125,-1.1449842738717795,0.9398060577411204,-0.06569200402908026
1772794660230503200,5.409503173828125,-0.7381032626360654,1.1833569668859243,0.017976897652074695
1772794660240546800,5.419546875,-0.2062625773012638,1.338684598980844,0.10684490234628319
1772794660250591000,5.429591064453125,0.33525837504863737,1.3863880149200558,0.19900025814808903
1772794660260636200,5.43963623046875,0.8017664642512797,1.3654276444777846,0.3019569939494133
1772794660270680000,5.44968017578125,1.1714257060736417,1.2870251388922334,0.343675782521069
1772794660280724000,5.459723876953125,1.4127975906789303,1.2207860954396426,0.3238726192899048
1772794660290769200,5.46976904296875,1.5142255825430153,1.114101571286842,0.21589301382526754
1772794660300813000,5.47981298828125,1.4786843135625123,0.9888543854832649,0.08967128390111029
1772794660310857000,5.48985693359375,1.4139105203568934,0.8524055683162063,-0.002246244556829333
1772794660320902100,5.499902099609375,1.3258791856825352,0.6884115224238485,-0.062176543254032726
1772794660330946000,5.509946044921875,1.206653086799383,0.5207488710213453,-0.11660342222936451
1772794660340990000,5.519989990234375,1.0483137056678533,0.4410783913265913,-0.18623437314257024
1772794660351035000,5.530034912109375,0.8970049538254737,0.4606828171152621,-0.29041948169507087
1772794660361079000,5.5400791015625,0.8021610165268183,0.519342072963342,-0.35177674445547163
1772794660371123200,5.550123291015625,0.7308779875576495,0.6198350489996374,-0.408224680929631
1772794660381167900,5.56016796875,0.6838239754378795,0.7191419570565223,-0.42713082225583493
1772794660391212000,5.5702119140625,0.6919716260582208,0.838283738657087,-0.37213461895994837
1772794660401256200,5.580256103515625,0.6979115375012159,0.9508549096956849,-0.3215401577543467
1772794660411300900,5.59030078125,0.7391320211619138,0.9709458768922835,-0.25327625741064547
1772794660421345000,5.600344970703125,0.7752057895839214,0.8717594534099101,-0.1825636487405747
1772794660431389200,5.61038916015625,0.7527379371881484,0.7316332629043608,-0.0934559900715947
1772794660441433900,5.620433837890625,0.6860930894136429,0.5992980916012078,-0.12753332397937775
1772794660451478000,5.63047802734375,0.5282242484033107,0.5134147287409753,-0.1972852709237486
1772794660461522200,5.640522216796875,0.3346756067246198,0.4855741703309118,-0.2787948756791651
1772794660471566800,5.65056689453125,0.19592823029160497,0.37255350195914505,-0.3443216792091727
1772794660481611000,5.660611083984375,0.10651976204514503,0.2707235051654279,-0.4226562341250479
1772794660491655200,5.6706552734375,0.03331774771213531,0.19778708296604453,-0.48565424982979893
1772794660501699800,5.680699951171875,-0.07128010635972022,0.15372699196524917,-0.5212493678893894
1772794660511744000,5.690743896484375,-0.17787585625052452,0.09920067120343447,-0.55090428224504
1772794660521788000,5.700787841796875,-0.2835281878113746,0.10333141433261334,-0.5718389337241649
1772794660531832800,5.710832763671875,-0.32337270694375037,0.14703918476440012,-0.5405325988996774
1772794660541877000,5.720876953125,-0.3370300608962774,0.19651260605081916,-0.5356582708615809
1772794660551921000,5.7309208984375,-0.3186030083239078,0.237895952123031,-0.47676951710656285
1772794660561965800,5.7409658203125,-0.3217594265282154,0.250729495537281,-0.39813656376600265
1772794660572010000,5.751010009765625,-0.3446428739875555,0.2543842186525464,-0.27961802863031626
1772794660582054000,5.761053955078125,-0.32822248506248,0.25739750205911693,-0.198149413472414
1772794660592099000,5.77109912109375,-0.2684814253270626,0.20822357517592607,-0.1568873556923121
1772794660602143000,5.78114306640625,-0.1653670878112316,0.14365235533770174,-0.1000792076036334
1772794660612188200,5.791188232421875,-0.011055062499642372,0.06463390981089323,-0.08616400643251836
1772794660622232000,5.801232177734375,0.1101022967070341,-0.049072658465802665,-0.061298518310487264
1772794660632276000,5.81127587890625,0.13953414289653301,-0.18400610263384878,-0.03285663300640881
1772794660642321200,5.821321044921875,0.14014321470558644,-0.333409641909413,-0.053998278299719094
1772794660652365000,5.831364990234375,0.1435690975010395,-0.41598004429675633,-0.06862513487152755
1772794660662409000,5.841408935546875,0.11522913820147514,-0.4721291074221953,-0.11943652676343917
1772794660672452900,5.851452880859375,0.11957388940751552,-0.5364050706408917,-0.1932401602514088
1772794660682498000,5.861498046875,0.148152333638072,-0.6006432591324672,-0.21113529790416358
1772794660692542000,5.8715419921875,0.17989245676994323,-0.7415523801766336,-0.17302856234982608
1772794660702587000,5.8815869140625,0.22157471272349355,-0.8711716435845941,-0.12789601981192827
1772794660712631000,5.891631103515625,0.2577192082941532,-0.9923404009681195,-0.14059176219068467
1772794660722675200,5.90167529296875,0.3114642424851656,-1.1057199657801537,-0.24673019676804542
1772794660732719900,5.911719970703125,0.29950492462217804,-1.209093611819297,-0.3755369747493416
1772794660742764000,5.921763916015625,0.18521978927254676,-1.3069064819261431,-0.45031361798793074
1772794660752808200,5.93180810546875,0.028059973314404487,-1.3549769776120781,-0.434708637098968
1772794660762852900,5.941852783203125,-0.1351432144612074,-1.362683314205706,-0.5140471814256161
1772794660772897000,5.95189697265625,-0.2524614338964224,-1.2941169968493282,-0.5907359418958426
1772794660782941200,5.961941162109375,-0.3720049281656742,-1.1512540748562663,-0.5753551251515746
1772794660792985900,5.97198583984375,-0.44010815805494785,-1.0029601407904178,-0.5027773801967501
1772794660803030000,5.982030029296875,-0.3781698805361986,-0.8529224317971617,-0.4471262566560879
1772794660813074200,5.99207421875,-0.06374561920166015,-0.3154313925504684,-0.7522839098103344
1772794660823118800,6.002118896484375,0.08038461931347847,-0.21441526942290365,-0.6787126237735152
1772794660833163000,6.0121630859375,-0.13094576277136802,-0.9695340373329817,0.25278664726279676
1772794660843207000,6.02220703125,0.15092472096085546,-0.63679232128039,0.003061177668906748
1772794660853251800,6.032251953125,0.3907008608072996,-0.17067173355799167,-0.38826029925476757
1772794660863296000,6.0422958984375,0.34633097320497036,-0.06168737149760127,-0.39291502972543235
1772794660873340000,6.05233984375,0.38146132329702376,0.09951119845733046,-0.4867885876219719
1772794660883385000,6.062385009765625,0.15000819063782692,-0.33125703045278787,-0.138559927569516
1772794660893429200,6.07242919921875,0.05917348898053169,-0.47094614471532403,0.12127685740049927
1772794660903473200,6.08247314453125,0.0957850175410509,-0.24401516565568743,-0.2549925232766196
1772794660913518000,6.09251806640625,0.017487725895643232,-0.37182993692494926,-0.34061266862340267
1772794660923562200,6.102562255859375,-0.12244915258288383,-0.8445587272733449,-0.2706453984279185
1772794660933606100,6.112606201171875,-0.16279986767172813,-1.3205071372553705,-0.3474529264396056
1772794660943651000,6.122651123046875,-0.008391980770230293,-1.7734426281794904,-0.6194548905756324
1772794660953695200,6.1326953125,0.17858078964948654,-1.997772923221439,-0.8572318194288759
1772794660963739100,6.1427392578125,0.15649112291634082,-1.771346094291657,-0.8319532204613089
1772794660973784300,6.152784423828125,-0.12253215469121932,-1.359369075091183,-0.8507302555151284
1772794660983828200,6.162828125,-0.6445043569624423,-0.9639654434204101,-0.7520770621266215
1772794660993872100,6.1728720703125,-1.1508692402571439,-0.4065919286286458,-0.5085246551444754
1772794661003917300,6.182917236328125,-1.4872539889872074,0.13100531093887985,-0.18747326728776095
1772794661013961200,6.192961181640625,-1.706719162210822,0.6046592533081769,0.2209325971613638
1772794661024005000,6.203005126953125,-1.7348609685897827,1.0587382151789964,-0.017142017730511723
1772794661034050300,6.21305029296875,-1.7071271584898233,1.3354378721445799,-0.1375837029485032
1772794661044094200,6.22309423828125,-1.6995178525298833,1.5255898571223019,-0.006426124057359993
1772794661054138000,6.23313818359375,-1.6387866127133368,1.4662776903234422,0.08288496649553999
1772794661064183300,6.243183349609375,-1.3881506406784057,1.361549634000659,0.21968862498225644
1772794661074227500,6.2532275390625,-1.0854448741883038,1.2649565149471163,0.37461854473017153
1772794661084271000,6.26327099609375,-0.814459357085824,1.0001913336642085,0.2934754534658976
1772794661094316300,6.27331640625,-0.39996553275883195,0.8220505428671836,0.021185365704027934
1772794661104360400,6.2833603515625,0.13375906662642956,0.7681882389720529,-0.158555361969769
1772794661114404000,6.293404052734375,0.6086696579933166,0.7588157227318734,-0.2435172626035288
1772794661124449300,6.30344921875,0.9545195696830749,0.7359400932528078,-0.30023314756518227
1772794661134493400,6.313493408203125,1.238444063335657,0.6995699722327292,-0.37021976178195326
1772794661144538000,6.3235380859375,1.4840361959844828,0.7083671728029847,-0.333354879514873
1772794661154582300,6.333582275390625,1.6918448336839675,0.7602027201108634,-0.21550249840402974
1772794661164626400,6.34362646484375,1.8199749545127153,0.8303224043890833,-0.09727827917295508
1772794661174671000,6.353671142578125,1.8844611629486083,0.8704341961555182,0.011852287566737504
1772794661184715300,6.36371533203125,1.835197658085823,0.903490078061074,0.06606988829760811
1772794661194759200,6.37375927734375,1.643036671373248,0.8531377550482749,0.15098152004885487
1772794661204804000,6.38380419921875,1.3191402328163384,0.8299316515058278,0.23484957016445696
1772794661214848300,6.39384814453125,1.0185685557454824,0.8374659925334155,0.21626946418853477
1772794661224892200,6.40389208984375,0.7370867790699005,0.8746309171929955,0.23437345881899818
1772794661234937000,6.41393701171875,0.5163362422108649,0.8918035857900977,0.26908415872687474
1772794661244981200,6.423981201171875,0.38314825347065923,0.9747723763778805,0.3288804009819403
1772794661255025200,6.434025146484375,0.3130091338396072,1.072876484516263,0.3860158082636073
1772794661265070000,6.444070068359375,0.3323059549838304,1.167497426714003,0.4325179221216589
1772794661275114200,6.4541142578125,0.3893067761003971,1.2146413090743124,0.43302718681804836
1772794661285158100,6.464158203125,0.4525520445644855,1.2457973487079144,0.33693916774243116
1772794661295203300,6.474203369140625,0.4725163897067308,1.1940974104784428,0.23279976149518042
1772794661305247200,6.484247314453125,0.41210371432006354,1.0235416679829359,0.07809159473916515
1772794661315291100,6.494291015625,0.29087971961796283,0.7727174798995256,-0.07705958481030538
1772794661325336300,6.50433642578125,0.1263543433278799,0.5002805949449539,-0.1882597597566433
1772794661335380200,6.514380126953125,-0.06557400367259979,0.29702056046053765,-0.2746126215584576
1772794661345424100,6.524424072265625,-0.2505067926973104,0.1743882333304733,-0.314042532007955
1772794661355469300,6.53446923828125,-0.453778371489048,0.0995546722728759,-0.3248047125082463
1772794661365513200,6.54451318359375,-0.5874363158285617,0.07495287658832966,-0.2776113284504041
1772794661375557000,6.55455712890625,-0.6443512122273445,0.1311968149229884,-0.22326527789263054
1772794661385602300,6.564602294921875,-0.707215956941247,0.21832659764774143,-0.18643884620610623
1772794661395646200,6.574646240234375,-0.6811538794457912,0.316473741210252,-0.1401794915953651
1772794661405690000,6.584690185546875,-0.6593693331390619,0.31238764094039795,-0.12608257718179375
1772794661415735300,6.5947353515625,-0.6413952850311995,0.30200258665680885,-0.10498089857269077
1772794661425779500,6.604779541015625,-0.6095452717840671,0.35345439534410833,-0.021181575444899497
1772794661435823000,6.614822998046875,-0.5929360822886228,0.43565885049588976,0.09310772462319582
1772794661445868300,6.624868408203125,-0.5823918919205665,0.5445668228518218,0.17886318678744137
1772794661455912400,6.634912353515625,-0.5241536379635334,0.6680376466326415,0.2645430994974449
1772794661465956000,6.6449560546875,-0.3930278424501419,0.7602456094045191,0.38999665806069966
1772794661476001300,6.655001220703125,-0.22737433891296385,0.7594203375615179,0.4642159231448546
1772794661486045400,6.66504541015625,-0.11222294212281703,0.706319738753885,0.5213750400956719
1772794661496090000,6.675090087890625,-0.04261047671437263,0.5907072272580116,0.4771610006421804
1772794661506134300,6.68513427734375,0.015786767196655272,0.47252398849129673,0.42689840173944826
1772794661516178200,6.69517822265625,0.05400222382247448,0.3626986820947379,0.40325931360721584
1772794661526223000,6.70522314453125,-0.009288637349009513,0.2469995152287185,0.4416327372737229
1772794661536267300,6.715267333984375,-0.10177519786655902,0.12157149296551942,0.45794761999770994
1772794661546311200,6.725311279296875,-0.09038754241168498,0.12789068604968487,0.4670896154176444
1772794661556356000,6.735356201171875,-0.05175882880985737,0.21151859813332557,0.4834668227881193
1772794661566400300,6.745400146484375,-0.03421381976902485,0.27800241012722254,0.5323397208981215
1772794661576444200,6.755444091796875,0.030599136403203008,0.3553896742556244,0.5389245061159134
1772794661586489000,6.765489013671875,0.13380933550894258,0.46150713911019264,0.5103950886588543
1772794661596533200,6.775533203125,0.20835750375390052,0.5247262502197176,0.4776124707367271
1772794661606577200,6.7855771484375,0.22566811951696872,0.526993975955993,0.44889067251272496
1772794661616622300,6.795622314453125,0.23635084157288072,0.568971415463835,0.5322361143931746
1772794661626666200,6.805666259765625,0.24531156214177607,0.5697254487015306,0.595063741967082
1772794661636710100,6.815710205078125,0.2106903306156397,0.5638884861763567,0.6276084594801068
1772794661646755300,6.82575537109375,0.1875403411746025,0.5553364925388247,0.5412891894206404
1772794661656799200,6.83579931640625,0.12633563862740993,0.5228901208337396,0.47239495528414843
1772794661666843100,6.845843017578125,-0.0034311434924602507,0.4618593135487288,0.4133225155252963
1772794661676888300,6.855888427734375,-0.10484393778741359,0.4195864712908864,0.37934571938253936
1772794661686932200,6.86593212890625,-0.21072715549468993,0.36996260868310926,0.3555641540396958
1772794661696976100,6.87597607421875,-0.32167291728854175,0.3069193655971438,0.3582812309786677
1772794661707021300,6.886021240234375,-0.38326048167347904,0.2658627672612667,0.37756745766364036
1772794661717065200,6.896065185546875,-0.3479109358727932,0.2692788593150675,0.4351061119839549
1772794661727109000,6.906109130859375,-0.25362930863201616,0.3249954127747565,0.5188097927175462
1772794661737154300,6.916154296875,-0.1302759006857872,0.3799681621298194,0.6138488141968846
1772794661747198500,6.926198486328125,-0.08489946638941764,0.4646739325780421,0.6687700525604188
1772794661757243100,6.9362431640625,-0.09500935699343681,0.5485871644090861,0.7229924219395965
1772794661767287300,6.946287353515625,-0.16156068126559256,0.6056864043988287,0.7759886835899203
1772794661777331500,6.95633154296875,-0.2484948683530092,0.6447679032694548,0.8356403845414518
1772794661787376000,6.966376220703125,-0.31783611560463904,0.6889747092645615,0.9285743965655565
1772794661797420300,6.976420166015625,-0.41778643613159655,0.7773575607903301,1.0413987386476249
1772794661807464400,6.98646435546875,-0.4559072002112865,0.866742428965494,1.1406086160708218
1772794661817509000,6.996509033203125,-0.49193537592589853,0.991990564617142,1.209149068333581
1772794661827553300,7.00655322265625,-0.5040203659951686,1.145281503252685,1.227703473612666
1772794661837597200,7.01659716796875,-0.5434358460605144,1.2914129985876381,1.2343389661043882
1772794661847642000,7.02664208984375,-0.5866892968535423,1.418616798351705,1.3012918569147587
1772794661857686300,7.036686279296875,-0.6102426063984632,1.5801812790095806,1.3793427725836633
1772794661867730200,7.046730224609375,-0.5904390047758817,1.7495222388878464,1.4684201091796159
1772794661877775000,7.056775146484375,-0.5496300245255231,1.8368623764276504,1.486268923472613
1772794661887818200,7.066818359375,-0.4089046260178089,1.8349226405367254,1.4278024137176573
1772794661897862400,7.0768623046875,-0.2118839243143797,1.766700314312428,1.2871873437166212
1772794661907907600,7.086907470703125,0.002573065358400345,1.591390947549045,1.0743670153349638
1772794661917951200,7.096951171875,0.16017887151837348,1.2866931304588913,0.7803432986028492
1772794661927995400,7.106995361328125,0.3522042491525411,0.8925696017265319,0.34953561446517706
1772794661938040600,7.11704052734375,0.4541863677680492,0.511119676606357,-0.0779268508978188
1772794661948084500,7.12708447265625,0.5411918665260076,0.17805691190585493,-0.4596144937640056
1772794661958128400,7.13712841796875,0.6294944193571805,-0.015795754220709203,-0.7405265442602336
1772794661968173600,7.147173583984375,0.7259370240241289,-0.10804609482958913,-0.977966569309309
1772794661978217500,7.157217529296875,0.7550450450867414,-0.08057042420916259,-1.0830478960491716
1772794661988261400,7.167261474609375,0.7065110235422849,0.028013649954646825,-1.1150742157112807
1772794661998306600,7.177306640625,0.5646364549994468,0.16247187782637773,-1.1750292835235594
1772794662008350500,7.1873505859375,0.36347558475136754,0.252699407370761,-1.212537176401913
1772794662018395400,7.1973955078125,0.20059154592752457,0.360755512137711,-1.2214117530573159
1772794662028439600,7.207439453125,0.05038637141287326,0.417749172861129,-1.148614081741497
1772794662038483500,7.2174833984375,-0.0975888520926237,0.45193844271078704,-1.0048187012039125
1772794662048528400,7.2275283203125,-0.29672903016805646,0.5063114726070315,-0.8780917251713574
1772794662058572300,7.237572265625,-0.582355651563406,0.5056492823712527,-0.8036090233780443
1772794662068616400,7.247616455078125,-0.7142886718064546,0.4753161764930933,-0.8138371335342526
1772794662078661400,7.257661376953125,-0.669525985494256,0.4459893250480294,-0.865460134069994
1772794662088705300,7.267705322265625,-0.5611667330622673,0.3874223505932837,-0.8752521178312599
1772794662098749400,7.27774951171875,-0.41508945213258264,0.29316629618518053,-0.8351864302288741
1772794662108794400,7.28779443359375,-0.3285825505465269,0.15072963678017257,-0.8163073961053043
1772794662118838300,7.29783837890625,-0.23793314232826232,-0.0014066519275307654,-0.8510464087922126
1772794662128882400,7.30788232421875,-0.22201894935965535,-0.16497443523183464,-0.8678052358914167
1772794662138927400,7.31792724609375,-0.17964403496682643,-0.2883438444647938,-0.9347902023404836
1772794662148971300,7.32797119140625,-0.044432431444525716,-0.3928188758745789,-1.002924923346564
1772794662159015400,7.338015380859375,0.09950140771567821,-0.5337378241930156,-1.0943632899854332
1772794662169060400,7.348060302734375,0.24977964746654033,-0.4017082847729325,-0.9296041780047118
1772794662179104300,7.358104248046875,0.3376034768700599,-0.3909188144069165,-0.7312453595653176
1772794662189148400,7.3681484375,0.332704014390707,-0.4043856142234057,-0.7012598980810493
1772794662199193600,7.378193603515625,0.36489129676818843,-0.27826361834667623,-0.7054169446952641
1772794662209237200,7.3882373046875,0.3602712357521057,-0.2136534182049334,-0.5434081908686086
1772794662219281400,7.398281494140625,0.3344020504802465,-0.1525795024305582,-0.399271376482211
1772794662229326600,7.40832666015625,0.2672176890015602,-0.09099814859069884,-0.21932609354648738
1772794662239370200,7.418370361328125,0.19031331301927565,0.08644662276618183,-0.1487059124002233
1772794662249414400,7.428414306640625,0.1184849251270294,0.2774495254848152,-0.06934877297095954
1772794662259459600,7.43845947265625,-0.06293371829688549,0.28486498937308785,0.16408143191486596
1772794662269503200,7.448503173828125,-0.18257015154659748,0.4246683776650578,0.26703283395394684
1772794662279548400,7.45854833984375,-0.22167466596662996,0.5161038947597145,0.3604136033648625
1772794662289592600,7.468592529296875,-0.20697394044101236,0.5258895218454301,0.4664871194798499
1772794662299636500,7.478636474609375,-0.14166121805310247,0.4681614093676209,0.5003970243988558
1772794662309681400,7.488681396484375,-0.02052197902500629,0.42762839651443063,0.6520809296965598
1772794662319725600,7.4987255859375,0.1379524266630411,0.47909890990220005,0.7771732171993703
1772794662329769500,7.50876953125,0.1818541122317314,0.33471528114788235,0.8640694834291934
1772794662339814400,7.518814453125,0.23754443527162072,0.26277006194293495,0.7200137714549899
1772794662349858600,7.528858642578125,0.3498877889037132,0.16292217887714505,0.581065027230978
1772794662359902500,7.53890234375,0.3971960680454969,0.009045257047191262,0.5243889810893684
1772794662369947400,7.548947509765625,0.3983908307880163,-0.07327405665591359,0.4850472969125956
1772794662379991300,7.5589912109375,0.3289583981215954,-0.1270111998014152,0.46481988038737326
1772794662390035500,7.569035400390625,0.2633347100883722,-0.12061755324155092,0.378947038921155
1772794662400080400,7.579080322265625,0.17516951990127563,-0.08204853393770754,0.2671963174199685
1772794662410124300,7.589124267578125,0.06655541592538357,-0.02901632419116795,0.2314671246519312
1772794662420168400,7.59916845703125,-0.04455810365080833,-0.0019456541750580072,0.15533829961940646
1772794662430213400,7.60921337890625,-0.2144891383767128,0.048367725066840644,0.0915116510707885
1772794662440257300,7.61925732421875,-0.38900282471776004,0.022604484387487172,0.09060984339285641
1772794662450302500,7.629302490234375,-0.48299920527637,0.1654034742988646,-0.02654138544499874
1772794662460346400,7.639346435546875,-0.5825672484874725,0.21219357478544115,-0.16800291620753705
1772794662470390300,7.649390380859375,-0.6268447816312313,0.015507657994329929,0.05313256484847516
1772794662480435500,7.659435546875,-0.5439098933130503,-0.38770409014411267,0.7632543627664446
1772794662490479400,7.669479248046875,-0.49235506264269346,0.03670110654011369,0.1960080175295472
1772794662500523300,7.679523193359375,-0.34005554619729517,0.2394844634234905,0.015626242872700095
1772794662510568400,7.689568359375,-0.2502496030658483,0.3740047967460006,-0.08454802260324358
1772794662520612400,7.6996123046875,-0.1948556326240301,0.48492593555524943,-0.09950279595516622
1772794662530656300,7.70965625,-0.0315711963057518,0.7154527471497655,-0.14272957793697713
1772794662540701400,7.719701416015625,0.02066460236608982,0.8547810652758926,-0.04060819698125124
1772794662550745600,7.72974560546875,0.04259937079846859,0.9598596886020153,0.0676999828506261
1772794662560789200,7.739789306640625,0.051287704166769976,1.0567813089575617,0.0561127131704241
1772794662570834400,7.74983447265625,0.03666530457437038,1.0744657995343208,0.18467786441557107
1772794662580878600,7.759878662109375,0.06209551390707493,1.0282461193468422,0.26845132244974373
1772794662590922200,7.769922119140625,0.2077402486383915,1.0136348987355828,0.24035985801853238
1772794662600967400,7.779967529296875,0.3017348756313324,0.9510305585235357,0.1250426762074232
1772794662611011600,7.790011474609375,0.26260873390138145,0.7410203191265463,0.2129870632506907
1772794662621055500,7.800055419921875,0.2830868737846613,0.5845440284531563,0.1763513500969857
1772794662631100400,7.810100341796875,0.3711719844728708,0.5088982742298395,-0.04999620305150747
1772794662641144600,7.82014453125,0.36279987744688985,0.3353416694179177,-0.012668196784704922
1772794662651189200,7.830189208984375,0.3971668419510126,0.21905535031370818,-0.2490807784821838
1772794662661233400,7.8402333984375,0.3964560633331537,0.08636040578745305,-0.339660409399867
1772794662671277600,7.850277587890625,0.28777006316483017,0.0344032048612833,-0.159569434383139
1772794662681322200,7.860322265625,0.22462883959710597,0.11664843041487037,-0.17832170032188296
1772794662691366400,7.870366455078125,0.0022919103294610976,0.2982372427739203,-0.42674262665584684
1772794662701410300,7.880410400390625,-0.10969488494992255,0.43873102448284623,-0.2506815647423267
1772794662711455200,7.890455322265625,-0.14741057536005972,0.45669791219756006,0.12348097984865307
1772794662721499400,7.90049951171875,-0.18346505455970763,0.3126613433152437,0.49401262059137224
1772794662731543300,7.910543212890625,-0.16386662012040615,0.10712824933230876,0.5776771383583545
1772794662741588500,7.92058837890625,-0.022858897539973257,0.04062003354951739,0.3879359261386096
1772794662751632400,7.93063232421875,0.07361994748413563,0.03705671504475176,0.28855434541031716
1772794662761676300,7.94067626953125,0.027158056038618088,0.022215850396081805,0.25954087076336146
1772794662771721500,7.950721435546875,-0.07216214989125729,0.022301848179101944,0.22811901980042457
1772794662781765400,7.960765380859375,-0.182281982254982,-0.004133884934335947,0.38994668143913147
1772794662791809300,7.970809326171875,-0.24760288794934748,-0.056831455899029965,0.5491835959322751
1772794662801854500,7.9808544921875,-0.22289982384741305,-0.08214395713619888,0.5620191121079028
1772794662811898400,7.9908984375,-0.19843933632969854,-0.123544035147503,0.5030312088273465
1772794662821942300,8.0009423828125,-0.14390753567516804,-0.08296871752254664,0.3284529328174889
1772794662831987500,8.010987548828124,-0.12375614352822303,-0.02053513076752424,0.2778228157766163
1772794662842031400,8.02103125,-0.281904970523715,0.06344941273406147,0.4001306601926684
1772794662852076300,8.031076171875,-0.5388865121930837,0.1689957997024059,0.5522672411613166
1772794662862120400,8.041120361328124,-0.6952864496946335,0.29731698612384494,0.6293440511010587
1772794662872164600,8.05116455078125,-0.7360515908032655,0.436824460209161,0.7641697240456938
1772794662882209300,8.061209228515626,-0.7252163085341453,0.3572664279129356,1.0437401141420006
1772794662892253200,8.071253173828126,-0.517451509976387,0.41944516312405467,1.1120159241192042
1772794662902297300,8.08129736328125,-0.2829103481739759,0.2846347608137876,1.2613060296155512
1772794662912342000,8.091342041015626,0.09939444020986557,0.011098974706605076,1.1807711881764233
1772794662922386200,8.10138623046875,0.5282657494574785,-0.2540339439101517,0.9906893458254635
1772794662932430300,8.111430419921875,0.810430832222104,-0.5941799448698759,0.928941622442752
1772794662942475000,8.12147509765625,0.9371499172091483,-0.9794446059726178,0.8282458903759717
1772794662952519200,8.131519287109375,0.902002615982294,-1.213537658681348,0.6653530837237834
1772794662962563300,8.141563232421875,0.7290893505752086,-1.295208299217373,0.4809488486178219
1772794662972608000,8.15160791015625,0.548149430578947,-1.2491165562584996,0.288093011508882
1772794662982652200,8.161652099609375,0.4038935198575258,-1.1093061537038533,0.15293986017554997
1772794662992697300,8.171697265625,0.2405658289194107,-0.939479821461439,0.10565832291021943
1772794663002741000,8.181740966796875,0.0697609339684248,-0.7540974620383233,0.12551686959043146
1772794663012785200,8.19178515625,-0.12249708337783813,-0.5973209097767248,0.11711290612146258
1772794663022830300,8.201830322265625,-0.3818903623640537,-0.557280868072249,0.1031616837888956
1772794663032874000,8.2118740234375,-0.6273346109747886,-0.48853459103908387,0.2797553912743926
1772794663042918100,8.221918212890625,-0.7182727730065583,-0.31172457392178476,0.47203795854002234
1772794663052963300,8.23196337890625,-0.6476724656045436,-0.23049378610774873,0.5834865552894771
1772794663063007200,8.24200732421875,-0.4077665618985891,0.0012531053336337207,0.6477611668013036
1772794663073051100,8.252051025390625,-0.1387672501772642,0.20841522529050707,0.7342812201298773
1772794663083096300,8.262096435546875,0.013029577443003653,0.17542159496620296,0.9773612238273024
1772794663093140200,8.27214013671875,0.1837409488916397,0.12344145155586302,1.2020363867841661
1772794663103184100,8.28218408203125,0.34515374611914157,0.09926350730657577,1.4002176566995679
1772794663113229300,8.292229248046874,0.46585985442697997,0.022842603992298243,1.475775440378487
1772794663123273200,8.302273193359374,0.4577472751200199,-0.3961325304672122,1.3530540467254817
1772794663133318100,8.312318115234374,0.44838031183779237,-0.6344826560985296,1.2698450176410376
1772794663143362000,8.322362060546874,0.4776946691274643,-0.8158956004340201,1.1710011970512568
1772794663153407000,8.332406982421874,0.38617549233734605,-1.0803927053652702,1.0800262101404368
1772794663163452200,8.3424521484375,0.2017179196089506,-1.3675124879278242,1.002231753450632
1772794663173496300,8.352496337890624,0.0282815071105957,-1.5589882688552141,0.9160901780456304
1772794663183540200,8.362540283203124,-0.03324468247592449,-1.5632260525554418,0.8375092471532524
1772794663193585200,8.372585205078124,-0.041814357900619506,-1.4119478419817983,0.8354165126577019
1772794663203629300,8.38262939453125,-0.07338438516259194,-1.2160009800549596,0.930463717443496
1772794663213673200,8.392673095703126,-0.16747428922355173,-1.0523680225599557,1.0017533222839237
1772794663223718100,8.40271826171875,-0.28220307668745515,-0.9173102213598787,1.0397869926020502
1772794663233762300,8.41276220703125,-0.45905251249969004,-0.8132790612600743,1.0629742453135549
1772794663243807000,8.422806884765626,-0.6406161173522472,-0.7412954828061163,1.0896109078265726
1772794663253851100,8.43285107421875,-0.7691027965337037,-0.7323444068484007,0.99466818632856
1772794663263895300,8.442895263671875,-0.8135182768434286,-0.7123357111077755,0.9350905004613101
1772794663273940000,8.45293994140625,-0.7980097420662641,-0.5887839310452342,0.9702700965225696
1772794663283984100,8.462984130859375,-0.7531313204199075,-0.5058754923425615,1.0034889139048755
1772794663294028000,8.473028076171875,-0.6852917099028826,-0.5080689472662284,1.04375516558066
1772794663304073200,8.4830732421875,-0.5587877289712428,-0.5222770304366946,1.0563834687463938
1772794663314117000,8.4931171875,-0.36338439933657646,-0.5147566083366051,1.003192122915387
1772794663324161000,8.5031611328125,-0.19115327097475526,-0.5042437264222651,0.9422878646194934
1772794663334206200,8.513206298828125,-0.0639922874391079,-0.5604621649894863,0.8676993643641472
1772794663344250000,8.52325,0.0057125324279069896,-0.5768089772216975,0.8817863419055938
1772794663354294000,8.5332939453125,0.07309446230530739,-0.7423505448170006,0.7972089470773935
1772794663364339200,8.543339111328125,0.09512859945893287,-0.7463803848549723,0.6766571525484323
1772794663374383000,8.553383056640625,0.20914777734875678,-0.6427233187645673,0.749315707654506
1772794663384428300,8.56342822265625,0.26494623693823816,-0.5806478977974504,0.7393640763521194
1772794663394472200,8.57347216796875,0.2464858666181564,-0.7876303868710994,0.7657105237469076
1772794663404516000,8.58351611328125,0.3273310891807079,-0.7661262649409473,0.7265645082727075
1772794663414561300,8.593561279296875,0.3400461938470602,-0.6367218133274466,0.6437639138586819
1772794663424605200,8.603605224609375,0.2305523844271898,-1.0473325856760143,1.1311999325387179
1772794663434649300,8.6136494140625,0.19852584556937217,-0.6617270021811127,0.5323271536774933
1772794663444694000,8.623694091796875,0.24532792875468729,-0.5372673865586519,0.09568141103610396
1772794663454738200,8.63373828125,0.12501461915671824,-0.9112628309544175,0.398904333268106
1772794663464782300,8.6437822265625,0.14328385081887243,-1.0601958666414022,0.49114144906923174
1772794663474827000,8.653826904296874,0.15151917972266674,-1.161596020650491,0.5731790962867438
1772794663484871200,8.66387109375,0.11624386820197105,-1.201447554045543,0.5113054084368049
1772794663494915300,8.673915283203126,0.09297755890488624,-1.1568570824950932,0.4881986736156046
1772794663504960000,8.6839599609375,0.055530748564004896,-1.2118967596065253,0.6177947753436863
1772794663515004200,8.694004150390626,0.09280687851309775,-1.0709865791164337,0.610548895868659
1772794663525049000,8.704049072265626,0.14208382737934588,-1.0436918910861015,0.757834821935743
1772794663535093000,8.714093017578126,0.13796820875406265,-0.98447828929089,0.894342018226534
1772794663545137200,8.72413720703125,0.11754092227518557,-0.9167995684240012,0.9441571656227111
1772794663555182300,8.734182373046876,0.11906243275403976,-0.7915945412617176,0.9709731302253901
1772794663565226000,8.74422607421875,0.08778291287124157,-0.6523020251013338,1.0339081636965275
1772794663575270100,8.754270263671875,0.03478606669902801,-0.5821571333166211,1.0777709785595535
1772794663585315300,8.7643154296875,-0.061037529286742206,-0.5477114775530993,1.172839810655266
1772794663595359000,8.77435888671875,-0.2088420724004507,-0.5957616611033678,1.2122035605333745
1772794663605403100,8.784403076171875,-0.3337713513612747,-0.6934336614347993,1.1648521729022263
1772794663615448300,8.7944482421875,-0.5198474652022123,-0.745875650203228,1.0331317724965512
1772794663625492000,8.804491943359375,-0.7739268556892871,-0.6942120984613895,0.8106633258037269
1772794663635536100,8.8145361328125,-1.0009463898152113,-0.5399053338468075,0.6231921043425798
1772794663645581300,8.824581298828125,-1.189156008553505,-0.2911174738965928,0.4988346339203417
1772794663655625200,8.834625244140625,-1.2827443928331137,-0.07707279135175049,0.44518765327632426
1772794663665669000,8.844669189453125,-1.2483330046653747,0.12609167380370198,0.3918338103599846
1772794663675714300,8.85471435546875,-1.1140507909476756,0.27393179968744513,0.3986858682118356
1772794663685758200,8.86475830078125,-0.8531243110448121,-0.0019281915836036204,0.6510501253440976
1772794663695803100,8.87480322265625,-0.3009972090065479,-0.5438080403737724,1.3420412159323691
1772794663705847300,8.884847412109375,0.3207137168675661,-0.15192819891497492,0.5617516933433712
1772794663715891200,8.89489111328125,0.5993471183747053,-0.17503800247609613,-0.03159516170322895
1772794663725936000,8.90493603515625,0.9702420394718646,-0.004743833526223898,-0.28451033071652054
1772794663735980300,8.914980224609375,1.2595423809438944,0.16169570582211015,-0.8368463993303478
1772794663746024200,8.925024169921874,1.3873264648139476,0.2756166109692305,-1.0370027687110006
1772794663756069000,8.935069091796874,1.340579326686263,0.23502229638285935,-1.0779590484775603
1772794663766113000,8.945113037109374,1.117062247723341,0.23892624501883983,-1.2212227332912384
1772794663776157200,8.9551572265625,0.9460703057676553,0.09664411858841776,-0.977712521483004
1772794663786202000,8.9652021484375,0.7172849310129881,-0.1642066657297313,-0.7227222997613251
1772794663796246000,8.97524609375,0.36815409795641896,-0.1768578383143991,-0.7034495901450515
1772794663806290200,8.985290283203126,-0.06980360406637191,-0.2284554852131754,-0.9597137773253023
1772794663816335000,8.995335205078124,-0.4672802426189184,-0.10516505950056015,-1.0736047987908124
1772794663826379000,9.00537890625,-0.7217395723342895,0.07799867402501404,-0.9196553231813013
1772794663836424200,9.015424072265626,-0.8872399311363697,0.23404541417472063,-0.6257501182623207
1772794663846468000,9.025468017578126,-0.8342658813178538,0.40114670536741615,-0.32285569733232256
1772794663856512000,9.035511962890626,-0.6577659895956516,0.5709894772879779,-0.08877046260386705
1772794663866557200,9.04555712890625,-0.5136965413570403,0.6718534055285156,0.1488483530782163
1772794663876601300,9.055601318359376,-0.35916239772737024,0.8322691545426845,0.3353348012857139
1772794663886645500,9.0656455078125,-0.22268296622633932,0.9610307782080024,0.45448885784596205
1772794663896690700,9.075690673828126,-0.10592121163010597,1.0359804399259387,0.6275125978901982
1772794663906734600,9.085734619140625,-0.003918050226569175,1.027150506129861,0.8038149212136865
1772794663916778500,9.095778564453125,0.07086977199316025,0.9900947409331798,0.9947244465604423
1772794663926823400,9.105823486328125,0.1421662449657917,0.8187872302222996,1.0116402177870274
1772794663936867600,9.11586767578125,0.22505554057657717,0.7005851406246423,0.7560220734253525
1772794663946912500,9.12591259765625,0.15417933884263038,0.6117786568593233,0.5831665295548737
1772794663956956400,9.135956298828125,-0.0625800825536251,0.4461650469411164,0.5615351279832422
1772794663967000600,9.14600048828125,-0.13927987587451934,0.2858774543512612,0.461008907264471
1772794663977045500,9.15604541015625,0.009884265154600143,0.15963117450773714,0.30408830688968297
1772794663987089400,9.16608935546875,0.16243220340311526,-0.013430924785509704,0.22972280173525214
1772794663997133600,9.176133544921875,0.20512685126960276,-0.10029679587706923,0.07062894897460938
1772794664007178500,9.186178466796875,0.2509428460270166,-0.1565145768571645,0.05129223421141505
1772794664017222400,9.196222412109375,0.34477497593462464,-0.36492103431932627,0.10554974796921014
1772794664027266600,9.2062666015625,0.3621171558797359,-0.4221772915016859,-0.04174947597086429
1772794664037311500,9.2163115234375,0.3056774757772684,-0.39081542709767814,-0.3121658148832619
1772794664047355400,9.22635546875,0.16370587660074232,-0.3087814331419766,-0.4587918157368898
1772794664057399600,9.236399658203124,0.07391220842897891,-0.18180961550287902,-0.3893715118996799
1772794664067444500,9.246444580078125,0.17376374475657938,-0.10678374674357473,-0.288994782654196
1772794664077488400,9.25648828125,0.3960112421751022,-0.10769004793353378,-0.32924189123809333
1772794664087533600,9.266533447265624,0.578569703283906,-0.10372202108539641,-0.4427731394805014
1772794664097577500,9.276577392578124,0.5318430234223603,-0.19085691837668417,-0.5585121269002556
