time,seconds_elapsed,z,y,x
1772794654886919000,0.0659189453125,-1.3992656469345093,-0.47274506092071533,0.29635512828826904
1772794654896964000,0.075964111328125,-1.413430094718933,-0.5112922191619873,0.16846109926700592
1772794654907008000,0.086008056640625,-1.4056131839752197,-0.5327131152153015,0.04434633255004883
1772794654917052000,0.096052001953125,-1.3885550498962402,-0.5302039980888367,-0.05340148136019707
1772794654927097000,0.10609716796875,-1.3741271495819092,-0.5152980089187622,-0.12821048498153687
1772794654937141000,0.11614111328125,-1.3535202741622925,-0.5053178668022156,-0.17491979897022247
1772794654947185200,0.12618505859375,-1.325466513633728,-0.5132104158401489,-0.2160605788230896
1772794654957230000,0.13622998046875,-1.2906004190444946,-0.5399350523948669,-0.25348961353302
1772794654967274000,0.14627392578125,-1.258530616760254,-0.571526288986206,-0.28087782859802246
1772794654977318100,0.156318115234375,-1.235032320022583,-0.5880251526832581,-0.30089569091796875
1772794654987361800,0.16636181640625,-1.213723063468933,-0.5696789026260376,-0.3043053150177002
1772794654997407000,0.176406982421875,-1.1811974048614502,-0.5305747389793396,-0.2984119653701782
1772794655007451100,0.186451171875,-1.1423852443695068,-0.49989432096481323,-0.28059807419776917
1772794655017495000,0.1964951171875,-1.0994800329208374,-0.4787040054798126,-0.24720129370689392
1772794655027540000,0.2065400390625,-1.0587985515594482,-0.48004305362701416,-0.1956997513771057
1772794655037584100,0.216584228515625,-1.0249580144882202,-0.5196768045425415,-0.1317017674446106
1772794655047628000,0.2266279296875,-0.9795020818710327,-0.5728130340576172,-0.07208769768476486
1772794655057673000,0.2366728515625,-0.9288073182106018,-0.6069198250770569,-0.023044567555189133
1772794655067717000,0.246717041015625,-0.8760223984718323,-0.6364553570747375,0.0012988541275262833
1772794655077761000,0.256760986328125,-0.8267290592193604,-0.6649346947669983,0.002226209733635187
1772794655087806000,0.266805908203125,-0.7725678086280823,-0.7011129260063171,-0.028673116117715836
1772794655097850000,0.27685009765625,-0.7222679853439331,-0.7456232905387878,-0.08052948117256165
1772794655107894000,0.28689404296875,-0.6679882407188416,-0.7844817638397217,-0.10419459640979767
1772794655117939000,0.29693896484375,-0.6351739764213562,-0.8239744901657104,-0.1004636287689209
1772794655127983000,0.306983154296875,-0.6111565232276917,-0.8706650137901306,-0.07147325575351715
1772794655138027000,0.317027099609375,-0.5934894680976868,-0.8790099620819092,-0.05611538887023926
1772794655148072000,0.327072021484375,-0.6172800064086914,-0.8070500493049622,0.004163932986557484
1772794655158116000,0.3371162109375,-0.6048043370246887,-0.7652449011802673,0.06043694168329239
1772794655168160000,0.347159912109375,-0.5683193206787109,-0.7277324199676514,0.10231541842222214
1772794655178205000,0.357204833984375,-0.5121250748634338,-0.734559953212738,0.16963422298431396
1772794655188249000,0.3672490234375,-0.4366454780101776,-0.8102805614471436,0.21969738602638245
1772794655198293000,0.37729296875,-0.36112067103385925,-0.8493263125419617,0.2801685631275177
1772794655208338000,0.387337890625,-0.31334835290908813,-0.8340685367584229,0.3263837397098541
1772794655218381800,0.3973818359375,-0.2864985764026642,-0.7890920639038086,0.3384851813316345
1772794655228426000,0.407426025390625,-0.2558216452598572,-0.7357012629508972,0.29496484994888306
1772794655238471000,0.417470947265625,-0.205272376537323,-0.6428972482681274,0.19559448957443237
1772794655248514800,0.427514892578125,-0.14993402361869812,-0.5393626093864441,0.0426211878657341
1772794655258559000,0.43755908203125,-0.10167225450277328,-0.37517696619033813,-0.1511145681142807
1772794655268604200,0.447604248046875,-0.03077544830739498,-0.1832304447889328,-0.39005470275878906
1772794655278647800,0.457647705078125,0.13035690784454346,-0.06051548197865486,-0.6394703388214111
1772794655288692000,0.46769189453125,0.2756142318248749,0.06701264530420303,-0.8812392950057983
1772794655298737200,0.477737060546875,0.35830238461494446,0.21551834046840668,-1.1155155897140503
1772794655308780800,0.48778076171875,0.33245453238487244,0.483897864818573,-1.2988160848617554
1772794655318825000,0.497824951171875,0.1949566751718521,0.7606995701789856,-1.4521042108535767
1772794655328869000,0.507869140625,0.049703873693943024,0.7889517545700073,-1.552647590637207
1772794655338913800,0.517913818359375,-0.05040636658668518,0.7243059873580933,-1.5542553663253784
1772794655348958000,0.5279580078125,-0.08243460208177567,0.6151459813117981,-1.4259341955184937
1772794655359002000,0.538002197265625,-0.09153196215629578,0.5801472663879395,-1.20062255859375
1772794655369047000,0.548047119140625,-0.12086348235607147,0.5761306881904602,-0.9122980833053589
1772794655379091000,0.558091064453125,-0.1794796735048294,0.6157536506652832,-0.5984125137329102
1772794655389134800,0.568134765625,-0.24040161073207855,0.6669726371765137,-0.29291462898254395
1772794655399180000,0.578179931640625,-0.28481459617614746,0.6826421618461609,-0.03481629490852356
1772794655409224000,0.588223876953125,-0.3080645203590393,0.6568441390991211,0.16306136548519135
1772794655419267800,0.598267822265625,-0.2753155529499054,0.6951238512992859,0.28932398557662964
1772794655429313000,0.60831298828125,-0.22265902161598206,0.5168510675430298,0.29046115279197693
1772794655439357000,0.61835693359375,-0.1686396300792694,0.4193350672721863,0.22584125399589539
1772794655449400800,0.62840087890625,-0.14355558156967163,0.46485647559165955,0.12880685925483704
1772794655459446000,0.638446044921875,-0.23253323137760162,0.6175609230995178,-0.00782974436879158
1772794655469490200,0.648490234375,-0.32684776186943054,0.783424437046051,-0.09422801434993744
1772794655479533800,0.658533935546875,-0.41373831033706665,0.8537828326225281,-0.113850437104702
1772794655489579000,0.6685791015625,-0.5110171437263489,0.8667031526565552,-0.104032963514328
1772794655499623200,0.678623046875,-0.5912015438079834,0.8266567587852478,-0.04476071521639824
1772794655509666800,0.688666748046875,-0.6513048410415649,0.6174585223197937,0.042756352573633194
1772794655519712000,0.6987119140625,-0.6980624198913574,0.4374759793281555,0.1632007658481598
1772794655529756200,0.708756103515625,-0.7631034255027771,0.4241705536842346,0.28897759318351746
1772794655539799800,0.7187998046875,-0.8180840611457825,0.6136185526847839,0.37977269291877747
1772794655549845000,0.728844970703125,-0.8641695380210876,0.8849283456802368,0.41937947273254395
1772794655559889200,0.73888916015625,-0.833404004573822,0.9294158220291138,0.36292776465415955
1772794655569933000,0.74893310546875,-0.7520114183425903,0.8483803868293762,0.2247840166091919
1772794655579978000,0.75897802734375,-0.6464166045188904,0.6978310346603394,0.04759438708424568
1772794655590022100,0.769022216796875,-0.5204557180404663,0.6039261221885681,-0.12540242075920105
1772794655600066000,0.779066162109375,-0.39784425497055054,0.6121947765350342,-0.27889275550842285
1772794655610111000,0.789111083984375,-0.23916727304458618,0.7036789059638977,-0.4108044505119324
1772794655620155100,0.799155029296875,-0.0135066919028759,0.704490065574646,-0.5540004372596741
1772794655630199000,0.809198974609375,0.2335694134235382,0.6051957011222839,-0.7080283761024475
1772794655640244000,0.819243896484375,0.47881099581718445,0.4437703490257263,-0.8372212648391724
1772794655650288000,0.8292880859375,0.6540339589118958,0.12349222600460052,-0.909424364566803
1772794655660332000,0.83933203125,0.7253503799438477,-0.08382236212491989,-0.8656819462776184
1772794655670377000,0.849376953125,0.7413682341575623,-0.1862853467464447,-0.6659496426582336
1772794655680420900,0.8594208984375,0.7122464179992676,-0.23095513880252838,-0.3793966770172119
1772794655690465000,0.869465087890625,0.5870685577392578,-0.1800038069486618,-0.06052761152386665
1772794655700510000,0.879510009765625,0.4924333691596985,-0.15472161769866943,0.2474139779806137
1772794655710553900,0.889553955078125,0.40778157114982605,-0.056334055960178375,0.5345911383628845
1772794655720598000,0.899597900390625,0.3364236652851105,0.05005500838160515,0.7840043902397156
1772794655730643000,0.909642822265625,0.30174317955970764,0.11325714737176895,0.9793446063995361
1772794655740686800,0.919686767578125,0.3057861924171448,0.11117265373468399,1.0844937562942505
1772794655750731000,0.92973095703125,0.33037781715393066,0.05723804980516434,1.084241271018982
1772794655760776000,0.93977587890625,0.34924745559692383,0.037716060876846313,0.97823566198349
1772794655770819800,0.94981982421875,0.3384568691253662,0.05370967462658882,0.8023368120193481
1772794655780864000,0.959864013671875,0.2852531373500824,0.09573733061552048,0.5712811350822449
1772794655790909000,0.969908935546875,0.20326770842075348,0.12337162345647812,0.34908267855644226
1772794655800952800,0.979952880859375,0.13275641202926636,0.15454977750778198,0.17166371643543243
1772794655810997000,0.9899970703125,0.11047854274511337,0.19831246137619019,0.037887539714574814
1772794655821042200,1.000042236328125,0.12161074578762054,0.2200377881526947,-0.08160347491502762
1772794655831085800,1.0100859375,0.13466821610927582,0.19538356363773346,-0.20408572256565094
1772794655841130000,1.0201298828125,0.06653965264558792,0.11775682866573334,-0.33721038699150085
1772794655851175200,1.030175048828125,-0.08533535897731781,0.09326959401369095,-0.46024659276008606
1772794655861218800,1.04021875,-0.21543392539024353,0.027282051742076874,-0.5617513656616211
1772794655871263000,1.050262939453125,-0.2795950472354889,-0.002771453931927681,-0.6254642605781555
1772794655881307400,1.060307373046875,-0.2916440963745117,0.02023507095873356,-0.6591457724571228
1772794655891352000,1.07035205078125,-0.28201091289520264,0.07198135554790497,-0.6606842875480652
1772794655901396200,1.080396240234375,-0.3001246452331543,0.11538863927125931,-0.6593814492225647
1772794655911440100,1.090440185546875,-0.3424532115459442,0.12285082042217255,-0.6559666991233826
1772794655921485300,1.1004853515625,-0.3786846697330475,0.09611198306083679,-0.6428520679473877
1772794655931529200,1.110529296875,-0.40313196182250977,0.05999179929494858,-0.6207941770553589
1772794655941573000,1.120572998046875,-0.4215043783187866,0.031954314559698105,-0.5862393379211426
1772794655951618300,1.130618408203125,-0.45022842288017273,0.018111998215317726,-0.543981671333313
1772794655961662200,1.140662109375,-0.4687909185886383,0.014427248388528824,-0.4983348250389099
1772794655971706000,1.1507060546875,-0.47001251578330994,-0.0039781229570508,-0.45814934372901917
1772794655981751300,1.160751220703125,-0.45627561211586,-0.0361642949283123,-0.4177339971065521
1772794655991795200,1.170795166015625,-0.43255749344825745,-0.04674077406525612,-0.3757021427154541
1772794656001839000,1.180839111328125,-0.39426949620246887,-0.054365988820791245,-0.33378711342811584
1772794656011884300,1.19088427734375,-0.3528570830821991,-0.062425512820482254,-0.29274407029151917
1772794656021928200,1.20092822265625,-0.3219948410987854,-0.06540185213088989,-0.24155119061470032
1772794656031972000,1.21097216796875,-0.3121581971645355,-0.07008182257413864,-0.1869523972272873
1772794656042017300,1.221017333984375,-0.30594363808631897,-0.052825454622507095,-0.12969966232776642
1772794656052061400,1.2310615234375,-0.29268720746040344,-0.018932202830910683,-0.06139463558793068
1772794656062105000,1.24110498046875,-0.2850330173969269,0.021314712241292,0.010785127058625221
1772794656072150300,1.251150390625,-0.2800513207912445,0.07213740795850754,0.0816478505730629
1772794656082194400,1.2611943359375,-0.26727351546287537,0.1429387331008911,0.13247710466384888
1772794656092238000,1.271238037109375,-0.24849635362625122,0.21533437073230743,0.17603789269924164
1772794656102283300,1.281283203125,-0.23044686019420624,0.2611711621284485,0.20481809973716736
1772794656112327400,1.291327392578125,-0.20853464305400848,0.2631765305995941,0.2208804339170456
1772794656122371000,1.30137109375,-0.18728923797607422,0.27110517024993896,0.1926957666873932
1772794656132416300,1.311416259765625,-0.14113932847976685,0.4847889542579651,0.10829059779644012
1772794656142460400,1.32146044921875,-0.10490669310092926,0.2914159297943115,0.0938587635755539
1772794656152504300,1.33150439453125,-0.10140224546194077,0.23125751316547394,0.059391867369413376
1772794656162549200,1.34154931640625,-0.1526457816362381,0.2950536608695984,-0.02531326375901699
1772794656172593400,1.351593505859375,-0.25754210352897644,0.2583366334438324,-0.11596274375915527
1772794656182637300,1.36163720703125,-0.35177531838417053,0.18892863392829895,-0.21254371106624603
1772794656192682200,1.37168212890625,-0.3714105486869812,0.12673823535442352,-0.3168672025203705
1772794656202726100,1.38172607421875,-0.3461693823337555,0.09922421723604202,-0.4079810380935669
1772794656212770300,1.391770263671875,-0.315278023481369,0.09251571446657181,-0.4559008777141571
1772794656222815200,1.401815185546875,-0.28839021921157837,0.07601194083690643,-0.45263487100601196
1772794656232859100,1.411859130859375,-0.2626827359199524,0.05437828227877617,-0.41243284940719604
1772794656242903300,1.4219033203125,-0.2200220823287964,0.02379038743674755,-0.36092665791511536
1772794656252948200,1.4319482421875,-0.1653825342655182,-0.009810983203351498,-0.3183448314666748
1772794656262992100,1.4419921875,-0.11216288805007935,-0.030392270535230637,-0.2941001057624817
1772794656273036300,1.452036376953125,-0.07329165190458298,-0.04250965267419815,-0.28435373306274414
1772794656283081200,1.462081298828125,-0.049058616161346436,-0.06862001866102219,-0.2948618233203888
1772794656293125000,1.472125,-0.050441328436136246,-0.11872952431440353,-0.32089635729789734
1772794656303169300,1.482169189453125,-0.05738687515258789,-0.18427838385105133,-0.34642893075942993
1772794656313214200,1.492214111328125,-0.07164889574050903,-0.26173028349876404,-0.35239121317863464
1772794656323258000,1.502258056640625,-0.08488313108682632,-0.3235880434513092,-0.33926641941070557
1772794656333302300,1.51230224609375,-0.09464520961046219,-0.35841313004493713,-0.2971639633178711
1772794656343347200,1.52234716796875,-0.12275364249944687,-0.3408542573451996,-0.23817583918571472
1772794656353391000,1.53239111328125,-0.15479733049869537,-0.3021281659603119,-0.15723411738872528
1772794656363435300,1.542435302734375,-0.19520942866802216,-0.297545462846756,-0.07009570300579071
1772794656373480200,1.552480224609375,-0.25526106357574463,-0.3018467426300049,0.024347174912691116
1772794656383524000,1.562524169921875,-0.2955777943134308,-0.2968527674674988,0.10622791945934296
1772794656393568300,1.572568359375,-0.36467379331588745,-0.3073759973049164,0.1962619423866272
1772794656403612200,1.582612060546875,-0.45434293150901794,-0.35236430168151855,0.29883790016174316
1772794656413657000,1.592656982421875,-0.5154968500137329,-0.3497839570045471,0.38623350858688354
1772794656423701200,1.602701171875,-0.5466816425323486,-0.31439295411109924,0.45820650458335876
1772794656433745200,1.6127451171875,-0.5535702109336853,-0.2907786965370178,0.5268175005912781
1772794656443790000,1.6227900390625,-0.541629433631897,-0.29768162965774536,0.5812350511550903
1772794656453834200,1.632834228515625,-0.5076533555984497,-0.31131088733673096,0.6185070872306824
1772794656463879400,1.64287939453125,-0.4612044394016266,-0.32007935643196106,0.6158665418624878
1772794656473923300,1.65292333984375,-0.4077689051628113,-0.33059245347976685,0.570873498916626
1772794656483967200,1.66296728515625,-0.3632197678089142,-0.37943235039711,0.49918240308761597
1772794656494011100,1.67301123046875,-0.3464522361755371,-0.4852019250392914,0.3981285095214844
1772794656504056300,1.683056396484375,-0.3648221492767334,-0.6104958057403564,0.29486435651779175
1772794656514100200,1.693100341796875,-0.41302457451820374,-0.6975593566894531,0.23507986962795258
1772794656524144000,1.70314404296875,-0.45616304874420166,-0.7010883092880249,0.22303566336631775
1772794656534189300,1.713189208984375,-0.4636361300945282,-0.6435112953186035,0.26651787757873535
1772794656544233200,1.723233154296875,-0.4234207570552826,-0.524107813835144,0.3319260776042938
1772794656554277000,1.733277099609375,-0.35063788294792175,-0.4089556634426117,0.4071017801761627
1772794656564322300,1.743322265625,-0.25291725993156433,-0.3165833055973053,0.4770699143409729
1772794656574366200,1.7533662109375,-0.14275693893432617,-0.2361377477645874,0.5348379015922546
1772794656584410000,1.76341015625,-0.04587278887629509,-0.16507208347320557,0.5753799676895142
1772794656594455300,1.773455322265625,0.014844085089862347,-0.11269783228635788,0.5925091505050659
1772794656604499500,1.78349951171875,0.05307489261031151,-0.05865393579006195,0.5895907282829285
1772794656614543000,1.793543212890625,0.05789654329419136,-0.04235139489173889,0.5683368444442749
1772794656624588300,1.80358837890625,0.024883287027478218,-0.06820718199014664,0.5262194871902466
1772794656634632400,1.813632568359375,-0.028266750276088715,-0.10199310630559921,0.464408278465271
1772794656644676000,1.823676025390625,-0.08953282237052917,-0.14018815755844116,0.3919183611869812
1772794656654721300,1.83372119140625,-0.15000176429748535,-0.15874293446540833,0.30906423926353455
1772794656664765400,1.843765380859375,-0.2132844477891922,-0.15640823543071747,0.21476608514785767
1772794656674809300,1.853809326171875,-0.274062842130661,-0.1338709592819214,0.12143747508525848
1772794656684854300,1.863854248046875,-0.33137235045433044,-0.09825259447097778,0.032944656908512115
1772794656694898200,1.873898193359375,-0.38555702567100525,-0.05748491734266281,-0.04639597237110138
1772794656704942300,1.8839423828125,-0.4369000494480133,-0.030124565586447716,-0.10868049412965775
1772794656714987300,1.8939873046875,-0.479774534702301,-0.014313910156488419,-0.15092994272708893
1772794656725031200,1.90403125,-0.5025770664215088,0.012640051543712616,-0.1754569709300995
1772794656735075300,1.914075439453125,-0.4973471760749817,0.06079532951116562,-0.17871321737766266
1772794656745120300,1.924120361328125,-0.45087188482284546,0.13004769384860992,-0.1726689338684082
1772794656755164200,1.9341640625,-0.3779771625995636,0.19212543964385986,-0.15211918950080872
1772794656765208300,1.944208251953125,-0.2737337350845337,0.21588274836540222,-0.13169309496879578
1772794656775253200,1.954253173828125,-0.16494520008563995,0.23570731282234192,-0.11456363648176193
1772794656785297200,1.964297119140625,-0.06708486378192902,0.17264346778392792,-0.09652714431285858
1772794656795341300,1.97434130859375,0.05116482079029083,0.056504614651203156,-0.08371493965387344
1772794656805386200,1.98438623046875,0.1963336020708084,-0.05743496119976044,-0.07355212420225143
1772794656815430100,1.99443017578125,0.3354683220386505,-0.1293722689151764,-0.06052500754594803
1772794656825474300,2.004474365234375,0.416395366191864,-0.2121155560016632,-0.05500725284218788
1772794656835519200,2.014519287109375,0.43210774660110474,-0.2960783839225769,-0.051432494074106216
1772794656845563100,2.024563232421875,0.4124009907245636,-0.37429431080818176,-0.05330369621515274
1772794656855607300,2.034607177734375,0.388049840927124,-0.4269007742404938,-0.05203975737094879
1772794656865652200,2.04465234375,0.36256352066993713,-0.4756704866886139,-0.06269791722297668
1772794656875695900,2.05469580078125,0.3450835943222046,-0.5230150818824768,-0.08096401393413544
1772794656885739800,2.06473974609375,0.3286913335323334,-0.5613413453102112,-0.10877577215433121
1772794656895785000,2.074784912109375,0.30774715542793274,-0.5684698224067688,-0.13433119654655457
1772794656905828900,2.084828857421875,0.30642497539520264,-0.5398885607719421,-0.1486116200685501
1772794656915872800,2.094872802734375,0.31903719902038574,-0.4085201323032379,-0.1905263215303421
1772794656925918000,2.10491796875,0.3660254180431366,-0.21142101287841797,-0.3007030487060547
1772794656935961900,2.1149619140625,0.42286524176597595,-0.032797470688819885,-0.4067927300930023
1772794656946005800,2.125005859375,0.46559134125709534,0.07618633657693863,-0.4645748436450958
1772794656956051000,2.135051025390625,0.5090157389640808,0.1412806361913681,-0.44111210107803345
1772794656966094800,2.1450947265625,0.5516847968101501,0.20568422973155975,-0.36568698287010193
1772794656976138800,2.155138671875,0.584125280380249,0.28281286358833313,-0.26351961493492126
1772794656986184000,2.165183837890625,0.6106945872306824,0.3376734256744385,-0.14503450691699982
1772794656996228000,2.17522802734375,0.6476930975914001,0.3511040210723877,-0.0022587196435779333
1772794657006271700,2.185271728515625,0.7006820440292358,0.3597847521305084,0.14634230732917786
1772794657016317000,2.19531689453125,0.7492448091506958,0.3686477541923523,0.2759990990161896
1772794657026361000,2.205361083984375,0.7892264127731323,0.3444737493991852,0.38661453127861023
1772794657036404700,2.21540478515625,0.811958372592926,0.39292943477630615,0.445695698261261
1772794657046450000,2.225449951171875,0.7957673072814941,0.37736594676971436,0.43985024094581604
1772794657056494000,2.235494140625,0.7475797533988953,0.3241453468799591,0.36829057335853577
1772794657066538000,2.2455380859375,0.6920471787452698,0.3274558186531067,0.25729069113731384
1772794657076583000,2.2555830078125,0.6242148280143738,0.3158305883407593,0.12298426777124405
1772794657086627000,2.265626953125,0.5276776552200317,0.2898944020271301,-0.011057738214731216
1772794657096671000,2.2756708984375,0.4244937598705292,0.22254519164562225,-0.10684524476528168
1772794657106716000,2.2857158203125,0.32817766070365906,0.16080144047737122,-0.17014731466770172
1772794657116760000,2.295760009765625,0.2592499852180481,0.1287660151720047,-0.2026975452899933
1772794657126804000,2.305803955078125,0.23192977905273438,0.09166519343852997,-0.21311871707439423
1772794657136849000,2.315848876953125,0.2292783260345459,0.058192454278469086,-0.20440804958343506
1772794657146893000,2.32589306640625,0.23448221385478973,0.013408595696091652,-0.16388466954231262
1772794657156937000,2.33593701171875,0.23887455463409424,-0.04431888461112976,-0.1159304529428482
1772794657166982000,2.34598193359375,0.2451457679271698,-0.0853603184223175,-0.05710496008396149
1772794657177025800,2.35602587890625,0.2579670250415802,-0.10370844602584839,-0.004894751589745283
1772794657187070000,2.366070068359375,0.29195863008499146,-0.08525098860263824,0.028271818533539772
1772794657197115000,2.376114990234375,0.35047706961631775,-0.06939239054918289,0.0524490587413311
1772794657207158800,2.38615869140625,0.412067174911499,0.006943233776837587,0.07183729857206345
1772794657217203000,2.396202880859375,0.44912078976631165,0.04534868150949478,0.10498806834220886
1772794657227247900,2.406247802734375,0.46998104453086853,0.07407889515161514,0.14054064452648163
1772794657237291800,2.416291748046875,0.49060431122779846,0.11026832461357117,0.1838042289018631
1772794657247336000,2.4263359375,0.5139488577842712,0.10260706394910812,0.22376036643981934
1772794657257380900,2.436380859375,0.5393663048744202,0.09582000225782394,0.26881226897239685
1772794657267424800,2.4464248046875,0.5574321746826172,0.11251898109912872,0.3136024475097656
1772794657277469000,2.456468994140625,0.5412787199020386,0.11473552882671356,0.34969255328178406
1772794657287513900,2.466513916015625,0.5025931596755981,0.10902171581983566,0.37251850962638855
1772794657297557800,2.476557861328125,0.45218852162361145,0.12931686639785767,0.3771100640296936
1772794657307602000,2.486601806640625,0.39278432726860046,0.2153395265340805,0.349251389503479
1772794657317647000,2.496647216796875,0.316535085439682,0.3192819058895111,0.27809303998947144
1772794657327690800,2.506690673828125,0.22239072620868683,0.4525730013847351,0.15474937856197357
1772794657337735000,2.51673486328125,0.12185479700565338,0.5709981918334961,-0.013734697364270687
1772794657347780000,2.526780029296875,0.0096503347158432,0.6735426783561707,-0.2110603004693985
1772794657357823700,2.53682373046875,-0.11196504533290863,0.6844067573547363,-0.37578773498535156
1772794657367868000,2.546867919921875,-0.17976173758506775,0.6678274273872375,-0.47815021872520447
1772794657377913000,2.5569130859375,-0.19764326512813568,0.6165099143981934,-0.5190249085426331
1772794657387956700,2.566956787109375,-0.17425580322742462,0.48423707485198975,-0.47734302282333374
1772794657398001000,2.5770009765625,-0.1137077733874321,0.3101334571838379,-0.35199442505836487
1772794657408046000,2.587046142578125,-0.11106328666210175,0.17807097733020782,-0.18675026297569275
1772794657418090000,2.597090087890625,-0.1466686874628067,0.09747866541147232,-0.022364262491464615
1772794657428134000,2.6071337890625,-0.18370269238948822,0.07596224546432495,0.08820482343435287
1772794657438179000,2.617178955078125,-0.20637284219264984,0.09816820919513702,0.15764860808849335
1772794657448223000,2.627222900390625,-0.21102599799633026,0.12918639183044434,0.20281843841075897
1772794657458267000,2.637266845703125,-0.19372263550758362,0.16797372698783875,0.25265365839004517
1772794657468312000,2.64731201171875,-0.16271746158599854,0.23026637732982635,0.3048537075519562
1772794657478356000,2.65735595703125,-0.1490437239408493,0.29664433002471924,0.35474562644958496
1772794657488400000,2.66739990234375,-0.14566044509410858,0.3470417261123657,0.3984217345714569
1772794657498444800,2.67744482421875,-0.136942058801651,0.3702612817287445,0.41620445251464844
1772794657508489000,2.687489013671875,-0.11675562709569931,0.3366977274417877,0.42161014676094055
1772794657518532900,2.697532958984375,-0.10048211365938187,0.2921326756477356,0.40800726413726807
1772794657528577800,2.707577880859375,-0.08964425325393677,0.22972489893436432,0.3790518343448639
1772794657538622000,2.7176220703125,-0.07810238003730774,0.16369102895259857,0.3398812413215637
1772794657548666000,2.727666015625,-0.06463486701250076,0.07761217653751373,0.3060646057128906
1772794657558710800,2.737710693359375,-0.05789147689938545,0.003747010137885809,0.2843555808067322
1772794657568755000,2.7477548828125,-0.04501108080148697,-0.05558614432811737,0.2757171094417572
1772794657578799000,2.757799072265625,-0.016330696642398834,-0.0983131006360054,0.2879093289375305
1772794657588843800,2.76784375,0.026665475219488144,-0.12243872880935669,0.3136427402496338
1772794657598888000,2.777887939453125,0.0714380070567131,-0.12003442645072937,0.3505954146385193
1772794657608932000,2.78793212890625,0.12020948529243469,-0.09228082001209259,0.38446950912475586
1772794657618976800,2.797976806640625,0.17470388114452362,-0.04714956134557724,0.40294623374938965
1772794657629021000,2.80802099609375,0.23995909094810486,0.008726803585886955,0.40995001792907715
1772794657639065000,2.818065185546875,0.32382628321647644,0.055238645523786545,0.3909755349159241
1772794657649109800,2.82810986328125,0.4070838689804077,0.07886625826358795,0.31919240951538086
1772794657659154000,2.83815380859375,0.4849616289138794,0.04624360799789429,0.2015206217765808
1772794657669197800,2.84819775390625,0.5402469635009766,-0.04648510366678238,0.06383903324604034
1772794657679242800,2.85824267578125,0.5624337792396545,-0.16574357450008392,-0.07501499354839325
1772794657689287000,2.868286865234375,0.5519795417785645,-0.29769787192344666,-0.19167634844779968
1772794657699330800,2.878330810546875,0.517874002456665,-0.43360698223114014,-0.27769461274147034
1772794657709375700,2.888375732421875,0.47498849034309387,-0.5479424595832825,-0.3448053300380707
1772794657719420000,2.898419921875,0.4411628842353821,-0.6106787919998169,-0.38353514671325684
1772794657729463800,2.9084638671875,0.42547860741615295,-0.6151379942893982,-0.39985793828964233
1772794657739509000,2.918509033203125,0.4064772427082062,-0.5966734886169434,-0.3983279764652252
1772794657749553000,2.928552978515625,0.3690534830093384,-0.5831779837608337,-0.3849295973777771
1772794657759596800,2.9385966796875,0.2970719635486603,-0.5739506483078003,-0.3832123875617981
1772794657769642000,2.94864208984375,0.2126072347164154,-0.5514106750488281,-0.3735124170780182
1772794657779686000,2.958685791015625,0.12572000920772552,-0.5160412192344666,-0.37385621666908264
1772794657789729800,2.968729736328125,0.05972703918814659,-0.4666113257408142,-0.3717765808105469
1772794657799775000,2.97877490234375,0.015955593436956406,-0.3990676999092102,-0.3609239161014557
1772794657809819000,2.98881884765625,-0.00854814238846302,-0.31401076912879944,-0.3431304097175598
1772794657819862800,2.99886279296875,-0.017181843519210815,-0.22533577680587769,-0.3125911355018616
1772794657829908000,3.008907958984375,-0.008177248761057854,-0.1342274695634842,-0.2830664813518524
1772794657839952000,3.018951904296875,0.009647554717957973,-0.050482772290706635,-0.24560590088367462
1772794657849995800,3.028995849609375,0.03290560096502304,0.009451868012547493,-0.20993921160697937
1772794657860041000,3.039041015625,0.05745275691151619,0.032520171254873276,-0.1731865257024765
1772794657870085000,3.049085205078125,0.0725962445139885,0.04291805624961853,-0.13778255879878998
1772794657880129000,3.05912890625,0.07509429007768631,0.036338455975055695,-0.11013229936361313
1772794657890174000,3.069174072265625,0.06605260819196701,0.01676911860704422,-0.07940404862165451
1772794657900218000,3.079218017578125,0.04499419033527374,-0.013820481486618519,-0.05468166247010231
1772794657910262000,3.089261962890625,0.009575074538588524,-0.045657817274332047,-0.03606955707073212
1772794657920307000,3.099306884765625,-0.033799298107624054,-0.06338221579790115,-0.021992087364196777
1772794657930351000,3.10935107421875,-0.08547766506671906,-0.06622104346752167,-0.022488340735435486
1772794657940394800,3.119394775390625,-0.13997632265090942,-0.059335969388484955,-0.035900820046663284
1772794657950440000,3.12943994140625,-0.18242040276527405,-0.05711393803358078,-0.06788581609725952
1772794657960484000,3.139484130859375,-0.22767603397369385,-0.060750219970941544,-0.11189454793930054
1772794657970528000,3.149528076171875,-0.27447277307510376,-0.06834438443183899,-0.17003120481967926
1772794657980573000,3.159572998046875,-0.3191891312599182,-0.09800347685813904,-0.23007670044898987
1772794657990617000,3.1696171875,-0.3597978949546814,-0.1395149677991867,-0.2879226803779602
1772794658000661000,3.179660888671875,-0.38759756088256836,-0.15814617276191711,-0.33402758836746216
1772794658010706000,3.189705810546875,-0.39699819684028625,-0.14973847568035126,-0.3740086853504181
1772794658020750000,3.19975,-0.3914993107318878,-0.12196169793605804,-0.396127849817276
1772794658030794000,3.2097939453125,-0.3702237904071808,-0.09083910286426544,-0.40497520565986633
1772794658040839000,3.2198388671875,-0.33245110511779785,-0.05623212084174156,-0.40298691391944885
1772794658050883000,3.229883056640625,-0.29363813996315,-0.02512986585497856,-0.38555067777633667
1772794658060927000,3.239927001953125,-0.25294822454452515,-0.004072783514857292,-0.35621970891952515
1772794658070972000,3.249971923828125,-0.2140522301197052,-0.005094372667372227,-0.31316888332366943
1772794658081016000,3.26001611328125,-0.17950943112373352,-0.01825091987848282,-0.2653377056121826
1772794658091060000,3.27006005859375,-0.15129974484443665,-0.03586176037788391,-0.21519847214221954
1772794658101105000,3.28010498046875,-0.13030603528022766,-0.05613081157207489,-0.1629648357629776
1772794658111149000,3.290149169921875,-0.126126229763031,-0.06845000386238098,-0.11636009067296982
1772794658121193000,3.30019287109375,-0.13446085155010223,-0.08220576494932175,-0.0807429701089859
1772794658131237000,3.310237060546875,-0.1520347148180008,-0.10005299746990204,-0.05228332802653313
1772794658141282000,3.320281982421875,-0.17505986988544464,-0.1171044185757637,-0.027474919334053993
1772794658151326000,3.330325927734375,-0.19899821281433105,-0.11960118263959885,-0.004992995411157608
1772794658161370000,3.3403701171875,-0.21809068322181702,-0.10394632816314697,0.011886118911206722
1772794658171415000,3.3504150390625,-0.21825848519802094,-0.07656242698431015,0.023678388446569443
1772794658181459000,3.360458984375,-0.2017013430595398,-0.04230485484004021,0.030001264065504074
1772794658191503000,3.370503173828125,-0.17675510048866272,-0.02005210891366005,0.028464479371905327
1772794658201548000,3.380548095703125,-0.14219287037849426,-0.019504297524690628,0.029788337647914886
1772794658211592000,3.390592041015625,-0.10894939303398132,-0.031693004071712494,0.04065237566828728
1772794658221636000,3.400635986328125,-0.1006951853632927,-0.05122143030166626,0.04947249963879585
1772794658231681000,3.410680908203125,-0.10866240411996841,-0.09838949143886566,0.04747936874628067
1772794658241725000,3.420724853515625,-0.11789718270301819,-0.15614093840122223,0.03310548886656761
1772794658251769000,3.43076904296875,-0.11449635773897171,-0.18403173983097076,0.009182636626064777
1772794658261813800,3.440813720703125,-0.12615488469600677,-0.2711956799030304,-0.023134557530283928
1772794658271858000,3.45085791015625,-0.1507580578327179,-0.34363698959350586,-0.06604722887277603
1772794658281902000,3.460902099609375,-0.1728881150484085,-0.37825915217399597,-0.09788638353347778
1772794658291947000,3.470947021484375,-0.2035084217786789,-0.410991907119751,-0.13218964636325836
1772794658301991000,3.480990966796875,-0.25736579298973083,-0.42961856722831726,-0.16318511962890625
1772794658312035000,3.49103515625,-0.3392605185508728,-0.463778555393219,-0.1957578808069229
1772794658322080000,3.501080078125,-0.41825413703918457,-0.43604838848114014,-0.23900069296360016
1772794658332124000,3.5111240234375,-0.5559237599372864,-0.49585679173469543,-0.2837248146533966
1772794658342168000,3.52116796875,-0.7328799366950989,-0.48209092020988464,-0.2908399701118469
1772794658352213000,3.531212890625,-0.869661271572113,-0.34389957785606384,-0.23861661553382874
1772794658362257000,3.5412568359375,-0.9151195883750916,-0.1690734624862671,-0.11507762968540192
1772794658372301000,3.551301025390625,-0.8772430419921875,0.015013881027698517,0.029735423624515533
1772794658382346000,3.561345947265625,-0.7848446369171143,0.1653011292219162,0.18576444685459137
1772794658392390000,3.571389892578125,-0.6703833937644958,0.2865539491176605,0.3328397572040558
1772794658402434000,3.58143408203125,-0.549269437789917,0.360750675201416,0.4524194300174713
1772794658412479000,3.59147900390625,-0.4362284541130066,0.3760664165019989,0.5304187536239624
1772794658422523100,3.601523193359375,-0.35095271468162537,0.33559516072273254,0.5745025873184204
1772794658432566800,3.61156689453125,-0.2766493856906891,0.24209219217300415,0.5806386470794678
1772794658442612000,3.621612060546875,-0.2195594757795334,0.13237342238426208,0.564478874206543
1772794658452656000,3.63165625,-0.16693687438964844,-0.003007628722116351,0.5401716828346252
1772794658462699800,3.64169970703125,-0.13255760073661804,-0.10332836955785751,0.5156804323196411
1772794658472745000,3.651744873046875,-0.12863491475582123,-0.1885489821434021,0.49467024207115173
1772794658482789000,3.6617890625,-0.14617130160331726,-0.2829042673110962,0.4855044484138489
1772794658492833000,3.6718330078125,-0.1763441413640976,-0.3432226777076721,0.4865124225616455
1772794658502878000,3.6818779296875,-0.19599001109600067,-0.3536156713962555,0.4892485439777374
1772794658512922000,3.691922119140625,-0.19585086405277252,-0.3273986577987671,0.4948512315750122
1772794658522966000,3.701966064453125,-0.1797531098127365,-0.30782151222229004,0.49631625413894653
1772794658533011000,3.712010986328125,-0.14650145173072815,-0.2946074604988098,0.4928043782711029
1772794658543055000,3.72205517578125,-0.10474149137735367,-0.2911916971206665,0.4809708893299103
1772794658553099000,3.73209912109375,-0.0523286871612072,-0.2957046329975128,0.46168744564056396
1772794658563144000,3.74214404296875,-0.0020332932472229004,-0.2822607159614563,0.43958985805511475
1772794658573188000,3.75218798828125,0.06312363594770432,-0.23563724756240845,0.41111183166503906
1772794658583232000,3.76223193359375,0.1475040316581726,-0.18848730623722076,0.36976492404937744
1772794658593277000,3.77227685546875,0.24780090153217316,-0.164265438914299,0.3119131326675415
1772794658603321000,3.782321044921875,0.34697091579437256,-0.16894248127937317,0.240873321890831
1772794658613365000,3.792364990234375,0.4237549304962158,-0.20223620533943176,0.15656478703022003
1772794658623410000,3.802409912109375,0.4733978509902954,-0.253771036863327,0.06923573464155197
1772794658633454000,3.8124541015625,0.4934881925582886,-0.32650330662727356,-0.019064564257860184
1772794658643498000,3.822498046875,0.4943729043006897,-0.4265340268611908,-0.09957405924797058
1772794658653543000,3.83254296875,0.46838343143463135,-0.5317792296409607,-0.16912885010242462
1772794658663587000,3.842587158203125,0.41881483793258667,-0.6062945127487183,-0.21746869385242462
1772794658673631000,3.852630859375,0.36969348788261414,-0.6433443427085876,-0.24351178109645844
1772794658683676000,3.862676025390625,0.32465651631355286,-0.6398904919624329,-0.2474426031112671
1772794658693720000,3.872719970703125,0.29035741090774536,-0.573776364326477,-0.2327124923467636
1772794658703764000,3.882763916015625,0.2627396285533905,-0.4440274238586426,-0.22040656208992004
1772794658713809000,3.892808837890625,0.2257879376411438,-0.37808364629745483,-0.20384585857391357
1772794658723853000,3.90285302734375,0.20276038348674774,-0.2182159721851349,-0.18758246302604675
1772794658733897000,3.91289697265625,0.21710485219955444,-0.07103779166936874,-0.16970692574977875
1772794658743942100,3.922942138671875,0.2674018442630768,0.018370646983385086,-0.17152906954288483
1772794658753985800,3.93298583984375,0.30649566650390625,0.06301441788673401,-0.17566648125648499
1772794658764030000,3.943030029296875,0.3122430145740509,0.10353468358516693,-0.1920715570449829
1772794658774075100,3.9530751953125,0.29986637830734253,0.14842738211154938,-0.20178759098052979
1772794658784118800,3.963118896484375,0.2813962996006012,0.1868453472852707,-0.2144376039505005
1772794658794163000,3.973162841796875,0.2788594365119934,0.211764395236969,-0.21776533126831055
1772794658804208000,3.9832080078125,0.2755352854728699,0.2228711098432541,-0.21616584062576294
1772794658814251000,3.9932509765625,0.2556332051753998,0.21616873145103455,-0.20758754014968872
1772794658824296000,4.0032958984375,0.2153875231742859,0.19402693212032318,-0.20342448353767395
1772794658834340000,4.013340087890625,0.1676013320684433,0.16491705179214478,-0.20807282626628876
1772794658844384000,4.023384033203125,0.11085522919893265,0.13771578669548035,-0.22452236711978912
1772794658854429000,4.033428955078125,0.05688706785440445,0.10068239271640778,-0.24669504165649414
1772794658864473000,4.04347314453125,0.013603510335087776,0.07293225824832916,-0.2747040390968323
1772794658874517000,4.05351708984375,-0.027890115976333618,0.04734108969569206,-0.30516496300697327
1772794658884562200,4.063562255859375,-0.06273625046014786,0.04220092296600342,-0.3256646692752838
1772794658894606300,4.0736064453125,-0.1146189421415329,0.01128748431801796,-0.35715252161026
1772794658904650500,4.083650390625,-0.14116613566875458,-0.027270028367638588,-0.3853684365749359
1772794658914695200,4.093695068359375,-0.15209773182868958,-0.018565015867352486,-0.409280389547348
1772794658924739300,4.1037392578125,-0.1469554454088211,0.004628186579793692,-0.4409075677394867
1772794658934783500,4.113783447265625,-0.12048948556184769,0.047325048595666885,-0.4692225754261017
1772794658944828200,4.123828125,-0.07187294960021973,0.08151311427354813,-0.49130868911743164
1772794658954872300,4.133872314453125,0.00898641999810934,0.12368656694889069,-0.48589542508125305
1772794658964916500,4.14391650390625,0.06041472405195236,0.20320217311382294,-0.4545210003852844
1772794658974961400,4.15396142578125,0.08344323933124542,0.195071280002594,-0.40470096468925476
1772794658985005300,4.16400537109375,0.09102792292833328,0.15942539274692535,-0.32768261432647705
1772794658995049500,4.174049560546875,0.09693358838558197,0.16395063698291779,-0.2370842844247818
1772794659005094400,4.184094482421875,0.11847243458032608,0.16025283932685852,-0.12853996455669403
1772794659015138300,4.19413818359375,0.16129466891288757,0.16384479403495789,-0.02187199518084526
1772794659025182500,4.204182373046875,0.2115362584590912,0.18336524069309235,0.09380240738391876
1772794659035227400,4.214227294921875,0.23022422194480896,0.2005125880241394,0.19964276254177094
1772794659045271300,4.224271240234375,0.2286582887172699,0.2158995270729065,0.26953157782554626
1772794659055315200,4.234315185546875,0.18727417290210724,0.11931769549846649,0.28835999965667725
1772794659065360400,4.2443603515625,0.155011847615242,0.06026556342840195,0.28391119837760925
1772794659075404300,4.254404296875,0.15646542608737946,0.052386652678251266,0.2850528359413147
1772794659085448200,4.2644482421875,0.16822141408920288,0.05638672038912773,0.28060027956962585
1772794659095493400,4.274493408203125,0.16272975504398346,0.061754483729600906,0.2848678231239319
1772794659105537500,4.28453759765625,0.14332783222198486,0.0678270161151886,0.3068713843822479
1772794659115581200,4.294581298828125,0.11227749288082123,0.0972251445055008,0.3550914227962494
1772794659125626400,4.30462646484375,0.07665611058473587,0.125997394323349,0.40415164828300476
1772794659135670500,4.31467041015625,0.05110142379999161,0.14463301002979279,0.42575129866600037
1772794659145714200,4.324714111328125,0.044231534004211426,0.21294815838336945,0.4021197259426117
1772794659155759400,4.33475927734375,0.0655980184674263,0.3471246063709259,0.32968762516975403
1772794659165803500,4.344803466796875,0.06324831396341324,0.4619161784648895,0.17418725788593292
1772794659175847200,4.35484716796875,0.09519530832767487,0.6632344126701355,-0.040277156978845596
1772794659185892400,4.364892333984375,0.14154069125652313,0.8404243588447571,-0.2930377721786499
1772794659195936500,4.3749365234375,0.20052151381969452,0.9246417880058289,-0.5243096351623535
1772794659205980400,4.38498046875,0.35767731070518494,0.9381000399589539,-0.6516755819320679
1772794659216025300,4.395025390625,0.4711540937423706,0.5503965020179749,-0.5875508189201355
1772794659226069500,4.405069580078125,0.5124645233154297,0.33496516942977905,-0.3775044083595276
1772794659236113400,4.415113525390625,0.4841989278793335,0.015253819525241852,-0.04213213548064232
1772794659246158300,4.425158447265625,0.37156400084495544,-0.17015226185321808,0.3153167963027954
1772794659256202500,4.435202392578125,0.21501627564430237,-0.2685696482658386,0.6529321670532227
1772794659266246400,4.445246337890625,0.08386918157339096,-0.3450700044631958,0.9113339185714722
1772794659276291300,4.455291259765625,-0.08260646462440491,-0.3371581435203552,1.0826354026794434
1772794659286335500,4.46533544921875,-0.1842324286699295,-0.17592743039131165,1.1710230112075806
1772794659296379400,4.47537939453125,-0.1539960652589798,0.05441603809595108,1.1960101127624512
1772794659306424300,4.48542431640625,-0.04900600016117096,0.22503837943077087,1.1447429656982422
1772794659316468500,4.495468505859375,0.012878138571977615,0.3312961161136627,0.9971327781677246
1772794659326512400,4.505512451171875,-0.0035088234581053257,0.4053666293621063,0.8397815227508545
1772794659336557300,4.515557373046875,-0.05731314793229103,0.41734230518341064,0.7373411655426025
1772794659346601500,4.5256015625,-0.10200498253107071,0.32485657930374146,0.6853112578392029
1772794659356645400,4.535645263671875,-0.10384290665388107,0.17649991810321808,0.6659257411956787
1772794659366690300,4.545690185546875,-0.05742161348462105,0.05350582301616669,0.6479092240333557
1772794659376734200,4.555734130859375,-0.004471353255212307,-0.04674743488430977,0.620255172252655
1772794659386778400,4.5657783203125,0.05378156527876854,-0.14206302165985107,0.5877906680107117
1772794659396823300,4.5758232421875,0.10325361043214798,-0.23161514103412628,0.5618206262588501
1772794659406867200,4.5858671875,0.14980512857437134,-0.2780289649963379,0.5461847186088562
1772794659416911400,4.595911376953125,0.20478634536266327,-0.28512853384017944,0.5409359931945801
1772794659426956300,4.605956298828125,0.2487354278564453,-0.2569546699523926,0.548486590385437
1772794659437000200,4.616000244140625,0.2592063248157501,-0.20041704177856445,0.5587754249572754
1772794659447044400,4.62604443359375,0.27020490169525146,-0.13717256486415863,0.5457919836044312
1772794659457089500,4.636089599609375,0.3078080415725708,-0.07227767258882523,0.5028827786445618
1772794659467133200,4.64613330078125,0.3442118465900421,0.02886652573943138,0.4481252431869507
1772794659477177300,4.65617724609375,0.38406047224998474,0.1392701417207718,0.3722449839115143
1772794659487222500,4.666222412109375,0.436604380607605,0.24171049892902374,0.2648756504058838
1772794659497266200,4.67626611328125,0.4784751832485199,0.32597920298576355,0.13956816494464874
1772794659507310300,4.686310302734375,0.4720956087112427,0.39951255917549133,0.01153216790407896
1772794659517355500,4.69635546875,0.4267956614494324,0.4500408172607422,-0.10564061254262924
1772794659527399400,4.7063994140625,0.3730868995189667,0.47443217039108276,-0.2130858600139618
1772794659537443300,4.716443359375,0.31134530901908875,0.4606122672557831,-0.3053908050060272
1772794659547488500,4.726488525390625,0.24170657992362976,0.4156738221645355,-0.38355645537376404
1772794659557532400,4.736532470703125,0.1627105176448822,0.33801111578941345,-0.44209787249565125
1772794659567576300,4.746576416015625,0.08479627966880798,0.25011134147644043,-0.4833720922470093
1772794659577621500,4.75662158203125,0.02858102135360241,0.14056295156478882,-0.5025734305381775
1772794659587665400,4.76666552734375,-0.002350796479731798,0.03443332388997078,-0.5041953325271606
1772794659597709300,4.776709228515625,-0.0030373698100447655,-0.06591948866844177,-0.4791814684867859
1772794659607754500,4.78675439453125,-0.010418321006000042,-0.15328848361968994,-0.4304261803627014
1772794659617798400,4.79679833984375,0.037835877388715744,-0.2913801670074463,-0.35836032032966614
1772794659627843300,4.80684326171875,0.1477714329957962,-0.3689897656440735,-0.2948484420776367
1772794659637887500,4.816887451171875,0.2898050844669342,-0.4023589491844177,-0.22713328897953033
1772794659647931400,4.826931396484375,0.4130633771419525,-0.3900146782398224,-0.15351393818855286
1772794659657976300,4.836976318359375,0.4366908371448517,-0.3447737693786621,-0.06384953111410141
1772794659668020500,4.8470205078125,0.42372098565101624,-0.29686883091926575,-0.0011733670253306627
1772794659678064400,4.857064453125,0.3610318899154663,-0.3119538128376007,-0.014094680547714233
1772794659688109300,4.867109375,0.28880029916763306,-0.25699520111083984,-0.06784658879041672
1772794659698153200,4.8771533203125,0.2170971930027008,-0.17513178288936615,-0.14081110060214996
1772794659708197400,4.887197265625,0.130930095911026,-0.08417418599128723,-0.21140509843826294
1772794659718242300,4.8972421875,0.04173337295651436,-0.03188381344079971,-0.26600152254104614
1772794659728286200,4.9072861328125,-0.04450324550271034,-0.04012150317430496,-0.29229384660720825
1772794659738330400,4.917330322265625,-0.09335895627737045,-0.05422767996788025,-0.33219361305236816
1772794659748375300,4.927375244140625,-0.11441949754953384,-0.07663897424936295,-0.3843905031681061
1772794659758419200,4.937419189453125,-0.13168106973171234,-0.11175414174795151,-0.445492148399353
1772794659768463400,4.94746337890625,-0.14910799264907837,-0.14936569333076477,-0.4834643006324768
1772794659778508500,4.957508544921875,-0.17200767993927002,-0.19423489272594452,-0.4942794144153595
1772794659788552200,4.96755224609375,-0.20124226808547974,-0.24509674310684204,-0.47729164361953735
1772794659798596400,4.977596435546875,-0.24206723272800446,-0.29411745071411133,-0.4082777798175812
1772794659808641500,4.9876416015625,-0.2771730124950409,-0.3223158121109009,-0.3127395510673523
1772794659818685200,4.997685302734375,-0.3572121262550354,-0.30504053831100464,-0.20905938744544983
1772794659828729300,5.007729248046875,-0.43552717566490173,-0.3282736837863922,-0.10733330249786377
1772794659838774500,5.0177744140625,-0.46271196007728577,-0.350195974111557,-0.037924978882074356
1772794659848818200,5.027818115234375,-0.45364150404930115,-0.33730626106262207,0.002467183396220207
1772794659858862300,5.0378623046875,-0.41902095079421997,-0.3141127824783325,0.019670937210321426
1772794659868907500,5.047907470703125,-0.3686962425708771,-0.267862468957901,0.011605287902057171
1772794659878951400,5.057951416015625,-0.31673163175582886,-0.20156338810920715,-0.024556651711463928
1772794659888994800,5.067994873046875,-0.2884525656700134,-0.13929149508476257,-0.056487955152988434
1772794659899040000,5.0780400390625,-0.23241624236106873,-0.10671842098236084,-0.08235330879688263
1772794659909084200,5.088084228515625,-0.16259267926216125,-0.114439457654953,-0.09794585406780243
1772794659919128000,5.098128173828125,-0.11047640442848206,-0.07657778263092041,-0.08098744601011276
1772794659929173000,5.108173095703125,-0.0827033668756485,-0.03017779067158699,-0.04842950403690338
1772794659939217200,5.118217041015625,-0.06827686727046967,-0.003917525056749582,-0.025449760258197784
1772794659949261000,5.128260986328125,-0.05771690234541893,-0.005412623751908541,-0.017458412796258926
1772794659959306000,5.138305908203125,-0.05131493881344795,-0.0018299790099263191,-0.026692546904087067
1772794659969350100,5.14835009765625,-0.05580902472138405,0.003655866254121065,-0.03203032165765762
1772794659979394000,5.15839404296875,-0.07250908762216568,0.03340582177042961,-0.030521707609295845
1772794659989439000,5.16843896484375,-0.05777941644191742,0.08527833968400955,-0.017843196168541908
1772794659999483100,5.178483154296875,-0.11414875090122223,0.03452600538730621,0.008212863467633724
1772794660009527000,5.188527099609375,-0.15520352125167847,0.016821574419736862,0.040554556995630264
1772794660019572000,5.198572021484375,-0.17297104001045227,0.009304216131567955,0.06351238489151001
1772794660029615900,5.208615966796875,-0.20425118505954742,-0.04687836021184921,0.05708378553390503
1772794660039660000,5.218659912109375,-0.23945629596710205,-0.1143246740102768,0.05410945788025856
1772794660049705000,5.228705078125,-0.2723892033100128,-0.19007429480552673,0.08455604314804077
1772794660059748900,5.238748779296875,-0.32435154914855957,-0.284020334482193,0.15141774713993073
1772794660069793000,5.24879296875,-0.3624137043952942,-0.3169119656085968,0.23981605470180511
1772794660079838000,5.258837890625,-0.3502035140991211,-0.2949693500995636,0.32212015986442566
1772794660089881900,5.2688818359375,-0.32111915946006775,-0.27996721863746643,0.3615378737449646
1772794660099926000,5.278926025390625,-0.2753484547138214,-0.24678808450698853,0.3410646915435791
1772794660109971000,5.288970947265625,-0.2373371720314026,-0.1405940055847168,0.27382466197013855
1772794660120014800,5.299014892578125,-0.20742279291152954,-0.029459848999977112,0.20677782595157623
1772794660130059000,5.30905908203125,-0.1985773742198944,0.07417653501033783,0.13136723637580872
1772794660140104000,5.31910400390625,-0.20859338343143463,0.13239514827728271,0.05728920176625252
1772794660150147800,5.32914794921875,-0.23356957733631134,0.1506521850824356,-0.008946276269853115
1772794660160192000,5.33919189453125,-0.2726009488105774,0.1467183232307434,-0.04570790380239487
1772794660170237200,5.3492373046875,-0.32202547788619995,0.15762902796268463,-0.037699513137340546
1772794660180280800,5.35928076171875,-0.38164108991622925,0.18102611601352692,0.03959697484970093
1772794660190325000,5.369324951171875,-0.43153539299964905,0.20006105303764343,0.18629240989685059
1772794660200370200,5.3793701171875,-0.46250295639038086,0.20829039812088013,0.3726235032081604
1772794660210413800,5.389413818359375,-0.47095105051994324,0.20823340117931366,0.575502872467041
1772794660220458000,5.3994580078125,-0.4596962630748749,0.19160260260105133,0.7410485744476318
1772794660230503200,5.409503173828125,-0.4231235980987549,0.1385340541601181,0.8503659963607788
1772794660240546800,5.419546875,-0.3713114559650421,0.08104190975427628,0.8798324465751648
1772794660250591000,5.429591064453125,-0.302543044090271,0.029736369848251343,0.8397097587585449
1772794660260636200,5.43963623046875,-0.23079098761081696,-0.010630978271365166,0.7441921830177307
1772794660270680000,5.44968017578125,-0.16474884748458862,-0.04271887242794037,0.62139892578125
1772794660280724000,5.459723876953125,-0.11777909845113754,-0.07064228504896164,0.4862138330936432
1772794660290769200,5.46976904296875,-0.08593035489320755,-0.07890208065509796,0.36093127727508545
1772794660300813000,5.47981298828125,-0.07684076577425003,-0.08093981444835663,0.2456488013267517
1772794660310857000,5.48985693359375,-0.09508341550827026,-0.11026574671268463,0.1601456105709076
1772794660320902100,5.499902099609375,-0.135525181889534,-0.15136173367500305,0.088313989341259
1772794660330946000,5.509946044921875,-0.18856629729270935,-0.17710331082344055,0.0384385772049427
1772794660340990000,5.519989990234375,-0.23993343114852905,-0.19009587168693542,0.007340335287153721
1772794660351035000,5.530034912109375,-0.29343315958976746,-0.1823045313358307,-0.0005498124519363046
1772794660361079000,5.5400791015625,-0.3455115854740143,-0.1552019715309143,-0.010622253641486168
1772794660371123200,5.550123291015625,-0.3856174349784851,-0.1118912398815155,-0.027040908113121986
1772794660381167900,5.56016796875,-0.39711105823516846,-0.053608231246471405,-0.05026501044631004
1772794660391212000,5.5702119140625,-0.38358592987060547,0.013895977288484573,-0.0768396332859993
1772794660401256200,5.580256103515625,-0.35339415073394775,0.07667170464992523,-0.10698520392179489
1772794660411300900,5.59030078125,-0.32326740026474,0.12179763615131378,-0.13666851818561554
1772794660421345000,5.600344970703125,-0.308104008436203,0.13626210391521454,-0.1801617592573166
1772794660431389200,5.61038916015625,-0.28905734419822693,0.12696899473667145,-0.22484879195690155
1772794660441433900,5.620433837890625,-0.26599887013435364,0.119525246322155,-0.2563926577568054
1772794660451478000,5.63047802734375,-0.24314814805984497,0.10472500324249268,-0.26658084988594055
1772794660461522200,5.640522216796875,-0.23863469064235687,0.07664213329553604,-0.2561107575893402
1772794660471566800,5.65056689453125,-0.2536834180355072,0.029447991400957108,-0.2422620803117752
1772794660481611000,5.660611083984375,-0.2854682207107544,-0.026180172339081764,-0.24083882570266724
1772794660491655200,5.6706552734375,-0.31250861287117004,-0.05714181810617447,-0.25862184166908264
1772794660501699800,5.680699951171875,-0.3378826975822449,-0.05686308816075325,-0.28767865896224976
1772794660511744000,5.690743896484375,-0.35635146498680115,-0.041972290724515915,-0.3175761103630066
1772794660521788000,5.700787841796875,-0.3727530241012573,-0.027533328160643578,-0.3339743912220001
1772794660531832800,5.710832763671875,-0.3798130452632904,-0.0363750234246254,-0.329992413520813
1772794660541877000,5.720876953125,-0.38662126660346985,-0.0679636225104332,-0.3122578263282776
1772794660551921000,5.7309208984375,-0.38733580708503723,-0.10730649530887604,-0.27937018871307373
1772794660561965800,5.7409658203125,-0.3705199658870697,-0.12380713224411011,-0.24682749807834625
1772794660572010000,5.751010009765625,-0.3438694477081299,-0.10729552805423737,-0.21927469968795776
1772794660582054000,5.761053955078125,-0.31246018409729004,-0.07134349644184113,-0.18900641798973083
1772794660592099000,5.77109912109375,-0.28006336092948914,-0.03347787261009216,-0.1746290773153305
1772794660602143000,5.78114306640625,-0.25344645977020264,-0.0048996079713106155,-0.16091158986091614
1772794660612188200,5.791188232421875,-0.22811844944953918,0.0025428617373108864,-0.150162011384964
1772794660622232000,5.801232177734375,-0.21530672907829285,-0.002962573664262891,-0.135287806391716
1772794660632276000,5.81127587890625,-0.2097811996936798,-0.009658027440309525,-0.1234055757522583
1772794660642321200,5.821321044921875,-0.19392183423042297,-0.008991488255560398,-0.10927771776914597
1772794660652365000,5.831364990234375,-0.18183109164237976,0.013985199853777885,-0.099459707736969
1772794660662409000,5.841408935546875,-0.18107855319976807,0.0455506257712841,-0.07885970920324326
1772794660672452900,5.851452880859375,-0.17532825469970703,0.0705619677901268,-0.05414850264787674
1772794660682498000,5.861498046875,-0.1715719997882843,0.08346371352672577,-0.029121210798621178
1772794660692542000,5.8715419921875,-0.1608666181564331,0.07921597361564636,-0.0015324600972235203
1772794660702587000,5.8815869140625,-0.16110527515411377,0.05018426850438118,0.02323499694466591
1772794660712631000,5.891631103515625,-0.1833951324224472,0.01335621252655983,0.027848390862345695
1772794660722675200,5.90167529296875,-0.2346096932888031,-0.021217219531536102,0.002960855606943369
1772794660732719900,5.911719970703125,-0.28433093428611755,-0.04341573268175125,-0.03640998527407646
1772794660742764000,5.921763916015625,-0.31883296370506287,-0.024049419909715652,-0.06727522611618042
1772794660752808200,5.93180810546875,-0.3460238575935364,0.06477499008178711,-0.09688904881477356
1772794660762852900,5.941852783203125,-0.37752726674079895,0.14677801728248596,-0.1074291244149208
1772794660772897000,5.95189697265625,-0.40617144107818604,0.17836497724056244,-0.07051558047533035
1772794660782941200,5.961941162109375,-0.43653836846351624,0.20880085229873657,-0.008742178790271282
1772794660792985900,5.97198583984375,-0.4603251814842224,0.2421441674232483,0.05484212562441826
1772794660803030000,5.982030029296875,-0.5143701434135437,0.1695171594619751,0.05971061810851097
1772794660813074200,5.99207421875,-0.564257800579071,0.08281369507312775,0.08439093083143234
1772794660823118800,6.002118896484375,-0.4905126690864563,0.3004262149333954,0.14492878317832947
1772794660833163000,6.0121630859375,-0.4506289064884186,0.24899046123027802,0.15908561646938324
1772794660843207000,6.02220703125,-0.4244466722011566,0.14048711955547333,0.16045986115932465
1772794660853251800,6.032251953125,-0.3957814574241638,0.09113527834415436,0.1956663280725479
1772794660863296000,6.0422958984375,-0.3798246681690216,-0.026697367429733276,0.2251538634300232
1772794660873340000,6.05233984375,-0.33752620220184326,-0.015797847881913185,0.29858946800231934
1772794660883385000,6.062385009765625,-0.2541813254356384,0.024187708273530006,0.36776235699653625
1772794660893429200,6.07242919921875,-0.21990643441677094,0.0028850832022726536,0.39933761954307556
1772794660903473200,6.08247314453125,-0.20860177278518677,0.03660900518298149,0.4274115264415741
1772794660913518000,6.09251806640625,-0.20053638517856598,0.1532759666442871,0.4277726411819458
1772794660923562200,6.102562255859375,-0.2047176957130432,0.28847241401672363,0.3470429480075836
1772794660933606100,6.112606201171875,-0.25710529088974,0.4490431845188141,0.14228153228759766
1772794660943651000,6.122651123046875,-0.3020310699939728,0.629176914691925,-0.20074817538261414
1772794660953695200,6.1326953125,-0.3234095871448517,0.7839992046356201,-0.5730013847351074
1772794660963739100,6.1427392578125,-0.3575914800167084,0.7886187434196472,-0.8452799320220947
1772794660973784300,6.152784423828125,-0.400434285402298,0.6075706481933594,-0.9206618070602417
1772794660983828200,6.162828125,-0.44246697425842285,0.28553450107574463,-0.821707010269165
1772794660993872100,6.1728720703125,-0.43187984824180603,-0.0615861602127552,-0.6117073893547058
1772794661003917300,6.182917236328125,-0.4307596683502197,-0.31542789936065674,-0.35397475957870483
1772794661013961200,6.192961181640625,-0.5008823275566101,-0.45234206318855286,-0.06367608904838562
1772794661024005000,6.203005126953125,-0.549873411655426,-0.4368741810321808,0.2292122095823288
1772794661034050300,6.21305029296875,-0.5430567860603333,-0.3025438189506531,0.48670634627342224
1772794661044094200,6.22309423828125,-0.5327699184417725,-0.149200901389122,0.6864762902259827
1772794661054138000,6.23313818359375,-0.45910635590553284,-0.019426392391324043,0.8145570158958435
1772794661064183300,6.243183349609375,-0.34302785992622375,0.11473917961120605,0.8794350028038025
1772794661074227500,6.2532275390625,-0.2626989185810089,0.2070014625787735,0.9375395774841309
1772794661084271000,6.26327099609375,-0.222493514418602,0.252642422914505,0.9678972959518433
1772794661094316300,6.27331640625,-0.20572225749492645,0.2435426414012909,0.9552451372146606
1772794661104360400,6.2833603515625,-0.19116057455539703,0.20003299415111542,0.9026719331741333
1772794661114404000,6.293404052734375,-0.19119945168495178,0.13944581151008606,0.8285966515541077
1772794661124449300,6.30344921875,-0.20658369362354279,0.07716565579175949,0.7411594390869141
1772794661134493400,6.313493408203125,-0.220725879073143,0.01902724802494049,0.638882040977478
1772794661144538000,6.3235380859375,-0.21639375388622284,-0.024255670607089996,0.5247583389282227
1772794661154582300,6.333582275390625,-0.2003101259469986,-0.046273086220026016,0.394915908575058
1772794661164626400,6.34362646484375,-0.18080992996692657,-0.039396271109580994,0.2425447553396225
1772794661174671000,6.353671142578125,-0.16931040585041046,-0.017208145931363106,0.06571352481842041
1772794661184715300,6.36371533203125,-0.1533748358488083,-0.016398917883634567,-0.0745159164071083
1772794661194759200,6.37375927734375,-0.1368430107831955,0.0019087172113358974,-0.15974825620651245
1772794661204804000,6.38380419921875,-0.13435645401477814,0.0023997523821890354,-0.19484412670135498
1772794661214848300,6.39384814453125,-0.1428878903388977,-0.01905866712331772,-0.18464449048042297
1772794661224892200,6.40389208984375,-0.16097275912761688,-0.05115269497036934,-0.15106071531772614
1772794661234937000,6.41393701171875,-0.16361835598945618,-0.09432919323444366,-0.10328760743141174
1772794661244981200,6.423981201171875,-0.15967757999897003,-0.14536157250404358,-0.05257662013173103
1772794661255025200,6.434025146484375,-0.15030379593372345,-0.20085333287715912,-0.007912743836641312
1772794661265070000,6.444070068359375,-0.13143952190876007,-0.251781702041626,0.010188170708715916
1772794661275114200,6.4541142578125,-0.10527582466602325,-0.27453309297561646,0.0006513908738270402
1772794661285158100,6.464158203125,-0.08674222975969315,-0.2739701569080353,-0.05941670760512352
1772794661295203300,6.474203369140625,-0.0853390097618103,-0.2583131790161133,-0.1549280434846878
1772794661305247200,6.484247314453125,-0.10953713953495026,-0.22558516263961792,-0.2763552963733673
1772794661315291100,6.494291015625,-0.16053028404712677,-0.19942519068717957,-0.3797823488712311
1772794661325336300,6.50433642578125,-0.21924953162670135,-0.18341581523418427,-0.4646160304546356
1772794661335380200,6.514380126953125,-0.2820870876312256,-0.18526804447174072,-0.5063488483428955
1772794661345424100,6.524424072265625,-0.34153878688812256,-0.1988488882780075,-0.5052838325500488
1772794661355469300,6.53446923828125,-0.3879198729991913,-0.21804416179656982,-0.46577876806259155
1772794661365513200,6.54451318359375,-0.4345991015434265,-0.22527959942817688,-0.4058702886104584
1772794661375557000,6.55455712890625,-0.4734114706516266,-0.20748914778232574,-0.3613944351673126
1772794661385602300,6.564602294921875,-0.5122206211090088,-0.20068199932575226,-0.325915664434433
1772794661395646200,6.574646240234375,-0.5707153677940369,-0.2298596054315567,-0.2782836854457855
1772794661405690000,6.584690185546875,-0.6351811289787292,-0.2807546854019165,-0.23547977209091187
1772794661415735300,6.5947353515625,-0.6827281713485718,-0.3531242311000824,-0.20512159168720245
1772794661425779500,6.604779541015625,-0.7189381122589111,-0.4054301083087921,-0.17774845659732819
1772794661435823000,6.614822998046875,-0.7414993047714233,-0.42542994022369385,-0.14464803040027618
1772794661445868300,6.624868408203125,-0.7467361092567444,-0.42743247747421265,-0.10800257325172424
1772794661455912400,6.634912353515625,-0.7353055477142334,-0.4191231429576874,-0.06893373280763626
1772794661465956000,6.6449560546875,-0.7121428847312927,-0.4133930504322052,-0.039621997624635696
1772794661476001300,6.655001220703125,-0.6862614750862122,-0.37772321701049805,-0.03519262745976448
1772794661486045400,6.66504541015625,-0.6702079772949219,-0.3293229937553406,-0.06700050085783005
1772794661496090000,6.675090087890625,-0.6731420159339905,-0.28351718187332153,-0.1109839379787445
1772794661506134300,6.68513427734375,-0.6988389492034912,-0.2747211754322052,-0.14145031571388245
1772794661516178200,6.69517822265625,-0.7454490661621094,-0.2980331480503082,-0.14056721329689026
1772794661526223000,6.70522314453125,-0.8115962743759155,-0.3237695097923279,-0.11918940395116806
1772794661536267300,6.715267333984375,-0.8813031911849976,-0.3453405797481537,-0.0905364528298378
1772794661546311200,6.725311279296875,-0.9459245800971985,-0.3482046127319336,-0.06775224953889847
1772794661556356000,6.735356201171875,-0.9907439947128296,-0.34030860662460327,-0.04127936065196991
1772794661566400300,6.745400146484375,-1.0311245918273926,-0.3204306960105896,-0.027489857748150826
1772794661576444200,6.755444091796875,-1.072546362876892,-0.30265384912490845,-0.020331546664237976
1772794661586489000,6.765489013671875,-1.1188535690307617,-0.28445562720298767,-0.026119453832507133
1772794661596533200,6.775533203125,-1.1655244827270508,-0.26469072699546814,-0.046098221093416214
1772794661606577200,6.7855771484375,-1.1996088027954102,-0.25794845819473267,-0.0654699057340622
1772794661616622300,6.795622314453125,-1.2326093912124634,-0.2559431195259094,-0.0930757001042366
1772794661626666200,6.805666259765625,-1.2615399360656738,-0.25285476446151733,-0.125910222530365
1772794661636710100,6.815710205078125,-1.3072121143341064,-0.2577272653579712,-0.15656322240829468
1772794661646755300,6.82575537109375,-1.3638160228729248,-0.27089938521385193,-0.17607159912586212
1772794661656799200,6.83579931640625,-1.4263845682144165,-0.27547600865364075,-0.17800025641918182
1772794661666843100,6.845843017578125,-1.4918286800384521,-0.26442626118659973,-0.16655002534389496
1772794661676888300,6.855888427734375,-1.5642194747924805,-0.24111773073673248,-0.13328927755355835
1772794661686932200,6.86593212890625,-1.6404973268508911,-0.21514931321144104,-0.08632360398769379
1772794661696976100,6.87597607421875,-1.725441575050354,-0.18952970206737518,-0.026788901537656784
1772794661707021300,6.886021240234375,-1.8113149404525757,-0.17549851536750793,0.02792593650519848
1772794661717065200,6.896065185546875,-1.895431399345398,-0.16871652007102966,0.06372521072626114
1772794661727109000,6.906109130859375,-1.9581865072250366,-0.188463032245636,0.07803201675415039
1772794661737154300,6.916154296875,-2.0105245113372803,-0.2096215933561325,0.07086784392595291
1772794661747198500,6.926198486328125,-2.0494236946105957,-0.21535757184028625,0.0540340431034565
1772794661757243100,6.9362431640625,-2.0776703357696533,-0.20533129572868347,0.0365394689142704
1772794661767287300,6.946287353515625,-2.101893663406372,-0.17923051118850708,0.008703636936843395
1772794661777331500,6.95633154296875,-2.119276285171509,-0.1293601542711258,-0.026819203048944473
1772794661787376000,6.966376220703125,-2.125093936920166,-0.081984743475914,-0.06095147877931595
1772794661797420300,6.976420166015625,-2.1192421913146973,-0.02198532409965992,-0.10276656597852707
1772794661807464400,6.98646435546875,-2.1027071475982666,0.05368264019489288,-0.1510162502527237
1772794661817509000,6.996509033203125,-2.0879366397857666,0.1391647905111313,-0.20907261967658997
1772794661827553300,7.00655322265625,-2.075162172317505,0.1943252831697464,-0.24591699242591858
1772794661837597200,7.01659716796875,-2.052020311355591,0.22466081380844116,-0.249864861369133
1772794661847642000,7.02664208984375,-2.009489059448242,0.2350071668624878,-0.2235919088125229
1772794661857686300,7.036686279296875,-1.9423084259033203,0.242277592420578,-0.16889138519763947
1772794661867730200,7.046730224609375,-1.8526829481124878,0.25089895725250244,-0.09175868332386017
1772794661877775000,7.056775146484375,-1.7525851726531982,0.2728857398033142,-0.019410179927945137
1772794661887818200,7.066818359375,-1.6406896114349365,0.28137314319610596,0.0447336882352829
1772794661897862400,7.0768623046875,-1.537750005722046,0.24458293616771698,0.10309739410877228
1772794661907907600,7.086907470703125,-1.459985613822937,0.18933740258216858,0.15071828663349152
1772794661917951200,7.096951171875,-1.4247493743896484,0.116940438747406,0.16533105075359344
1772794661927995400,7.106995361328125,-1.434177279472351,0.06288865208625793,0.14116232097148895
1772794661938040600,7.11704052734375,-1.464246153831482,0.037311382591724396,0.0721568912267685
1772794661948084500,7.12708447265625,-1.5063090324401855,0.039620351046323776,-0.04146524891257286
1772794661958128400,7.13712841796875,-1.5508443117141724,0.05096594989299774,-0.18227003514766693
1772794661968173600,7.147173583984375,-1.5828711986541748,0.0662161111831665,-0.3224826455116272
1772794661978217500,7.157217529296875,-1.6029785871505737,0.08520711213350296,-0.44488978385925293
1772794661988261400,7.167261474609375,-1.6231496334075928,0.08309458941221237,-0.5333766341209412
1772794661998306600,7.177306640625,-1.6529600620269775,0.05991097539663315,-0.5881658792495728
1772794662008350500,7.1873505859375,-1.6905072927474976,0.011959955096244812,-0.600242018699646
1772794662018395400,7.1973955078125,-1.7236887216567993,-0.05414396524429321,-0.587905764579773
1772794662028439600,7.207439453125,-1.7535674571990967,-0.11848337948322296,-0.5574390888214111
1772794662038483500,7.2174833984375,-1.769827127456665,-0.17298708856105804,-0.50770503282547
1772794662048528400,7.2275283203125,-1.768577218055725,-0.20286643505096436,-0.41778260469436646
1772794662058572300,7.237572265625,-1.7686333656311035,-0.19014903903007507,-0.29612618684768677
1772794662068616400,7.247616455078125,-1.774208664894104,-0.17763447761535645,-0.16689641773700714
1772794662078661400,7.257661376953125,-1.7880618572235107,-0.18017113208770752,-0.056858330965042114
1772794662088705300,7.267705322265625,-1.7911741733551025,-0.21127872169017792,0.022244201973080635
1772794662098749400,7.27774951171875,-1.8005573749542236,-0.243684321641922,0.07722436636686325
1772794662108794400,7.28779443359375,-1.8214948177337646,-0.2723480463027954,0.1195751205086708
1772794662118838300,7.29783837890625,-1.866821050643921,-0.26812827587127686,0.14645014703273773
1772794662128882400,7.30788232421875,-1.901535987854004,-0.26483264565467834,0.16228777170181274
1772794662138927400,7.31792724609375,-1.9701286554336548,-0.23267364501953125,0.14711974561214447
1772794662148971300,7.32797119140625,-2.065988302230835,-0.23909856379032135,0.1157219335436821
1772794662159015400,7.338015380859375,-2.114201068878174,-0.27587389945983887,0.07805125415325165
1772794662169060400,7.348060302734375,-2.115894317626953,-0.3029480278491974,0.034526534378528595
1772794662179104300,7.358104248046875,-2.141103982925415,-0.29941216111183167,0.006386775057762861
1772794662189148400,7.3681484375,-2.1626088619232178,-0.3233864903450012,-0.027899213135242462
1772794662199193600,7.378193603515625,-2.1718873977661133,-0.3250560462474823,-0.07087863981723785
1772794662209237200,7.3882373046875,-2.1670918464660645,-0.33673885464668274,-0.11071231961250305
1772794662219281400,7.398281494140625,-2.1462886333465576,-0.30827152729034424,-0.14550518989562988
1772794662229326600,7.40832666015625,-2.117457866668701,-0.3379664719104767,-0.18258419632911682
1772794662239370200,7.418370361328125,-2.0757694244384766,-0.3444856107234955,-0.21386514604091644
1772794662249414400,7.428414306640625,-2.027765989303589,-0.3040000796318054,-0.21463842689990997
1772794662259459600,7.43845947265625,-1.9802576303482056,-0.2720690369606018,-0.18189246952533722
1772794662269503200,7.448503173828125,-1.9318602085113525,-0.248538538813591,-0.12692631781101227
1772794662279548400,7.45854833984375,-1.8876980543136597,-0.21753187477588654,-0.06461233645677567
1772794662289592600,7.468592529296875,-1.8762245178222656,-0.19566795229911804,-0.010791067034006119
1772794662299636500,7.478636474609375,-1.8237818479537964,-0.2291923612356186,0.023836418986320496
1772794662309681400,7.488681396484375,-1.7269381284713745,-0.2707430422306061,0.010850628837943077
1772794662319725600,7.4987255859375,-1.6395819187164307,-0.23919577896595,-0.0012316008796915412
1772794662329769500,7.50876953125,-1.591444730758667,-0.21541033685207367,-0.009193594567477703
1772794662339814400,7.518814453125,-1.5777068138122559,-0.2257620394229889,-0.026440758258104324
1772794662349858600,7.528858642578125,-1.5727601051330566,-0.2672209143638611,-0.06297232210636139
1772794662359902500,7.53890234375,-1.5622475147247314,-0.27947625517845154,-0.11148819327354431
1772794662369947400,7.548947509765625,-1.5446052551269531,-0.26064616441726685,-0.1599997580051422
1772794662379991300,7.5589912109375,-1.5209126472473145,-0.22804668545722961,-0.19955594837665558
1772794662390035500,7.569035400390625,-1.4995319843292236,-0.20843259990215302,-0.22664551436901093
1772794662400080400,7.579080322265625,-1.4776959419250488,-0.2072482854127884,-0.24395819008350372
1772794662410124300,7.589124267578125,-1.4589848518371582,-0.2188771516084671,-0.25970399379730225
1772794662420168400,7.59916845703125,-1.4306280612945557,-0.18852724134922028,-0.26184651255607605
1772794662430213400,7.60921337890625,-1.404915452003479,-0.14504466950893402,-0.2450648844242096
1772794662440257300,7.61925732421875,-1.391385555267334,-0.18246181309223175,-0.2137668877840042
1772794662450302500,7.629302490234375,-1.3909003734588623,-0.2194584608078003,-0.15308065712451935
1772794662460346400,7.639346435546875,-1.336617350578308,-0.12251541018486023,-0.0649489164352417
1772794662470390300,7.649390380859375,-1.2336175441741943,-0.2242322415113449,0.029242072254419327
1772794662480435500,7.659435546875,-1.2188612222671509,-0.4205583333969116,0.07840269058942795
1772794662490479400,7.669479248046875,-1.2237168550491333,-0.5071430802345276,0.10969360172748566
1772794662500523300,7.679523193359375,-1.2554529905319214,-0.5346327424049377,0.13893963396549225
1772794662510568400,7.689568359375,-1.2755458354949951,-0.47587457299232483,0.15812364220619202
1772794662520612400,7.6996123046875,-1.2950769662857056,-0.4930517077445984,0.15836893022060394
1772794662530656300,7.70965625,-1.3055462837219238,-0.46720898151397705,0.14862819015979767
1772794662540701400,7.719701416015625,-1.3207523822784424,-0.4718519151210785,0.14422652125358582
1772794662550745600,7.72974560546875,-1.3150365352630615,-0.5322186946868896,0.13868966698646545
1772794662560789200,7.739789306640625,-1.276132345199585,-0.490465372800827,0.13102535903453827
1772794662570834400,7.74983447265625,-1.2266868352890015,-0.4205598831176758,0.10445182770490646
1772794662580878600,7.759878662109375,-1.1799066066741943,-0.3782758116722107,0.016606397926807404
1772794662590922200,7.769922119140625,-1.1440507173538208,-0.402267724275589,-0.05562352016568184
1772794662600967400,7.779967529296875,-1.115357756614685,-0.367218941450119,-0.08442214131355286
1772794662611011600,7.790011474609375,-1.1090527772903442,-0.39121589064598083,-0.08947548270225525
1772794662621055500,7.800055419921875,-1.1062359809875488,-0.4217815101146698,-0.10703503340482712
1772794662631100400,7.810100341796875,-1.0879679918289185,-0.3915137052536011,-0.13372258841991425
1772794662641144600,7.82014453125,-1.1249068975448608,-0.4511147141456604,-0.18128478527069092
1772794662651189200,7.830189208984375,-1.1557108163833618,-0.45319807529449463,-0.2201319932937622
1772794662661233400,7.8402333984375,-1.1572338342666626,-0.43604838848114014,-0.24244582653045654
1772794662671277600,7.850277587890625,-1.1777803897857666,-0.483803927898407,-0.2491692453622818
1772794662681322200,7.860322265625,-1.2545911073684692,-0.4761643707752228,-0.2291281521320343
1772794662691366400,7.870366455078125,-1.2919784784317017,-0.4073161780834198,-0.1819634735584259
1772794662701410300,7.880410400390625,-1.2491908073425293,-0.34297847747802734,-0.13464948534965515
1772794662711455200,7.890455322265625,-1.1625292301177979,-0.31764712929725647,-0.10084322839975357
1772794662721499400,7.90049951171875,-1.1158064603805542,-0.3131929934024811,-0.09781467914581299
1772794662731543300,7.910543212890625,-1.1068856716156006,-0.32495495676994324,-0.12646672129631042
1772794662741588500,7.92058837890625,-1.115610957145691,-0.34577181935310364,-0.1671725958585739
1772794662751632400,7.93063232421875,-1.1413991451263428,-0.34178125858306885,-0.2072468250989914
1772794662761676300,7.94067626953125,-1.1676653623580933,-0.34018948674201965,-0.23269014060497284
1772794662771721500,7.950721435546875,-1.1548186540603638,-0.30417531728744507,-0.257319837808609
1772794662781765400,7.960765380859375,-1.1160446405410767,-0.23750866949558258,-0.30524900555610657
1772794662791809300,7.970809326171875,-1.0579625368118286,-0.16089661419391632,-0.37463831901550293
1772794662801854500,7.9808544921875,-1.0369899272918701,-0.0803983137011528,-0.4615953266620636
1772794662811898400,7.9908984375,-1.058061957359314,-0.05113501846790314,-0.5508806705474854
1772794662821942300,8.0009423828125,-1.0928419828414917,-0.06310220062732697,-0.6236557960510254
1772794662831987500,8.010987548828124,-1.1145403385162354,-0.10776969790458679,-0.6504185795783997
1772794662842031400,8.02103125,-1.118457317352295,-0.14567312598228455,-0.613030195236206
1772794662852076300,8.031076171875,-1.1360946893692017,-0.1625910848379135,-0.5191780924797058
1772794662862120400,8.041120361328124,-1.1077309846878052,-0.17325890064239502,-0.36992624402046204
1772794662872164600,8.05116455078125,-1.0569241046905518,-0.16652414202690125,-0.1788157969713211
1772794662882209300,8.061209228515626,-0.9482242465019226,-0.18358434736728668,-0.010891517624258995
1772794662892253200,8.071253173828126,-0.823558509349823,-0.15629270672798157,0.1271151900291443
1772794662902297300,8.08129736328125,-0.7567195296287537,-0.11365176737308502,0.19243668019771576
1772794662912342000,8.091342041015626,-0.723196268081665,-0.10036125779151917,0.16727648675441742
1772794662922386200,8.10138623046875,-0.7026941776275635,-0.11160965263843536,0.0613657608628273
1772794662932430300,8.111430419921875,-0.6920710206031799,-0.1075918972492218,-0.06910444051027298
1772794662942475000,8.12147509765625,-0.6836836338043213,-0.08656757324934006,-0.19407832622528076
1772794662952519200,8.131519287109375,-0.6904598474502563,-0.03867392987012863,-0.29341843724250793
1772794662962563300,8.141563232421875,-0.6997175812721252,0.005686080548912287,-0.3703177273273468
1772794662972608000,8.15160791015625,-0.722563624382019,0.023615442216396332,-0.43211600184440613
1772794662982652200,8.161652099609375,-0.7420294284820557,0.00486066285520792,-0.46056362986564636
1772794662992697300,8.171697265625,-0.7635622620582581,-0.03517240658402443,-0.4600931704044342
1772794663002741000,8.181740966796875,-0.80660480260849,-0.09458167105913162,-0.43044498562812805
1772794663012785200,8.19178515625,-0.8603882789611816,-0.1435132473707199,-0.3703254461288452
1772794663022830300,8.201830322265625,-0.8654663562774658,-0.12832951545715332,-0.2781646251678467
1772794663032874000,8.2118740234375,-0.8448396325111389,-0.07893730700016022,-0.1699049025774002
1772794663042918100,8.221918212890625,-0.8134846687316895,-0.002511235885322094,-0.06085591018199921
1772794663052963300,8.23196337890625,-0.7765915989875793,-0.0011847671121358871,0.014696696773171425
1772794663063007200,8.24200732421875,-0.7392181754112244,-0.014725076034665108,0.06777455657720566
1772794663073051100,8.252051025390625,-0.6986318826675415,-0.015604771673679352,0.10308387875556946
1772794663083096300,8.262096435546875,-0.6571478247642517,-0.02202245593070984,0.11311573535203934
1772794663093140200,8.27214013671875,-0.5920387506484985,-0.08635915815830231,0.09311676770448685
1772794663103184100,8.28218408203125,-0.5231022834777832,-0.14563047885894775,0.05852097272872925
1772794663113229300,8.292229248046874,-0.4832228720188141,-0.1613253355026245,0.020247947424650192
1772794663123273200,8.302273193359374,-0.4734642505645752,-0.15430709719657898,-0.039071038365364075
1772794663133318100,8.312318115234374,-0.4815303683280945,-0.15204720199108124,-0.11514126509428024
1772794663143362000,8.322362060546874,-0.49421659111976624,-0.14726309478282928,-0.18958167731761932
1772794663153407000,8.332406982421874,-0.5079355239868164,-0.10036104917526245,-0.25648701190948486
1772794663163452200,8.3424521484375,-0.5347636938095093,-0.021505650132894516,-0.3160771131515503
1772794663173496300,8.352496337890624,-0.5760177373886108,0.03425194323062897,-0.37583765387535095
1772794663183540200,8.362540283203124,-0.6048810482025146,0.03902539238333702,-0.42275670170783997
1772794663193585200,8.372585205078124,-0.6187353730201721,-0.0012016012333333492,-0.45969533920288086
1772794663203629300,8.38262939453125,-0.5993003845214844,-0.058357030153274536,-0.46999591588974
1772794663213673200,8.392673095703126,-0.5601106882095337,-0.08557996898889542,-0.46329209208488464
1772794663223718100,8.40271826171875,-0.5013616681098938,-0.08448993414640427,-0.43546125292778015
1772794663233762300,8.41276220703125,-0.4351886510848999,-0.07013417780399323,-0.38494670391082764
1772794663243807000,8.422806884765626,-0.41108864545822144,-0.0442570336163044,-0.3186371922492981
1772794663253851100,8.43285107421875,-0.4070078432559967,-0.014066855423152447,-0.24118000268936157
1772794663263895300,8.442895263671875,-0.3899194002151489,0.014958671294152737,-0.1717652529478073
1772794663273940000,8.45293994140625,-0.3700296878814697,0.044687915593385696,-0.10400865972042084
1772794663283984100,8.462984130859375,-0.3448561728000641,0.07051631808280945,-0.03661496937274933
1772794663294028000,8.473028076171875,-0.3197835385799408,0.0828634724020958,0.022912852466106415
1772794663304073200,8.4830732421875,-0.3017115890979767,0.09400134533643723,0.06213455647230148
1772794663314117000,8.4931171875,-0.2790394425392151,0.08640573918819427,0.0863455981016159
1772794663324161000,8.5031611328125,-0.2575030028820038,0.07910974323749542,0.0933036357164383
1772794663334206200,8.513206298828125,-0.24507705867290497,0.07657372951507568,0.10293328016996384
1772794663344250000,8.52325,-0.2182912528514862,0.0441923514008522,0.13662412762641907
1772794663354294000,8.5332939453125,-0.2224307358264923,0.026732461526989937,0.16418834030628204
1772794663364339200,8.543339111328125,-0.22476686537265778,-0.04551510512828827,0.15524065494537354
1772794663374383000,8.553383056640625,-0.21611617505550385,-0.07004346698522568,0.14272494614124298
1772794663384428300,8.56342822265625,-0.20733706653118134,-0.05472256615757942,0.14586400985717773
1772794663394472200,8.57347216796875,-0.19942618906497955,-0.07525729387998581,0.11752281337976456
1772794663404516000,8.58351611328125,-0.1967313438653946,-0.05427291616797447,0.07612024992704391
1772794663414561300,8.593561279296875,-0.11665541678667068,0.0018866527825593948,0.07340259850025177
1772794663424605200,8.603605224609375,-0.17196528613567352,-0.16870799660682678,0.02628382295370102
1772794663434649300,8.6136494140625,-0.24352149665355682,-0.07479667663574219,0.006239539943635464
1772794663444694000,8.623694091796875,-0.2797924280166626,0.025909163057804108,0.037983886897563934
1772794663454738200,8.63373828125,-0.29810625314712524,-0.024587560445070267,0.04439866170287132
1772794663464782300,8.6437822265625,-0.3411160409450531,-0.07848674058914185,0.02825644612312317
1772794663474827000,8.653826904296874,-0.38594144582748413,-0.08514529466629028,0.019503245130181313
1772794663484871200,8.66387109375,-0.43091318011283875,-0.06343147158622742,0.018959693610668182
1772794663494915300,8.673915283203126,-0.46131616830825806,-0.0489804707467556,0.03300559148192406
1772794663504960000,8.6839599609375,-0.48974329233169556,-0.07594364136457443,0.03314806893467903
1772794663515004200,8.694004150390626,-0.49335744976997375,-0.06028888747096062,0.02510250359773636
1772794663525049000,8.704049072265626,-0.4896292984485626,-0.026703499257564545,0.030788352712988853
1772794663535093000,8.714093017578126,-0.48571115732192993,-0.015561155043542385,0.03927801549434662
1772794663545137200,8.72413720703125,-0.4944562017917633,-0.017216576263308525,0.04107378423213959
1772794663555182300,8.734182373046876,-0.49700576066970825,-0.02019025757908821,0.04408451169729233
1772794663565226000,8.74422607421875,-0.49491995573043823,-0.022384701296687126,0.037735532969236374
1772794663575270100,8.754270263671875,-0.4805372953414917,-0.014399640262126923,0.014591225422918797
1772794663585315300,8.7643154296875,-0.45705968141555786,0.008774654939770699,-0.018527314066886902
1772794663595359000,8.77435888671875,-0.4261791706085205,0.03546330705285072,-0.05797146260738373
1772794663605403100,8.784403076171875,-0.41598057746887207,0.04669225960969925,-0.09300348162651062
1772794663615448300,8.7944482421875,-0.43789517879486084,0.046258535236120224,-0.09171302616596222
1772794663625492000,8.804491943359375,-0.47530966997146606,0.036221347749233246,-0.060819823294878006
1772794663635536100,8.8145361328125,-0.503175675868988,0.03070753812789917,-0.009554238989949226
1772794663645581300,8.824581298828125,-0.5100247859954834,0.03998386114835739,0.06590855866670609
1772794663655625200,8.834625244140625,-0.48736119270324707,0.06701526045799255,0.16026748716831207
1772794663665669000,8.844669189453125,-0.4392429292201996,0.08987237513065338,0.25956475734710693
1772794663675714300,8.85471435546875,-0.30368995666503906,0.16142171621322632,0.3822355270385742
1772794663685758200,8.86475830078125,-0.10233502089977264,-0.03629455715417862,0.4440472424030304
1772794663695803100,8.87480322265625,-0.0072845094837248325,-0.3044098913669586,0.424315869808197
1772794663705847300,8.884847412109375,-0.000892656680662185,-0.2657216191291809,0.36841800808906555
1772794663715891200,8.89489111328125,-0.02277914062142372,-0.17990674078464508,0.3073399066925049
1772794663725936000,8.90493603515625,-0.12839771807193756,-0.17492103576660156,0.212344691157341
1772794663735980300,8.914980224609375,-0.28166109323501587,-0.15649482607841492,0.10595504939556122
1772794663746024200,8.925024169921874,-0.40616628527641296,-0.07850310206413269,0.011994196102023125
1772794663756069000,8.935069091796874,-0.495644211769104,0.013775268569588661,-0.07644017040729523
1772794663766113000,8.945113037109374,-0.5158382058143616,0.08725347369909286,-0.17161701619625092
1772794663776157200,8.9551572265625,-0.5156366229057312,0.06646500527858734,-0.2854427993297577
1772794663786202000,8.9652021484375,-0.5562567114830017,-0.009772774763405323,-0.3733191192150116
1772794663796246000,8.97524609375,-0.6638170480728149,-0.1276738941669464,-0.3705123960971832
1772794663806290200,8.985290283203126,-0.7743579149246216,-0.20907874405384064,-0.30097511410713196
1772794663816335000,8.995335205078124,-0.8591394424438477,-0.2738054394721985,-0.2111063003540039
1772794663826379000,9.00537890625,-0.9027298092842102,-0.30427759885787964,-0.11770391464233398
1772794663836424200,9.015424072265626,-0.9176080822944641,-0.3097880780696869,-0.0354006290435791
1772794663846468000,9.025468017578126,-0.9224523901939392,-0.34031909704208374,0.03415793925523758
1772794663856512000,9.035511962890626,-0.920586347579956,-0.3814089596271515,0.0924300029873848
1772794663866557200,9.04555712890625,-0.8945480585098267,-0.419770210981369,0.12039798498153687
1772794663876601300,9.055601318359376,-0.8465275764465332,-0.4214845895767212,0.12399069964885712
1772794663886645500,9.0656455078125,-0.7715766429901123,-0.3549812138080597,0.11373699456453323
1772794663896690700,9.075690673828126,-0.6501880884170532,-0.2702842354774475,0.07905128598213196
1772794663906734600,9.085734619140625,-0.503690242767334,-0.1780771017074585,0.036190636456012726
1772794663916778500,9.095778564453125,-0.3956191837787628,-0.09108024835586548,-0.0014003186952322721
1772794663926823400,9.105823486328125,-0.33940809965133667,-0.08433206379413605,-0.04374218359589577
1772794663936867600,9.11586767578125,-0.30985763669013977,-0.07274167239665985,-0.06594555079936981
1772794663946912500,9.12591259765625,-0.2583901882171631,0.02594096213579178,-0.05955209583044052
1772794663956956400,9.135956298828125,-0.1988275647163391,0.17258377373218536,-0.058572154492139816
1772794663967000600,9.14600048828125,-0.14875826239585876,0.29072585701942444,-0.07225893437862396
1772794663977045500,9.15604541015625,-0.12318862229585648,0.41297346353530884,-0.04428085684776306
1772794663987089400,9.16608935546875,-0.13194961845874786,0.397606760263443,0.0076566459611058235
1772794663997133600,9.176133544921875,-0.13381198048591614,0.26190412044525146,0.0320596769452095
1772794664007178500,9.186178466796875,-0.12664435803890228,0.12109798938035965,0.039639297872781754
1772794664017222400,9.196222412109375,-0.14780963957309723,-0.022327285259962082,0.02429359219968319
1772794664027266600,9.2062666015625,-0.19991038739681244,-0.12281154841184616,-0.005097052548080683
1772794664037311500,9.2163115234375,-0.25312480330467224,-0.1668941080570221,-0.028473176062107086
1772794664047355400,9.22635546875,-0.2832150459289551,-0.1778905689716339,-0.04648067429661751
1772794664057399600,9.236399658203124,-0.29225489497184753,-0.20666629076004028,-0.08717057853937149
1772794664067444500,9.246444580078125,-0.30469611287117004,-0.2478933483362198,-0.1838289350271225
1772794664077488400,9.25648828125,-0.3368529975414276,-0.24730990827083588,-0.31676214933395386
1772794664087533600,9.266533447265624,-0.34602972865104675,-0.16438840329647064,-0.4227144122123718
1772794664097577500,9.276577392578124,-0.32675349712371826,-0.09716355055570602,-0.4532443583011627
