time,seconds_elapsed,z,y,x
1772794504819936800,0.076936767578125,0.3293313230872154,-0.1255311355778016,0.002727817528694868
1772794504829981700,0.086981689453125,0.18183774561882018,-0.11937007393110542,-0.012668927437067032
1772794504840027000,0.09702685546875,0.035547114199399946,-0.10146288051437585,0.011282733775675296
1772794504850070800,0.10707080078125,-0.13650865759551525,-0.09599946400932967,0.028698855739831924
1772794504860115700,0.11711572265625,-0.27995149836838246,-0.030826825945544985,0.041014001303166146
1772794504870159600,0.12715966796875,-0.3070189535140991,0.010183640826819464,-0.031008009465038774
1772794504880204800,0.137204833984375,-0.2660843010574579,-0.03660927267135121,-0.006611380963772535
1772794504890249700,0.147249755859375,-0.221890939065814,-0.06614175709057599,0.016257745709270237
1772794504900294700,0.157294677734375,-0.19774492432475088,-0.127119436815707,-0.01236073827072978
1772794504910338600,0.167338623046875,-0.19256196872889994,-0.19930892223846167,-0.06012246026843786
1772794504920383700,0.1773837890625,-0.2176426339715719,-0.26215543717592954,-0.10302841279804706
1772794504930428700,0.1874287109375,-0.32165655067563054,-0.29497835057582705,-0.13465017024725676
1772794504940472800,0.197472900390625,-0.3880880479604006,-0.2582377522755414,-0.14740721435919404
1772794504950517800,0.207517822265625,-0.4225350919634103,-0.19324969526473432,-0.12678966600522398
1772794504960562700,0.217562744140625,-0.34962884570658204,-0.159750343907997,-0.11044687236100435
1772794504970606800,0.22760693359375,-0.2676490661561489,-0.1763409200345166,-0.13247107264250516
1772794504980651800,0.23765185546875,-0.2024678611934185,-0.17503113434389234,-0.13304565766006707
1772794504990696700,0.24769677734375,-0.11941431493163109,-0.20016689077466726,-0.20761530708447098
1772794505000740900,0.257740966796875,0.01308159989118576,-0.2551511479044333,-0.2643520704373717
1772794505010785800,0.267785888671875,0.1475783331423998,-0.2996943097144365,-0.23813100298792123
1772794505020830700,0.277830810546875,0.21354922717809677,-0.3271525908086449,-0.18427549415975808
1772794505030874600,0.28787451171875,0.22439561536312103,-0.2997508622072637,-0.13950491680204868
1772794505040919800,0.297919921875,0.19867314508557318,-0.23651392318010328,-0.15720307057797908
1772794505050964700,0.30796484375,0.17542554048895834,-0.19870644456697625,-0.157587393720448
1772794505061008600,0.318008544921875,0.1251560734540224,-0.1828009463614784,-0.10818886430114508
1772794505071053800,0.3280537109375,0.1104290444433689,-0.19698751181988045,-0.04852291562855243
1772794505081098800,0.3380986328125,0.13818565089702606,-0.18635831004949285,0.026823124995827674
1772794505091142700,0.348142578125,0.08559913909137248,-0.10921214293427765,0.1128209080159664
1772794505101187600,0.3581875,-0.0005219780474901199,0.013869781993655487,0.22466332638859748
1772794505111232800,0.368232666015625,-0.2039835264533758,0.10641210955274291,0.2967157322950661
1772794505121277000,0.37827685546875,-0.348237683609128,0.1747008429436013,0.3111443628810346
1772794505131321600,0.388321533203125,-0.3954448404639959,0.24486772736441342,0.2543175831571221
1772794505141366800,0.39836669921875,-0.3681523443907499,0.24585969754382966,0.2084552650399506
1772794505151411000,0.408410888671875,-0.25397651463449,0.21598346858769654,0.21603972881957886
1772794505161455600,0.41845556640625,-0.10984276898801326,0.1609469150151126,0.24893676690161226
1772794505171500800,0.428500732421875,-0.015364157870411873,0.09157788470741361,0.21235475669652223
1772794505181544700,0.438544677734375,-0.018736849173903464,0.05983893061932176,0.19592399250790477
1772794505191590000,0.44858984375,-0.1264022741228342,0.027642021896969526,0.1853711804419756
1772794505201634600,0.458634521484375,-0.26952830403149125,0.06369018095368519,0.1286347093500197
1772794505211678700,0.4686787109375,-0.28953239666223524,0.08618493962269276,0.11800897817835211
1772794505221724000,0.478723876953125,-0.2175999638736248,0.056174179300386456,0.13180647125393152
1772794505231768800,0.488768798828125,-0.07311258248388766,0.00013330752346664667,0.12546192453280092
1772794505241812700,0.498812744140625,0.04568915350735187,-0.09056567545756697,0.14646744929105043
1772794505251857700,0.508857666015625,0.09295651611685753,-0.20964878567345438,0.13487345760911704
1772794505261902800,0.51890283203125,0.07888122901320457,-0.2621323485612869,0.07229790510013699
1772794505271946800,0.52894677734375,0.09203180248737335,-0.28628457384742795,0.00286737212985754
1772794505281991700,0.53899169921875,0.05030804547965526,-0.31678741026930507,-0.004958645320683718
1772794505292036900,0.549036865234375,-0.030233225700259207,-0.3602774462971836,-0.018799539146572352
1772794505302080500,0.55908056640625,-0.13717559707164764,-0.34810386462900783,-0.052236383193731306
1772794505312125700,0.569125732421875,-0.1024953288346529,-0.2605635283419862,-0.10703253387287258
1772794505322170600,0.579170654296875,-0.004345335727930068,-0.21160817611292004,-0.20314415301978586
1772794505332214800,0.58921484375,0.12099836925268173,-0.14597115367408842,-0.2252778050251305
1772794505342259700,0.599259765625,0.14140461294353007,-0.08501954910513013,-0.20997838295400142
1772794505352304600,0.6093046875,0.0734860919713974,-0.06222253782022744,-0.21987477693781254
1772794505362348800,0.619348876953125,-0.00012625672817230223,0.03992142029348761,-0.23594036107584831
1772794505372393700,0.629393798828125,-0.029689620342850682,0.1487740092003718,-0.25269845752269027
1772794505382438700,0.639438720703125,-0.001762333497405052,0.21902966788318007,-0.2081954450599849
1772794505392482800,0.64948291015625,0.03853928175270557,0.26153635542951525,-0.08384834990128874
1772794505402527700,0.65952783203125,0.1389817697107792,0.30985308096148073,-0.014433160630613565
1772794505412572700,0.66957275390625,0.2953898905187845,0.3389925200756639,0.04029620842263102
1772794505422616800,0.679616943359375,0.3917319574207067,0.3931764571405947,0.10044204956665634
1772794505432661800,0.689661865234375,0.3687158234924078,0.3954221171755343,0.15870996800959108
1772794505442707000,0.69970703125,0.2884083610683679,0.46933038008175787,0.22647870524749159
1772794505452750600,0.70975048828125,0.20001579186618326,0.5372040389988572,0.29590324686840175
1772794505462795800,0.719795654296875,0.13991934282183646,0.4976085261914879,0.3281006853137165
1772794505472840700,0.7298408203125,0.10672785183787345,0.38113311425596474,0.3106348059237003
1772794505482884600,0.739884521484375,0.10693360354304313,0.26584165140800176,0.2599509128689766
1772794505492929800,0.7499296875,0.14890402878820896,0.15013452043123543,0.18150960964299737
1772794505502974700,0.759974609375,0.11099895328581333,0.05142937765978276,0.13182963293381034
1772794505513019000,0.770018798828125,0.05330021303296089,0.011503829180449246,0.09257029327824712
1772794505523063600,0.7800634765625,0.07790975363254547,-0.003167524120211601,-0.012926993851363658
1772794505533108700,0.790108642578125,0.07994447433054447,-0.07736760957986116,-0.07570990550071001
1772794505543153000,0.80015283203125,0.0890489872843027,-0.1960850282885134,-0.1583387235444039
1772794505553197600,0.810197509765625,0.12744447665214537,-0.21839045666418969,-0.31765878627635535
1772794505563242800,0.82024267578125,0.03035948242843151,-0.18075046183876692,-0.32753333375453947
1772794505573286700,0.83028662109375,-0.08274199609458446,-0.1250818391740322,-0.2424048809148371
1772794505583331800,0.840331787109375,-0.08316460542082786,-0.1396548466667533,-0.2659687118537724
1772794505593376500,0.85037646484375,-0.0032312370061874387,-0.13469196356236934,-0.3626813656337559
1772794505603420700,0.860420654296875,0.07120528755784035,-0.18383710274249315,-0.44180414831787346
1772794505613465900,0.8704658203125,0.1818967823296785,-0.269442963835597,-0.4272353786088526
1772794505623510800,0.8805107421875,0.22986264859735964,-0.27470073823332786,-0.378881535936892
1772794505633555700,0.8905556640625,0.1635842960476875,-0.1928073217920959,-0.32279490705579517
1772794505643600000,0.900599853515625,0.046288872966170305,-0.04359788031652569,-0.2477143854998052
1772794505653644800,0.910644775390625,-0.0985036288499832,0.1035411115605384,-0.13253697748556734
1772794505663689700,0.920689697265625,-0.2961176202714443,0.22317118813470005,0.161575732704252
1772794505673733600,0.930733642578125,-0.35873978840112686,0.5234506773259491,-0.04822539398670196
1772794505683778800,0.94077880859375,-0.13255904318690298,0.7997611157782375,0.19082827680408954
1772794505693823700,0.95082373046875,0.1690752946794033,0.8769757267534732,0.4603121571719646
1772794505703867600,0.96086767578125,0.30001462770998477,0.8118279126036911,0.6498220448538661
1772794505713912800,0.970912841796875,0.22946458919048307,0.7620289126247167,0.7168088379338383
1772794505723957800,0.980957763671875,0.16910276720821857,0.846205983023718,0.659022784723714
1772794505734002000,0.991001953125,0.008256956213712691,0.9199883545279502,0.5303340801641345
1772794505744046800,1.001046875,-0.1343015029400587,0.9250210879981517,0.4339372143350541
1772794505754092000,1.011092041015625,-0.3225958773523569,0.7458410172812641,0.3655316404983401
1772794505764136000,1.021135986328125,-0.43351007496416566,0.5602114050988107,0.29235490673705933
1772794505774180900,1.031180908203125,-0.2056611042767763,0.4466339065618813,0.2456006082162261
1772794505784226000,1.04122607421875,0.0632207185447216,0.21440708611644804,0.19393983295336364
1772794505794269700,1.051269775390625,0.2679483413636684,0.042443157323449845,0.13348390294685958
1772794505804315000,1.06131494140625,0.4082166437536478,0.06109656599760055,0.11695946912541985
1772794505814359800,1.07135986328125,0.39382980648279187,0.09113529203906655,0.1471450562916696
1772794505824403700,1.08140380859375,0.2666869431257248,0.07417787362784146,0.13182166882306337
1772794505834449000,1.091448974609375,0.3157207308858633,0.14094664004296065,0.16404562994912267
1772794505844493800,1.101493896484375,0.42403848226368424,0.09941577525883913,0.20744652638882397
1772794505854538000,1.1115380859375,0.4831067573040724,-0.03321794059947133,0.22855390408635137
1772794505864582700,1.121582763671875,0.46404900561273094,-0.18332433091476558,0.19984204273447392
1772794505874627800,1.1316279296875,0.35552959418296814,-0.29364304685145615,0.010823153439909219
1772794505884672000,1.141672119140625,0.15312193874418734,-0.36616445850916207,-0.18372370549589395
1772794505894717000,1.151717041015625,0.04180208294093608,-0.5243871544584632,-0.31853841865509747
1772794505904761900,1.161761962890625,0.038866614010930056,-0.6669111998859792,-0.3304040668852627
1772794505914806000,1.171805908203125,0.06380290234684943,-0.8114352600242942,-0.3800440038450062
1772794505924851000,1.181850830078125,0.052363224443793294,-0.8418179771978408,-0.5394013298474252
1772794505934895900,1.191895751953125,0.030137364110350607,-0.7536807709962129,-0.5843985555678606
1772794505944939800,1.201939697265625,-0.05238251366615295,-0.8469381697557866,-0.5120855990290641
1772794505954985000,1.21198486328125,-0.06245908652245998,-0.949506125435233,-0.29670857190191746
1772794505965030000,1.22202978515625,-0.040973230901360506,-0.7736345216792077,-0.6368949048720299
1772794505975073800,1.23207373046875,0.00580839401781559,-0.900701908647269,-0.7322887311384081
1772794505985119000,1.242118896484375,-0.006454290705919265,-1.2382850733816624,-0.697009766355902
1772794505995164000,1.252163818359375,0.03779576990902424,-0.7600019368417561,-0.3881220963604748
1772794506005207800,1.262207763671875,0.097519293987751,-0.2820662255000323,0.1748709753461182
1772794506015252700,1.272252685546875,0.12207388952970503,-0.04714724336117506,0.48653351688235996
1772794506025298000,1.2822978515625,0.13448153568208218,0.0868947318598628,0.5284441747643053
1772794506035342000,1.292342041015625,0.1644704312324524,0.03236870335899293,0.5061440801508724
1772794506045386800,1.30238671875,0.09901800811290741,-0.10411986129656434,0.4289418902657926
1772794506055432000,1.312431884765625,0.1007657285630703,-0.11971585516147315,0.43297450678274035
1772794506065475800,1.322475830078125,0.05375029488801956,-0.11567388629429042,0.42102497966140506
1772794506075520800,1.332520751953125,0.004378653475642204,-0.11669438844844698,0.359887351001054
1772794506085565700,1.342565673828125,-0.13429507319927214,-0.12403802920952439,0.32852541353181003
1772794506095609900,1.35260986328125,-0.3121335200488567,-0.15720365509986878,0.32438787533566354
1772794506105655000,1.362655029296875,-0.44976270610690117,-0.13789251316934822,0.29171032522320745
1772794506115699700,1.37269970703125,-0.5128665202736854,-0.1155495292622596,0.2301484798014164
1772794506125745000,1.382744873046875,-0.40231121910214424,-0.16942454650849104,0.2568490013308823
1772794506135788800,1.392788818359375,-0.1891951226443052,-0.14076573051810265,0.20186054295003414
1772794506145834000,1.402833984375,0.021223405292630195,0.010386004131659864,0.03741539228931069
1772794506155878700,1.412878662109375,0.15987199752628803,-0.21862689576856792,0.20060177506059407
1772794506165922800,1.4229228515625,0.3474363040983677,-0.025182810442894697,0.0991873733304441
1772794506175968000,1.432968017578125,0.25716858867406844,0.1287664459709078,-0.09699863111451268
1772794506186012700,1.4430126953125,0.08868833727836609,0.014918532994762063,-0.012696107704937457
1772794506196056800,1.453056884765625,-0.06443827764093875,-0.006072451781481504,0.09504793543815612
1772794506206102000,1.46310205078125,-0.1471978093922138,0.014162380865216255,-0.06594006050601602
1772794506216147000,1.47314697265625,-0.12511457239985466,0.0072082508783787485,-0.200726862744987
1772794506226190800,1.48319091796875,-0.15454992572069168,-0.0028580197796225547,-0.20042276523187755
1772794506236235800,1.49323583984375,-0.19512685078084469,-0.005127426016330719,-0.22227891547009349
1772794506246281000,1.503281005859375,-0.19283084879815576,0.0373283715929836,-0.20970453444868326
1772794506256324900,1.513324951171875,0.019282208096981047,0.026745091323554515,-0.1888986239157617
1772794506266369800,1.523369873046875,0.2108282777816057,-0.00031388825476169586,-0.16348521958738566
1772794506276415000,1.5334150390625,0.39815176133513447,-0.004641469130292534,-0.07530702378824353
1772794506286459000,1.543458984375,0.4529173707455396,-0.03193937203101813,0.02289996020272374
1772794506296503800,1.55350390625,0.3502127830743789,-0.004641249934583902,0.030716186911612747
1772794506306548700,1.563548828125,0.15537293254137038,-0.01594824136868119,0.11166311628296971
1772794506316593000,1.573593017578125,-0.17026479672491548,-0.055313014160096645,0.10670943939834833
1772794506326637800,1.583637939453125,-0.4460667741984129,-0.17721783073320985,0.06314663039520382
1772794506336682800,1.593682861328125,-0.5514157388985157,-0.11436755293607712,-0.023485066614300013
1772794506346727000,1.603726806640625,-0.41143385223448276,0.16590820895060895,0.0965923884011805
1772794506356771800,1.613771728515625,-0.37363691328167914,-0.1181723520465195,0.15495762973874808
1772794506366816800,1.623816650390625,-0.1528589038938284,-0.12263977978415787,-0.07157704347968101
1772794506376861000,1.63386083984375,0.04139700927138328,-0.05446903761662542,-0.10266367113888263
1772794506386905900,1.64390576171875,0.13286299456954,-0.13505378261208534,-0.054285132417082785
1772794506396951000,1.653950927734375,0.19844751963615417,-0.10419687205553055,-0.038920974546670914
1772794506406995000,1.663994873046875,0.21357260805368422,0.09769903446882963,0.19636866753548382
1772794506417040000,1.674039794921875,0.24672435154914854,0.47748131863772864,0.5669451703332364
1772794506427084800,1.684084716796875,0.313649185308814,0.266295386524871,0.4009717871919274
1772794506437128700,1.694128662109375,0.06751578539013862,0.13648805319890378,0.09971768081486225
1772794506447174000,1.704173828125,-0.2688911751717329,-0.009696341367065906,0.09543021275401115
1772794506457218800,1.71421875,-0.22338731510341167,-0.20111907693296668,0.11997560207620263
1772794506467262700,1.7242626953125,0.10916472359597683,-0.4489672448802739,-0.03281841988787055
1772794506477308000,1.734307861328125,0.4276134181410074,-0.9618611646175383,-0.4137970742344856
1772794506487352800,1.744352783203125,0.7182301029086112,-0.3830880477160215,-0.20606135564073919
1772794506497397000,1.75439697265625,0.608564444053173,-0.30797778860889374,0.45296354797482485
1772794506507441700,1.764441650390625,0.46448973511755465,-0.33385888351425524,0.5119669410854578
1772794506517486800,1.77448681640625,0.4620616311877966,-0.016890125328674913,0.49139936935305595
1772794506527531000,1.784531005859375,0.2656429870307445,0.05432020373046398,0.3944157896772027
1772794506537576000,1.794575927734375,0.24810791486203668,0.28880788177996874,0.13747837941050528
1772794506547620900,1.804620849609375,0.30912673944830893,0.17619257933869956,0.6182493872433901
1772794506557664800,1.814664794921875,0.5562766229331493,0.17355353607200086,0.6284452025651931
1772794506567710000,1.8247099609375,0.013665537258982658,-0.5548976627301424,-0.28653058449774976
1772794506577755000,1.8347548828125,-0.5089689283132552,-0.283309284363687,-0.7164617780618369
1772794506587798800,1.844798828125,-0.7717389902561903,0.08528978088125586,-0.26363047816455365
1772794506597844000,1.854843994140625,-0.747421710601449,-0.001240428515151143,-0.006346300286799669
1772794506607889000,1.864888916015625,-0.5674363148510456,0.06886091638877988,-0.09639628130719065
1772794506617933800,1.874933837890625,-0.3007002718865871,0.07703085190616547,-0.18977204574942588
1772794506627977700,1.884977783203125,-0.16057283927202223,-0.0224055277492851,-0.17122326649352906
1772794506638023000,1.89502294921875,-0.12884849823117256,-0.09387326563559471,-0.22510522493720053
1772794506648067800,1.90506787109375,-0.15860650763511658,-0.17973397827260196,-0.27268720645383
1772794506658111700,1.91511181640625,-0.19277181208729743,-0.2558801562987268,-0.26467706460803747
1772794506668157000,1.925156982421875,-0.1753016218483448,-0.20505239779390394,-0.2291021856188774
1772794506678201900,1.935201904296875,-0.09585749825537204,-0.09945165028981864,-0.15130655988529323
1772794506688245800,1.945245849609375,-0.019012743505835532,-0.05918488715738058,-0.07844429890066384
1772794506698291000,1.955291015625,-0.011250292810797691,-0.055992009400203824,-0.07884411187320947
1772794506708335900,1.9653359375,0.04559563000500202,-0.07488536431007087,-0.08516571611016988
1772794506718380000,1.975380126953125,0.21067747113406657,-0.09690145435035229,-0.06186740423962474
1772794506728424700,1.9854248046875,0.3691366792529821,-0.09851992239765822,-0.031821956196427345
1772794506738470400,1.995470458984375,0.4415519271224737,-0.0581271947979927,0.013568652755767106
1772794506748514000,2.00551416015625,0.3490817332178354,0.0298004603061825,0.06465484300106764
1772794506758559200,2.015559326171875,0.17607552883028982,0.0729798229496926,0.13475085414275526
1772794506768604200,2.025604248046875,0.04984218153357506,0.09241817145645619,0.21091770963072776
1772794506778648000,2.03564794921875,0.040597383326292036,0.04397760034911334,0.22572043422609567
1772794506788693200,2.045693359375,0.17951660919487475,0.026216391274333,0.21495354101806877
1772794506798738200,2.05573828125,0.25983400849103927,-0.03512304356843233,0.1618146560266614
1772794506808782300,2.0657822265625,0.21777064426541326,-0.07163754149526358,0.26396745503395797
1772794506818827300,2.0758271484375,0.0819862092912197,-0.012223521757125854,0.1571998557075858
1772794506828872200,2.0858720703125,0.1811953560620546,0.08181297161616384,-0.017992022155970334
1772794506838916400,2.095916259765625,0.10625146649777889,0.19075842643827198,0.13756664221584797
1772794506848961300,2.105961181640625,-0.028720483049750327,0.25738223142474886,0.2662099732637405
1772794506859006200,2.116006103515625,-0.12142039405703543,0.2074541251733899,0.23334566840752957
1772794506869050400,2.12605029296875,-0.2136392435491085,0.17841252041049302,0.15014073097631334
1772794506879095300,2.13609521484375,-0.23348726883530616,0.1498386062245816,0.048980450137704606
1772794506889140200,2.14614013671875,-0.18324995050430296,0.12211926304139196,0.02511412912085652
1772794506899184000,2.15618408203125,-0.15958032110333442,0.14469671329148112,0.08796177656948566
1772794506909229300,2.166229248046875,-0.1546001946032047,0.2122485929083079,0.0457042049460113
1772794506919274200,2.176274169921875,-0.10124737460017204,0.25624095243513584,-0.0012983692474663256
1772794506929318100,2.186318115234375,-0.09217676391601562,0.25239940151087936,-0.06305982889458536
1772794506939363300,2.19636328125,-0.10592004258632659,0.2122688319787383,-0.0955338192589581
1772794506949408300,2.206408203125,-0.09062310473322868,0.2017792944073677,-0.12083587216734885
1772794506959452200,2.2164521484375,-0.1112526357859373,0.18719817667342722,-0.07196282792687415
1772794506969497000,2.2264970703125,-0.06679039372503758,0.15775909702554344,-0.05176598920300603
1772794506979542300,2.236542236328125,0.009332476490736007,0.13113894725590944,-0.037612083905190226
1772794506989586400,2.24658642578125,0.029769699841737746,0.11404942689761519,0.008256225561350583
1772794506999631000,2.256631103515625,0.012816811475157737,0.16985848094634712,0.017365560820698737
1772794507009676300,2.26667626953125,-0.035792028871178626,0.20797171930670738,0.0821980984762311
1772794507019720200,2.27672021484375,-0.055526656910777086,0.1908523883320391,0.11701616774871945
1772794507029765000,2.28676513671875,-0.0021335048973560333,0.13082586271874605,0.08141191653460264
1772794507039810300,2.296810302734375,0.04012041346430778,0.09947115870788693,0.028709523264318703
1772794507049854200,2.306854248046875,0.04589315164685249,0.048065746445581314,-0.034466917747259136
1772794507059899400,2.3168994140625,0.018014964640140532,0.04342515409812331,-0.07368439102247357
1772794507069944000,2.326944091796875,0.044372810211777684,0.0678828651368618,-0.03402151206731796
1772794507079988200,2.33698828125,0.13449614872932433,0.055930196210369466,0.014109335503727196
1772794507090033400,2.347033447265625,0.23985738838911055,0.049228579679876566,0.015309212812781333
1772794507100078300,2.357078369140625,0.2316957092434168,0.045335079372674225,-0.003844692729413509
1772794507110123300,2.367123291015625,0.15313655179142951,0.020450594289228317,-0.0016701251693069933
1772794507120167200,2.377167236328125,0.05078267725408077,0.009520327213034033,0.00739215607792139
1772794507130212400,2.38721240234375,0.02216390101313591,0.013528539941087365,0.008515022628009319
1772794507140257000,2.397257080078125,-0.02251987484395504,0.01725420940071344,0.019420447523891923
1772794507150301200,2.40730126953125,-0.05692307970523834,0.04816686873249709,0.032835663283616305
1772794507160346400,2.417346435546875,-0.0930927097171545,0.07621200980395078,0.052201019619405264
1772794507170391300,2.427391357421875,-0.11343056434690951,0.12747114546336233,0.08569280872419476
1772794507180435200,2.437435302734375,-0.1010527288109064,0.12147044374383985,0.11615808961465954
1772794507190480100,2.447480224609375,-0.1224549978017807,0.09272599529661238,0.13416034090369938
1772794507200525300,2.457525390625,-0.07510054143071174,0.07005794415362179,0.08226590301543474
1772794507210569200,2.4675693359375,0.0127922615557909,0.0307570303786546,0.09427987367510796
1772794507220614100,2.4776142578125,0.10485036752820015,0.03069865125492215,0.12822729759290813
1772794507230659300,2.487659423828125,0.16425357361137866,0.05404745120368898,0.15878580972477793
1772794507240703200,2.497703125,0.19977789145708083,0.07086231933906674,0.20480258775129914
1772794507250748200,2.507748046875,0.18547113368511198,0.045970089340582485,0.18154782276153564
1772794507260793000,2.51779296875,0.13672142356336117,0.043633243890851735,0.1322770113751292
1772794507270837200,2.527837158203125,0.09901333193778991,0.02454509706124663,0.12875731281638145
1772794507280882200,2.537882080078125,0.07147767475843429,0.031599472552165386,0.09104293758049607
1772794507290927000,2.547927001953125,0.056925417792797084,0.07354622466079891,0.12375760483294725
1772794507300971300,2.55797119140625,0.04099719629883766,0.06103117261119186,0.11179565662145614
1772794507311016400,2.568016357421875,-0.011734861457347869,0.049528804735466836,0.08054010213613509
1772794507321061000,2.57806103515625,-0.058900517258048055,0.011688245836645364,0.06411401412263512
1772794507331105300,2.588105224609375,-0.02387888823747635,0.0037003888878971336,0.040755204236507414
1772794507341150200,2.598150146484375,0.01662087993323803,-0.010964680802449583,0.01626753645092249
1772794507351195400,2.6081953125,0.03809036894142628,0.013198285073414443,0.009951046780496835
1772794507361239300,2.6182392578125,0.03492869004011154,0.008027969763427973,0.009873743760585784
1772794507371284200,2.6282841796875,0.004759761747717857,0.00835011438988149,0.024309388609230518
1772794507381329400,2.638329345703125,-0.011159107396006583,0.011052578281611204,0.003925502880662679
1772794507391373000,2.648373046875,-0.020911855125427245,-0.02982866348735988,0.016180150428414343
1772794507401418200,2.658418212890625,-0.015505612167716025,-0.05059146553091705,0.0029546120218932625
1772794507411463200,2.668463134765625,0.00017477204501628875,-0.06398578463308513,-0.020861147851496932
1772794507421507000,2.678507080078125,-0.008370937982201575,-0.053577495604380965,-0.031172113985568285
1772794507431552300,2.68855224609375,-0.014670914909243583,-0.05135667774975299,-0.04158844019025564
1772794507441597200,2.69859716796875,-0.011712649625539778,-0.04695566631183028,-0.06516133121848106
1772794507451641300,2.708641357421875,-0.025280571728944778,-0.05153378788232803,-0.04552022668123245
1772794507461686000,2.71868603515625,-0.04343757518827915,-0.026221286645159124,-0.02716448577940464
1772794507471731200,2.728731201171875,-0.07588321624100208,0.01969809542149305,0.014948562806844711
1772794507481775400,2.738775390625,-0.05229951155781746,-0.0008670651581138372,0.049833998227119446
1772794507491820300,2.7488203125,0.019835750326514242,-0.018469941866025328,0.0369260013371706
1772794507501865200,2.758865234375,0.09937807359695434,-0.051753641178086396,0.06641016223579645
1772794507511909000,2.7689091796875,0.1542617564290762,-0.04390884596183896,0.08848317009508609
1772794507521954300,2.778954345703125,0.187662506249547,-0.00660918900668621,0.11454583211243152
1772794507531999200,2.788999267578125,0.1806073270410299,0.004665434527769684,0.12927315338402987
1772794507542043100,2.799043212890625,0.16241525226831435,-0.002022445738315582,0.09922609790563583
1772794507552088300,2.80908837890625,0.11532090813815593,-0.038782077532634136,0.056914750268310305
1772794507562133200,2.81913330078125,0.06616553982496261,-0.08239720124490559,0.024705256059020755
1772794507572178200,2.82917822265625,-0.016736030745506284,-0.1029395654708147,0.031203239776194092
1772794507582222300,2.839222412109375,-0.07531213835477829,-0.11944931317977607,0.039962446423619985
1772794507592267300,2.849267333984375,-0.11402034693360329,-0.06727510850206017,0.09708031804859638
1772794507602312400,2.8593125,-0.10429682529866695,-0.011739902958646416,0.13366276664510368
1772794507612356000,2.869356201171875,-0.05654197143316268,0.025313158824294805,0.13333791860491037
1772794507622401300,2.8794013671875,-0.017803952237963674,0.030686668556183575,0.15600450844317673
1772794507632446200,2.8894462890625,0.01065817213654518,0.005351882421970367,0.14754092374145983
1772794507642490000,2.899489990234375,-0.018918050959706306,0.007457476399093866,0.11675605550780892
1772794507652535300,2.909535400390625,-0.04544540787935257,0.010599646882340311,0.061708560416102405
1772794507662580200,2.919580322265625,0.002563128486275673,0.006686711222305894,0.0008310439966619014
1772794507672624400,2.929624267578125,0.06970131273567676,-0.02244973221719265,-0.005506050070375204
1772794507682669000,2.9396689453125,0.16776479660272597,-0.04574154128171503,-0.0001052139401435852
1772794507692714200,2.94971435546875,0.1944768624395132,-0.03701061088070273,-0.017428250793367624
1772794507702758400,2.95975830078125,0.18985738594532012,-0.03551182369031012,-0.0017705168038606642
1772794507712803000,2.969802978515625,0.13034779687821865,-0.02706950097233057,0.008457008830457925
1772794507722848300,2.97984814453125,0.06337737041115761,-0.025696532118692994,-0.029178455950319766
1772794507732892000,2.989891845703125,-0.02254676285088062,-0.06215287011750042,-0.05535013130009174
1772794507742936800,2.999936767578125,-0.08379121288657188,-0.03587853811085224,-0.005419248569756746
1772794507752982000,3.00998193359375,-0.10421791484355926,0.03489719892330467,-0.004186491904407739
1772794507763025700,3.020025634765625,-0.10907938340008258,0.07574614585787058,-0.00003156418204307556
1772794507773070800,3.03007080078125,-0.10025193382203579,0.09335800958983599,-0.009222440245002508
1772794507783115800,3.04011572265625,-0.09081248982548713,0.04558247826248407,-0.026923370499908922
1772794507793160000,3.050159912109375,-0.0748363375365734,0.0066731941536068914,-0.02965644872561097
1772794507803204900,3.060204833984375,-0.02967792990505695,-0.03374137995168566,-0.038741380196064705
1772794507813249800,3.070249755859375,0.05723112274110317,-0.02120009748227894,-0.07798647213056684
1772794507823294000,3.0802939453125,0.1441618026971817,-0.012167115394771099,-0.08769070454314351
1772794507833339000,3.0903388671875,0.18614274933636188,-0.020413842475414275,-0.08513488258048892
1772794507843383800,3.1003837890625,0.1843728170543909,-0.011369608341529966,-0.09296528394520283
1772794507853428000,3.110427978515625,0.17054186010062694,-0.022864596628397703,-0.12365297541469335
1772794507863473000,3.120472900390625,0.12841478298902512,-0.021698402393236754,-0.10686024604588747
1772794507873517800,3.130517822265625,0.05457271718680858,-0.03227203805148601,-0.1369794899776578
1772794507883561700,3.140561767578125,-0.09477379467189312,-0.0470193061325699,-0.06237915315404534
1772794507893607000,3.15060693359375,-0.22687398817539214,-0.03392207028083503,-0.09059270959496497
1772794507903651800,3.16065185546875,-0.11669804171025752,0.03720058049485087,-0.0994230817824602
1772794507913695700,3.17069580078125,0.019977204623818395,0.12992343398630618,0.0750476421996951
1772794507923741000,3.180740966796875,0.08019874135255813,0.1534443025663495,0.21216858647465706
1772794507933785900,3.190785888671875,0.042403555965423584,0.0350769394043833,0.2350955808147788
1772794507943829800,3.200829833984375,0.04582943876087665,-0.06941628524921833,0.1519144626505673
1772794507953875000,3.210875,0.13367664903998375,-0.11399608927518129,0.07401099262833595
1772794507963920000,3.220919921875,0.26718086412250996,-0.1245673868458718,0.09267784530594944
1772794507973965000,3.230965087890625,0.3456131803244352,-0.10404854962602257,0.12295578693076968
1772794507984008700,3.2410087890625,0.34152444970607754,-0.054695539848878975,0.1598258202970028
1772794507994054000,3.251053955078125,0.23548341108858584,-0.021003917323052883,0.1659774747945368
1772794508004098800,3.261098876953125,0.10821312195956706,-0.050340194183588025,0.15132292649820447
1772794508014142700,3.271142822265625,0.04917231944799423,-0.06337474006265402,0.12895064343139528
1772794508024188000,3.28118798828125,0.010042086064815521,-0.03710756844915449,0.10391250215619802
1772794508034232800,3.29123291015625,-0.06909457901418209,-0.010269026688486336,0.09861644157469272
1772794508044277000,3.301277099609375,-0.21623276717364787,0.041226182749122375,0.07262465283647179
1772794508054321700,3.31132177734375,-0.37074762158095836,0.0494077356390655,0.0635055268354714
1772794508064366800,3.321366943359375,-0.3761316527068615,0.06131839205473661,0.03919584596529603
1772794508074411000,3.331410888671875,-0.22745617197751997,0.046194618811458345,0.008946692043542861
1772794508084456000,3.3414560546875,-0.022808044135570523,-0.012091931266710161,-0.003404547746479511
1772794508094500900,3.3515009765625,0.12710662299990652,-0.060802040030434726,-0.01964475779905915
1772794508104544800,3.361544677734375,0.21168927852511404,-0.07882409199848771,-0.046254532305151225
1772794508114590000,3.37158984375,0.22184417731463907,-0.08448438278250396,-0.028150428076833486
1772794508124635000,3.381634765625,0.18204349732398986,-0.07191752748042345,-0.009794979435950518
1772794508134678800,3.3916787109375,0.06649813278019427,-0.05449482964500785,0.03447130166143179
1772794508144724000,3.401723876953125,-0.02749649421274662,-0.027708237267285583,0.05049450796246528
1772794508154769000,3.411768798828125,-0.10943068105578421,-0.017208543628081677,0.052861383224278684
1772794508164812800,3.421812744140625,-0.15622048928141594,-0.0086296619836241,0.04045505224615335
1772794508174857700,3.431857666015625,-0.14537527014017104,0.018013357204943896,0.015637275723367927
1772794508184903000,3.44190283203125,-0.10373042358756064,0.022919176359847186,0.014400135143846273
1772794508194946800,3.45194677734375,-0.06984861225187779,0.047533612330257886,0.021703736155480144
1772794508204991700,3.46199169921875,-0.029521862560510634,0.07783661533109844,0.07080430554151534
1772794508215037000,3.472036865234375,0.022498247534036633,0.022320991270989177,0.05823766943514347
1772794508225081000,3.4820810546875,0.10370879627764225,0.00705569066517055,0.027279636591672894
1772794508235125800,3.492125732421875,0.16323007578253745,-0.022543767176195977,0.007544131769239902
1772794508245171000,3.5021708984375,0.17224048071205614,-0.017637071238458157,-0.016227496701478956
1772794508255214800,3.51221484375,0.15966741486489772,0.03129325614720583,0.0003977671459317207
1772794508265260000,3.522260009765625,0.09028408203721046,0.06709580641239882,0.024198037189245222
1772794508275304700,3.5323046875,0.050399815416336056,0.08184935810379683,0.021426965040713546
1772794508285348900,3.542348876953125,-0.0070101710230112075,0.0996167777236551,0.03244637170508504
1772794508295394000,3.55239404296875,-0.025326748958230016,0.09133300656825304,0.02732347573339939
1772794508305438700,3.562438720703125,-0.022590601992607116,0.07055120756328105,0.026865064441412685
1772794508315483000,3.57248291015625,0.024063012632727622,0.043488793918862935,0.008762713778764008
1772794508325527800,3.58252783203125,0.10177519786655902,0.03635536184236407,0.009886018720269202
1772794508335573000,3.592572998046875,0.16867781979441643,-0.015825272576138378,-0.007195902853459119
1772794508345617000,3.602616943359375,0.16122107404768465,-0.023287352085113525,-0.031045564996451138
1772794508355661800,3.612661865234375,0.059359951463341706,-0.013875965139269829,-0.05742328431233763
1772794508365707000,3.62270703125,-0.04738835864067077,0.0006909048736095428,-0.03731266256719827
1772794508375750700,3.632750732421875,-0.06584931348264217,0.035172508733347055,-0.014830635515600443
1772794508385795800,3.6427958984375,-0.11384265227913856,0.07236987435780465,0.007447101135551929
1772794508395840800,3.6528408203125,-0.23229425965845585,0.01941387165263295,0.08352554768770933
1772794508405885000,3.662885009765625,-0.13920564159452914,0.08513575936332345,-0.12051686934605241
1772794508415929900,3.672929931640625,-0.015309212812781333,0.10251337594799696,-0.04959288294762373
1772794508425974800,3.682974853515625,0.056956981974840164,0.12067607849575579,0.08060206145644187
1772794508436020000,3.69302001953125,0.08507190034687519,0.06502820635810494,0.053761254673451185
1772794508446063900,3.70306396484375,0.1616594654649496,0.030628143301978706,0.006402998910099268
1772794508456108800,3.71310888671875,0.18274200098216534,-0.007164265606179833,-0.008466215050220488
1772794508466154000,3.723154052734375,0.17834347376227377,-0.026537293791770934,0.01854381081983447
1772794508476198000,3.733197998046875,0.11889876662492752,0.01979483379423618,0.014918606059998273
1772794508486242800,3.743242919921875,0.07990531136393547,0.05279693968594074,0.01552110199779272
1772794508496287700,3.753287841796875,0.025200492230057714,0.06509988335482776,-0.0011759119115769862
1772794508506332000,3.763331787109375,-0.005735913303494453,0.04725494151934981,-0.026297785947471855
1772794508516377000,3.773377197265625,-0.03714987322092056,0.03928308585733175,-0.056873103083670135
1772794508526421800,3.783421875,-0.036873978888988496,0.005560045279935002,-0.07728723782002925
1772794508536466000,3.7934658203125,-0.012090835288166998,-0.023395780895650385,-0.0724478349648416
1772794508546510800,3.8035107421875,-0.01670271299779415,-0.022392485604621468,-0.07916019208505749
1772794508556555800,3.8135556640625,-0.0431780474692583,-0.011790171841159462,-0.0577187601275742
1772794508566600000,3.823599853515625,-0.07192015782892704,0.0065284884532913565,-0.013992869517207145
1772794508576644900,3.833644775390625,-0.03626139994859695,-0.006144384506531059,0.010318711049109697
1772794508586690000,3.84368994140625,-0.05775602339804172,0.04325326812993735,0.04593582174479961
1772794508596733700,3.853733642578125,-0.05827332527041435,0.05187010716460645,0.061303486746549604
1772794508606779000,3.86377880859375,-0.020530162331461904,0.04211684797853231,0.05356295562237501
1772794508616823800,3.87382373046875,0.021748890471458435,0.0115554863024503,0.007824263884872198
1772794508626867700,3.88386767578125,0.058873629251122474,-0.01334346569776535,0.02401931962147355
1772794508636913000,3.893912841796875,0.1289770930469036,-0.03430836618468165,0.05330284338146448
1772794508646957800,3.903957763671875,0.15941080975532532,0.013103665592521428,0.05736015594825148
1772794508657002000,3.914001953125,0.1589361779808998,0.055216714178770776,0.05335603487342596
1772794508667047000,3.924046875,0.14967033698558807,0.05194488943386823,0.09281301599293947
1772794508677091800,3.934091796875,0.11487900958955287,0.06644647565819323,0.10191709055528043
1772794508687136000,3.944135986328125,0.09195815272927284,0.05052486656811088,0.058474400800466536
1772794508697180700,3.9541806640625,0.052145782300829883,-0.00621324849165976,-0.0003099427320063114
1772794508707225900,3.964225830078125,0.009146014007925987,-0.05674958630185574,-0.05005319393575191
1772794508717270000,3.97427001953125,0.018459201276302337,-0.04651142967566847,-0.07842004124224186
1772794508727315000,3.98431494140625,0.01688742191493511,-0.033369331768900154,-0.08273571248427034
1772794508737360100,3.994360107421875,-0.00708498982489109,-0.02717442265152931,-0.10570303883478045
1772794508747404000,4.004404052734375,-0.15018880790174008,0.05033336258400231,-0.09226590350419282
1772794508757449200,4.01444921875,-0.32546471078693867,0.08599584679137914,-0.03340264951661229
1772794508767494100,4.024494140625,-0.3604974457234144,0.011914419275335967,-0.05866334750130772
1772794508777538000,4.0345380859375,-0.273531109932065,-0.0440380618320778,-0.07179609305784106
1772794508787583200,4.044583251953125,-0.10861176588833331,-0.06837470377441496,-0.045051732386648655
1772794508797628200,4.054628173828125,0.12397300114929675,-0.0631464111994952,0.005538637165725231
1772794508807672300,4.06467236328125,0.32994214846193787,-0.0728940443623811,0.052125324034690855
1772794508817717000,4.074717041015625,0.4090525100558996,-0.0480109475184232,0.10210399142950773
1772794508827762200,4.08476220703125,0.3897030819416046,-0.02438881052099168,0.07351473354399204
1772794508837806300,4.094806396484375,0.2694341960072517,-0.003698050800338387,0.12573694208189845
1772794508847851000,4.10485107421875,0.18732815972864628,0.005092281637713312,0.17628771027624607
1772794508857896200,4.114896240234375,0.1464835236430168,0.020292042726650833,0.1869064271852374
1772794508867940000,4.124940185546875,0.11394786621928214,-0.0077560940194875,0.24453838581219314
1772794508877985300,4.1349853515625,0.17064181334376335,0.009683993342146277,0.18171075823828578
1772794508888030000,4.145030029296875,0.15485504614710807,0.02660341783054173,0.16181290246099234
1772794508898074000,4.15507421875,0.12589023294746876,0.02087568783350289,0.1376370771035552
1772794508908119300,4.165119384765625,0.049397360375523565,0.027212599237449467,0.03082651541829109
1772794508918164200,4.175164306640625,-0.02696750190258026,0.007646350034698843,-0.01876402944177389
1772794508928209200,4.185209228515625,-0.06666179890930653,-0.00784844847805798,-0.10214622313603758
1772794508938253000,4.195253173828125,-0.033380291554331774,-0.01828435616604984,-0.16010975180491804
1772794508948298200,4.20529833984375,0.05160743764042854,-0.070654814068228,-0.18797288737297058
1772794508958343200,4.21534326171875,0.14014146113991738,-0.09100519938599318,-0.12499196893349289
1772794508968387000,4.225386962890625,0.08142799088656902,-0.10047533078175037,-0.06563099455684424
1772794508978432300,4.235432373046875,0.1458744518339634,-0.02812712026648223,-0.10067994997575878
1772794508988477200,4.245477294921875,0.15961305432915687,0.05075513166002929,0.0326101839646697
1772794508998521000,4.25552099609375,-0.05089139832556248,0.11329795094318687,0.12362842549532652
1772794509008566000,4.26556591796875,-0.23067747211158274,0.12642828534692524,0.14717457464709877
1772794509018611200,4.275611083984375,-0.3365677040815353,0.06385817619804293,0.12352993355691433
1772794509028655000,4.285655029296875,-0.34248189656138417,0.0061087652038782836,0.09140212628170848
1772794509038700000,4.295699951171875,-0.23960136780142782,-0.05022475111037492,0.09676920627281069
1772794509048745200,4.3057451171875,-0.12557634469270706,-0.07392061093114316,0.08497954588830471
1772794509058789400,4.315789306640625,-0.018007950377464294,-0.04644640161544084,0.03086114834025502
1772794509068834000,4.325833984375,0.06387538306117058,-0.0232480429880321,0.012542524578422308
1772794509078879200,4.335879150390625,0.1084293950587511,-0.026583434488438067,-0.002177197908610105
1772794509088923100,4.345923095703125,0.16551614089310168,-0.05428060237243771,-0.0002088204450905323
1772794509098968300,4.35596826171875,0.2260299385666847,-0.09318418739289044,-0.0143031045101583
1772794509109013000,4.366012939453125,0.17657821765542028,-0.0860819541722536,-0.02238075863420963
1772794509119057200,4.37605712890625,0.09430150098502635,-0.0564408126136288,-0.0227916775226593
1772794509129102300,4.386102294921875,0.03629004152119159,-0.04243055357020348,-0.025521540877968072
1772794509139147000,4.39614697265625,-0.01374737032353878,-0.031017179152183234,-0.028547026178985833
1772794509149191200,4.406191162109375,-0.11673662015497684,-0.001717325311899185,0.047928018475323915
1772794509159236000,4.416236083984375,-0.16738368833065032,0.019782156975753605,0.0787498577184975
1772794509169281300,4.42628125,-0.20202420907914637,0.033816454481892286,0.08531272336542606
1772794509179325200,4.4363251953125,-0.15218436563313006,0.039347017939016224,0.08336085864529014
1772794509189370000,4.4463701171875,-0.04935059862434864,0.01632357748709619,0.07534750192910432
1772794509199415300,4.456415283203125,0.05073123932778835,0.002947890020161867,0.10400251852720975
1772794509209459000,4.466458984375,0.13032733861207962,-0.0190942112442106,0.10618906878605484
1772794509219504000,4.476504150390625,0.17643208718299866,-0.0442581343235448,0.09972937125265598
1772794509229549000,4.486549072265625,0.17595219471156595,-0.09943758523184805,0.08282572885528207
1772794509239593200,4.49659326171875,0.13747837941050528,-0.17890161910168825,0.0332858912691474
1772794509249638100,4.50663818359375,0.07661153051555156,-0.16101448209229854,-0.010391484024375676
1772794509259683000,4.51668310546875,0.02789338457584381,-0.10686163428537547,-0.017312807720154522
1772794509269727200,4.526727294921875,0.02739361836016178,-0.026935134002938864,-0.008208148635923862
1772794509279772200,4.536772216796875,-0.020231471645832062,0.026499372934177517,-0.00006035188511013984
1772794509289817000,4.546817138671875,-0.11597031195759773,0.04299260789975524,0.04428834679871797
1772794509299861200,4.556861328125,-0.1777677197009325,0.05544157244320959,0.06683847065046429
1772794509309906200,4.56690625,-0.19471359380483627,0.033895657197944816,0.09422945866212248
1772794509319951000,4.576951171875,-0.15001578942239283,0.028922179634310305,0.07811433629393577
1772794509329995300,4.586995361328125,-0.06615151129961014,0.021614194708503783,0.09525763266608119
1772794509340040200,4.597040283203125,0.08085515943467617,-0.02612695942521095,0.09201353617832064
1772794509350085400,4.60708544921875,0.15662907008230686,-0.04339976392854005,0.09693637953326105
1772794509360130000,4.617130126953125,0.13051672370433806,-0.04089318793509155,0.0856282190553844
1772794509370174200,4.62717431640625,0.20015724616348743,-0.01827726883813739,-0.032025515944510696
1772794509380219100,4.63721923828125,0.16413666923344133,-0.004502535583637655,-0.0008875964894890784
1772794509390263000,4.647262939453125,0.08011164759099483,0.017784955276548862,0.05080737330392003
1772794509400308200,4.65730810546875,-0.006378887382149696,0.04368548553474247,-0.0062232584290206425
1772794509410353200,4.667353271484375,-0.07114391275942325,0.029937530689314006,-0.039789281813800335
1772794509420398300,4.6773984375,-0.10403437497019767,-0.0127753834862262,-0.052892655145376916
1772794509430442000,4.68744189453125,-0.02963350624144077,-0.030094146023131905,-0.08617080149948596
1772794509440487200,4.697487060546875,0.01575987918972969,-0.034755890756472944,-0.10218743192926048
1772794509450532000,4.707531982421875,0.04480652545392513,-0.026299356850050387,-0.10243366177529097
1772794509460576000,4.717575927734375,0.07163257305920123,-0.018358334717713296,-0.04583966789394617
1772794509470621200,4.72762109375,0.11383914514780044,0.04775379441957921,-0.06521700692847371
1772794509480666000,4.737666015625,0.20080255832970142,0.12255608355607837,-0.07851034987419843
1772794509490710300,4.747710205078125,0.19765490795373916,0.11333605446387082,0.02289440724477172
1772794509500755000,4.7577548828125,0.11872808623313903,0.053066404277086254,0.03393003439158201
1772794509510800100,4.767800048828125,0.09877250891923904,0.026622305194102226,-0.028261487235873937
1772794509520844300,4.77784423828125,0.05238952792882919,-0.058344710006192325,-0.04715323471054435
1772794509530889200,4.78788916015625,0.005704933643341064,-0.07694145658966153,-0.04161532819718122
1772794509540934100,4.79793408203125,-0.04310907388627529,-0.08033040490821003,0.008799684788286686
1772794509550978300,4.807978271484375,-0.04986380884349346,-0.057102199131809174,0.03197042475640774
1772794509561023200,4.818023193359375,0.005833528459072113,-0.04516838103625923,0.017137158892303703
1772794509571068200,4.828068115234375,0.0446335069745779,-0.07632105966899544,0.03987622944489121
1772794509581112000,4.838112060546875,0.04241816901266575,-0.09472750784475356,0.005911708261817693
1772794509591157200,4.8481572265625,0.0199421333104372,-0.09209851104803383,0.000869622441381216
1772794509601202200,4.8582021484375,-0.011222235760092734,-0.07684789655469358,0.020138532665371894
1772794509611246000,4.86824609375,-0.017675941944122312,-0.049193691029585894,0.037916473679244514
1772794509621291300,4.878291259765625,0.0015840543210506439,-0.030184856513887644,0.033278584745526314
1772794509631336200,4.888336181640625,0.025710195317864417,-0.021720687290281055,0.010286854606121778
1772794509641380000,4.898380126953125,0.06083586923480033,-0.022915194304473696,-0.005842880809307098
1772794509651425000,4.908425048828125,0.10350304457247257,-0.03746142338812351,-0.01256751288920641
1772794509661470200,4.91847021484375,0.10684066456258297,-0.04483491129819304,-0.019553133992850778
1772794509671514400,4.928514404296875,0.0708411304205656,-0.026496559922583398,-0.016918839966505766
1772794509681559000,4.93855908203125,0.05420563744008541,-0.029963468848168848,0.00046162616237998004
1772794509691604200,4.948604248046875,0.024388006803393363,-0.02181179963983595,0.01770078412443399
1772794509701648100,4.958648193359375,0.0013625205248594284,-0.00348879196383059,0.03634732466638088
1772794509711693000,4.968693115234375,-0.035520226192474365,0.021742095404490826,0.04638911847025156
1772794509721738000,4.978738037109375,-0.0890057326644659,0.049287579858116805,0.07201894202828407
1772794509731782100,4.9887822265625,-0.1332429337978363,0.07745192686244845,0.09800941559225321
1772794509741826800,4.998826904296875,-0.09414017294347286,0.04850527037400752,0.07536226110681891
1772794509751871700,5.008871826171875,0.013414777368307113,0.0059664341237396,0.046396717254817484
1772794509761916000,5.018916015625,0.08976678016483783,-0.026567031342908737,0.014941110152751206
1772794509771961000,5.028961181640625,0.08093523893356323,-0.04688884815331548,0.023232553157955405
1772794509782005800,5.039005859375,0.06381459278464317,-0.03846022516712546,0.030412235528975724
1772794509792051000,5.049051025390625,0.017841946160793303,0.001469561095908284,0.011500029788166284
1772794509802094800,5.0590947265625,-0.028106150543689725,0.024830453341268002,0.03974748849868774
1772794509812139800,5.069139892578125,-0.03170329825282096,0.03103884299471974,0.05302446483150124
1772794509822184700,5.079184814453125,-0.04959142164289951,0.05143401730228215,0.05949482988938689
1772794509832228900,5.089228759765625,-0.07156476851999759,0.04666720475926995,0.03147431180253625
1772794509842274000,5.099274169921875,-0.10600421373844146,0.058538734740950164,0.013338789522647857
1772794509852318700,5.109318603515625,-0.08516542384922504,0.043136436817236244,-0.008113456089794635
1772794509862363000,5.11936279296875,0.0026209961533546445,0.029450368226878344,0.0048550388157367706
1772794509872407800,5.12940771484375,0.11756313410699366,0.020487199972569942,-0.009910276378691196
1772794509882453000,5.139452880859375,0.2424035657405853,0.01616736401207745,-0.027104426155239343
1772794509892497000,5.149496826171875,0.2516150462001562,-0.02158785469084978,-0.025357874748855827
1772794509902541800,5.159541748046875,0.17950316519141196,-0.015005444093234836,-0.03752703597024083
1772794509912587000,5.1695869140625,0.04473579830527305,0.01689436311237514,-0.057273354447633026
1772794509922631000,5.179630859375,-0.0391828403532505,0.05479311847183853,-0.05572217948287725
1772794509932675800,5.18967578125,-0.07591770303249358,0.03993318379651755,-0.02783741660490632
1772794509942720800,5.199720703125,-0.05055062206387519,0.025700514174066484,0.0011646598652005195
1772794509952764700,5.2097646484375,-0.014241291320323942,0.034523360642232,0.05629764128327369
1772794509962809900,5.219809814453125,0.008048866420984268,0.03307049495279789,0.05403422639593482
1772794509972854800,5.229854736328125,-0.014211480703949928,0.03820844236314296,0.0664395344607532
1772794509982899000,5.23989892578125,0.0320545959085226,0.027085794520005584,0.08533917298093438
1772794509992943900,5.24994384765625,0.03336100233197212,0.025342275320924815,0.08644742648378013
1772794510002988800,5.25998876953125,0.024421909072995185,-0.01757924010399729,0.07192527239546179
1772794510013033000,5.270032958984375,0.010713701716065406,-0.02180646587759256,0.04829261400401592
1772794510023078000,5.280077880859375,0.00265256033539772,-0.03955594798196107,-0.005556757344305515
1772794510033122800,5.290122802734375,0.00904606076478958,0.004023629492893815,-0.011562281369417905
1772794510043167000,5.3001669921875,-0.0029658640682697296,0.00591364449057728,0.034151422057300804
1772794510053212000,5.3102119140625,-0.00018120178580284117,-0.001153517416678369,0.061210401635617015
1772794510063257000,5.320257080078125,0.006771686092019081,-0.023354389439336955,0.09336568143963814
1772794510073300700,5.33030078125,0.004016834425926208,-0.05043243904430419,0.09246931712180376
1772794510083346000,5.340345947265625,0.031020576685667035,-0.021645868488401172,0.014394728316366671
1772794510093390800,5.350390869140625,0.12570786211788654,-0.01641202295552939,0.006238017606735229
1772794510103434800,5.360434814453125,0.2021668324202299,0.009860847746394574,0.013369769182801246
1772794510113480000,5.37047998046875,0.2115431480526924,0.03006002455782145,0.004016542164981365
1772794510123524900,5.38052490234375,0.13686170881688595,0.015195121446438134,-0.0015660802729427813
1772794510133570000,5.390570068359375,0.014306173250079154,0.01579579075332731,0.00532996285110712
1772794510143613700,5.40061376953125,-0.02639759306013584,0.02205616632234305,0.011309914043545722
1772794510153659000,5.410658935546875,0.005005845463275909,-0.008591960321739315,0.05374591097384691
1772794510163703800,5.420703857421875,0.04109948762953281,-0.05078775528799742,0.07479220613390207
1772794510173747700,5.430747802734375,0.09844926831424236,-0.07506758900918066,0.07675283868238329
1772794510183793000,5.44079296875,0.11990531331896781,-0.11633056010473519,0.06726473323851824
1772794510193837800,5.450837890625,0.07222118660211563,-0.12402633877173065,0.06103796767815947
1772794510203882000,5.460882080078125,0.049018590191006656,-0.0795153621982783,0.048463732787221665
1772794510213927000,5.470927001953125,-0.037484219741821284,-0.03765095461085439,0.10645458785444498
1772794510223971800,5.480971923828125,-0.14576806885004043,0.004119746811129152,0.16892653385847806
1772794510234016000,5.49101611328125,-0.23964228433370588,0.004351509740389883,0.07081497306600212
1772794510244060700,5.501060791015625,-0.2522042442649603,-0.015213753081671893,0.011385901889204979
1772794510254105900,5.51110595703125,-0.18079495856761932,-0.05007255622334778,-0.040326749691367146
1772794510264150000,5.52114990234375,-0.032472529059648515,-0.047187648436799644,-0.08802315136790274
1772794510274195000,5.53119482421875,0.1044423712491989,-0.02627608557231724,-0.11138722195103763
1772794510284240000,5.541239990234375,0.18111176943182944,-0.03512954637445509,-0.12858926277309654
1772794510294283800,5.55128369140625,0.1494862125903368,-0.03911583953164518,-0.12377733244672418
1772794510304329000,5.561328857421875,0.0989268226981163,-0.04468041485622525,-0.1346168524995446
1772794510314374000,5.571373779296875,0.04195990385115146,-0.025090309853851793,-0.10473770093396305
1772794510324417800,5.581417724609375,0.05742752209603786,-0.014016433055885135,-0.04840732642486691
1772794510334463000,5.591462890625,0.08714169235825538,0.002849873005785048,-0.013942746765166521
1772794510344508000,5.6015078125,0.06508358980715274,0.02644621797483414,0.05223623706325888
1772794510354551800,5.6115517578125,0.060904258295893667,0.021322518285550176,0.04915346861705184
1772794510364596700,5.6215966796875,0.023742694637179373,-0.00617065145894885,0.10182488222718238
1772794510374642000,5.631641845703125,0.015640052202343938,-0.05779902228955179,0.10550649334937333
1772794510384685800,5.641685791015625,0.04706687160134315,-0.04304254798870533,0.06655994597002864
1772794510394730800,5.651730712890625,0.08799977049231529,-0.05160148282367736,0.05724705096259713
1772794510404776000,5.66177587890625,0.10934066468477248,-0.05385156330540776,0.05819207672774791
1772794510414819800,5.67181982421875,0.06461714133918285,-0.05982439063731581,0.043279900408536194
1772794510424864800,5.68186474609375,-0.014362871873378752,-0.022947452606260774,0.05487330756857991
1772794510434909700,5.69190966796875,-0.11927286063432693,0.00823061619605869,0.0564934561163187
1772794510444953900,5.701953857421875,-0.17155191392600536,0.02693093275185674,0.045147155585139986
1772794510454999000,5.7119990234375,-0.1513596052467823,0.04105678099896758,0.028516923301666972
1772794510465043700,5.722043701171875,-0.08472352530062198,0.03091192867942154,0.020447452484071253
1772794510475088000,5.732087890625,-0.018823358413577077,0.026643384514749048,0.02223316685706377
1772794510485133000,5.742133056640625,0.05204875166714191,0.014100275414437055,0.04298953915983438
1772794510495177700,5.752177734375,0.11098960093557834,-0.009701346335746347,0.017450024233758448
1772794510505223000,5.762222900390625,0.14557985280156135,-0.008170885365456342,-0.004792494973540306
1772794510515266800,5.772266845703125,0.13982581931948662,-0.023571173995174464,0.0037388942673802373
1772794510525312000,5.78231201171875,0.0820738875746727,-0.009761004101112485,0.03562134847939014
1772794510535356000,5.79235595703125,-0.00860474673807621,-0.018245704656094312,0.04411562058031559
1772794510545400800,5.80240087890625,-0.02596095520853996,0.033514658523723484,0.013533873703330755
1772794510555446000,5.812446044921875,0.023203180932998654,0.04686243507042527,-0.0042423137448728086
1772794510565491000,5.822490966796875,0.08061725902557372,0.03842226777691394,-0.005853548333793878
1772794510575534800,5.832534912109375,0.0971446154564619,0.0398984047440812,-0.04653013437613845
1772794510585579800,5.842579833984375,0.0729582687050104,0.020769962436705827,-0.058067865826189516
1772794510595625000,5.852625,0.001373041918873787,0.01701682044826448,-0.04697524779513478
1772794510605668900,5.8626689453125,-0.09037117579877375,0.034058738805167375,-0.018531681990623473
1772794510615713800,5.8727138671875,-0.12695230922102926,0.06290303089767695,0.05176087463647127
1772794510625759000,5.882759033203125,-0.13120119883716105,0.05370769785530865,0.08363441488966346
1772794510635802600,5.892802734375,-0.03834697405099868,0.05692647723872214,0.06565437543243169
1772794510645847800,5.902847900390625,0.04106558535993099,0.02217964657153934,0.05544336254149675
1772794510655892700,5.912892822265625,0.13726035274565218,0.009510828732326625,0.05781666754409671
1772794510665937000,5.92293701171875,0.18064064478874206,0.03071490826997906,0.06720277391821146
1772794510675981800,5.93298193359375,0.16316168672144413,0.029947869420237836,0.06960048270970583
1772794510686026800,5.94302685546875,0.16445990983843803,0.007507818346843123,0.048897740290313955
1772794510696071000,5.95307080078125,0.10540449427962302,-0.007369651985168457,0.05399097177609801
1772794510706115800,5.96311572265625,0.042811552244424816,-0.035508974146097896,0.04553995429500937
1772794510716160800,5.973160888671875,0.06751344730257988,-0.013046309382095932,0.047733664947003124
1772794510726205000,5.983204833984375,0.08369768938422202,-0.005187156846933066,0.06799275525212288
1772794510736250000,5.99325,0.11312135226726532,0.011777385424822567,0.0939770913362503
1772794510746295300,6.00329541015625,0.11504968998134135,0.0568073443710804,0.1084989531636238
1772794510756339200,6.013339111328125,-0.015175941821932791,-0.02197893636766821,0.06466375695988535
1772794510766384400,6.02338427734375,-0.11795008759796619,-0.05691259484384208,0.05938873916640877
1772794510776429000,6.033428955078125,-0.16210487114489078,-0.060313964252546426,0.06270575475990772
1772794510786473200,6.04347314453125,-0.12848726370334623,-0.03285937295276672,0.09697978028357028
1772794510796518400,6.053518310546875,-0.041649522727727886,-0.01794014583826065,0.12030585694387555
1772794510806563300,6.063563232421875,0.06066928049623966,-0.05118449952062219,0.08075067614689468
1772794510816607200,6.073607177734375,0.08047814281582832,-0.013575484355352819,0.09557663548737763
1772794510826652400,6.08365234375,0.0691764120787382,-0.008294657875597477,0.10093626282438635
1772794510836697300,6.093697265625,0.06694879915714264,0.01634348776396364,0.12009513680264353
1772794510846741200,6.1037412109375,0.04886895258724689,0.025525011476688085,0.10183291940316558
1772794510856786200,6.1137861328125,-0.020150223103165624,0.0009144114311784505,0.059191024637222284
1772794510866831400,6.123831298828125,-0.05159340911507606,-0.004048362075351178,0.024023557405173777
1772794510876875300,6.133875244140625,-0.0325035087198019,-0.016188662528432905,-0.004130085542052984
1772794510886920200,6.143920166015625,0.03484685697555542,0.0229435801487416,-0.02130304640009999
1772794510896965400,6.15396533203125,0.06858195331692696,0.05619622673541307,-0.005400397738814354
1772794510907009300,6.16400927734375,0.06313830095827579,0.043455220442824065,-0.017358400427550075
1772794510917054200,6.17405419921875,0.08044540959000587,0.0451439041821286,-0.07152677459716797
1772794510927099100,6.18409912109375,0.06975859588086605,0.021083193104341626,-0.09559314823076129
1772794510937143300,6.194143310546875,0.0450689757823944,-0.009569098258204758,-0.07812821868881582
1772794510947188500,6.2041884765625,0.07821604310274123,0.0027624869832769037,-0.057607262577116486
1772794510957233200,6.214233154296875,0.08051087604165076,0.00782177966684103,-0.06283902575075626
1772794510967277300,6.22427734375,0.014705401700735091,0.08180544589683413,-0.052977703080326316
1772794510977322200,6.234322265625,-0.04497252967059612,0.10223112494051456,-0.0012901859410107135
1772794510987367400,6.244367431640625,-0.09429214863479136,0.050609841437824064,0.04505129399523139
1772794510997411300,6.254411376953125,-0.08057751153707504,0.008489888186752797,0.03944017611518502
1772794511007456300,6.264456298828125,-0.03347206149101257,0.00819167242515832,0.0682730334982276
1772794511017501400,6.27450146484375,-0.007604045262932777,0.023355996874533592,0.06790536922961474
1772794511027545000,6.284545166015625,0.015892565658688546,0.015678557581827044,0.08717588688880204
1772794511037590300,6.29459033203125,0.024009821140766142,0.022629216969944535,0.09597630232945084
1772794511047635200,6.30463525390625,0.04287877226173877,0.05902958699781447,0.10251461805701255
1772794511057680400,6.314680419921875,0.07180266892910003,0.040944589328765865,0.07992913063094019
1772794511067724300,6.324724365234375,0.07837152592539787,-0.004682312597334384,0.02544336107522249
1772794511077769200,6.334769287109375,0.07694879964590072,-0.04908084177225828,-0.02308642268553376
1772794511087814400,6.344814453125,0.03304302242398262,-0.05955664307922125,-0.08545914609879254
1772794511097858300,6.3548583984375,-0.016123451805114746,-0.03118997843582183,-0.08971431932523846
1772794511107903200,6.3649033203125,-0.03136602912247181,-0.026304690612293777,-0.10248583035394548
1772794511117948400,6.374948486328125,-0.01025426751077175,0.014261530390754342,-0.1231922260351479
1772794511127992300,6.384992431640625,0.05291852023899555,0.02727028424143791,-0.10150997105911373
1772794511138037200,6.395037353515625,0.0734293933480978,0.023525581287778912,-0.0714013946518302
1772794511148082200,6.405082275390625,0.05384732552170753,0.001681998270191252,-0.07577347225621342
1772794511158126300,6.415126220703125,0.028773090019822117,-0.04102762796971947,-0.07765913987234234
1772794511168171300,6.425171142578125,0.045240825217962265,-0.06147372874692082,-0.04963803726360202
1772794511178216200,6.43521630859375,0.06914718598425387,-0.05948726763743907,-0.028018326129764317
1772794511188260400,6.44526025390625,0.09770692551434039,-0.042442755464650685,0.007054448556154966
1772794511198305300,6.45530517578125,0.10510989524722099,-0.01544069370534271,0.052542818794399496
1772794511208350200,6.46535009765625,0.0928746830523014,0.03313702085036784,0.09560659223422407
1772794511218394400,6.475394287109375,0.04898351887762546,0.011953143850527703,0.1058336794771254
1772794511228439300,6.485439208984375,-0.019196867901086805,-0.005850041202455759,0.09967501071691512
1772794511238484500,6.495484375,-0.019421908828616143,-0.012974376657046377,0.12145561150088906
1772794511248528100,6.505528076171875,-0.030921207964420317,-0.081460906775482,0.07875365711078047
1772794511258573300,6.5155732421875,-0.05021978267431259,-0.07143551611714065,0.04733019871264696
1772794511268618200,6.5256181640625,-0.009244798207283019,-0.06693290746826679,0.04384615598917007
1772794511278662100,6.535662109375,0.017189619731903076,-0.03550977786369622,0.032466683840751645
1772794511288707300,6.545707275390625,0.06925123088061809,-0.04052501220982521,0.024266572380810973
1772794511298752300,6.555752197265625,0.04280453798174858,-0.06485379963926971,0.030382717173546552
1772794511308796200,6.565796142578125,-0.02909106992781162,-0.03646371758766472,0.017734832524508238
1772794511318841300,6.57584130859375,-0.09194587776958942,-0.020292992574721575,0.04725508764982223
1772794511328886300,6.58588623046875,-0.1337082132220268,-0.013803703620657325,0.052991000953316686
1772794511338930400,6.595930419921875,-0.10190729981362819,-0.01817015520185232,0.026860680527240038
1772794511348975000,6.60597509765625,-0.03917757965624332,-0.04153744065538049,0.017013094121217726
1772794511359020300,6.616020263671875,0.018155834415555,-0.03763447840008884,0.04705298920646309
1772794511369064400,6.626064453125,-0.017153379374742508,-0.08569606012720614,0.12270590382292866
1772794511379109400,6.636109375,0.015011691170930862,-0.08764821710828691,-0.020487784494459628
1772794511389154300,6.646154296875,0.14023030846714973,-0.042011012983880935,-0.01198182195574045
1772794511399198200,6.6561982421875,0.16995324655771255,0.04167104043979197,0.08039002614095807
1772794511409243400,6.666243408203125,0.17268354830443858,0.09607274844124912,-0.008354717499762772
1772794511419288300,6.676288330078125,0.08845335947871208,0.0628049042854458,0.008004881148785352
1772794511429332200,6.686332275390625,0.025979659909009932,0.09298555954825133,-0.03175868170186877
1772794511439377400,6.69637744140625,-0.018481413108110425,0.048735316270217294,-0.059207829641550774
1772794511449422300,6.70642236328125,-0.030351883643865582,0.03864789322633296,-0.03757555128708481
1772794511459466200,6.71646630859375,0.016325696378946302,0.019253822252713142,-0.04464388223811984
1772794511469511200,6.72651123046875,0.07712883238792419,0.01194043049942702,-0.06790770731717348
1772794511479556400,6.736556396484375,0.12168518247306347,0.009794139185734093,-0.04461217192560434
1772794511489600300,6.746600341796875,0.10544307272434233,0.014135967782326042,-0.03601137071028351
1772794511499645200,6.756645263671875,0.08812485817670822,-0.01590009137801826,-0.04884045714512467
1772794511509690400,6.7666904296875,0.0657867696404457,-0.027996918015554546,-0.08744111369624734
1772794511519734300,6.776734375,0.025997780087590214,-0.046309075503982604,-0.06554156270772218
1772794511529779200,6.786779296875,0.05215513465106487,-0.0458654964549467,-0.07464096109494567
1772794511539824000,6.79682421875,0.06802724204361438,-0.0006684738460928201,-0.057833910939842456
1772794511549868300,6.806868408203125,0.09275602510869503,-0.007715652411244809,-0.0013163432955741882
1772794511559913500,6.81691357421875,0.09366554116904735,-0.01553798006735742,0.03123480395823717
1772794511569958100,6.826958251953125,0.09873626856207847,-0.03365439578797668,0.02110591639280319
1772794511580002300,6.837002197265625,0.027149288210272786,-0.029381540774367748,0.03185410490036011
1772794511590047200,6.847047119140625,-0.08838672398328781,0.00042925826273858546,0.04011266854926943
1772794511600092200,6.857092041015625,-0.1638736343830824,0.02661781168207526,0.019168372458964585
1772794511610136300,6.86713623046875,-0.15136311237812042,0.051557570616714656,0.057187137468904255
1772794511620181200,6.87718115234375,-0.09676935240328312,0.00419858420100063,0.030409166789054868
1772794511630226400,6.887226318359375,-0.06450432861447333,-0.04378193164654076,0.03573912964016199
1772794511640270300,6.897270263671875,0.024365794971585274,-0.05557787564136087,0.02185498119443655
1772794511650315300,6.907315185546875,0.04422083452045917,-0.05089070420581847,0.037292350431531666
1772794511660360400,6.9173603515625,0.034686697977781296,-0.06896371917612851,0.1134277878679335
1772794511670404000,6.927404052734375,0.11180383992791175,-0.007858933339454232,0.05581409555003047
1772794511680449300,6.93744921875,0.18227438347041605,0.0608032456068322,0.051118631210178136
1772794511690494200,6.947494140625,0.15846856046915053,0.05618369604740291,0.20715616514012217
1772794511700539400,6.957539306640625,0.08698620953559875,0.01745678276810795,0.14275792724862693
1772794511710583300,6.967583251953125,0.03706862467825413,-0.015042634298466145,0.0703435561619699
1772794511720628200,6.977628173828125,-0.020486323189735412,-0.019316366094909606,0.051362815229594704
1772794511730673400,6.98767333984375,-0.07977437846064567,-0.0012673895873129366,0.02088584390133619
1772794511740717000,6.997717041015625,-0.09182254365086555,0.03053940557260066,-0.00725011725872755
1772794511750761700,7.00776171875,-0.08521861534118652,0.04291844668500125,0.01539236105158925
1772794511760807000,7.017806884765625,-0.050524903100728984,0.06013616000022739,0.0293643339112401
1772794511770850800,7.027850830078125,-0.0033808746099472046,0.049344461144506926,0.01311973994448781
1772794511780896000,7.03789599609375,0.007148118188977241,0.03983578783664852,-0.0031698622077703472
1772794511790940700,7.047940673828125,0.017675941944122312,0.014765424792282282,0.016713818913698195
1772794511800984800,7.05798486328125,0.05251578465700149,0.009575856792554259,-0.0028403379924595356
1772794511811030000,7.068030029296875,0.11757950071990489,-0.012053498952463269,-0.03889043327793479
1772794511821075000,7.078074951171875,0.15486965919435022,-0.025085999004915354,0.019254297176748512
1772794511831118800,7.088118896484375,0.14767477925419806,-0.06698938689585775,0.016785568975657222
1772794511841163800,7.098163818359375,0.12320961556136607,-0.02185172979142517,0.02909370027631521
1772794511851209000,7.108208984375,0.07475859612524509,0.021620295655727387,0.10249006813764572
1772794511861252900,7.1182529296875,-0.008327098840475082,0.017373196137882768,0.1236081133596599
1772794511871297800,7.1282978515625,-0.10834639295041561,0.0014332111408933996,0.15095102444589137
1772794511881343000,7.138343017578125,-0.13845511548817158,0.002749006447196007,0.031035628124326465
1772794511891386600,7.14838671875,-0.07213058570921421,0.015867869608849287,0.011013123054057359
1772794511901431800,7.158431884765625,-0.026423896545171736,-0.020218210305459797,0.050917263419181104
1772794511911476700,7.168476806640625,0.04595861809849739,-0.02477649466432631,0.006969108360260725
1772794511921521000,7.17852099609375,0.0983253496736288,-0.01314100192822516,-0.011241817243397236
1772794511931565800,7.18856591796875,0.10856208152770995,-0.015157237121462821,0.011634762083739042
1772794511941610800,7.19861083984375,0.09618892216682433,0.013014599069580435,0.011480302174389362
1772794511951655000,7.208655029296875,0.006176642808318138,0.05444068830497563,0.008559007900208235
1772794511961699800,7.218699951171875,-0.027904490491747855,0.03575155073031783,0.018500848460942507
1772794511971744800,7.228744873046875,-0.011876315754652023,0.019953787215612827,0.008903291293233632
1772794511981789000,7.238788818359375,0.07295943774878978,0.0016638415589928625,0.0169292152300477
1772794511991833900,7.248833740234375,0.13911854783296584,-0.02051080004386604,0.01845949353724718
1772794512001879000,7.258879150390625,0.16109598636329173,-0.023580562878027556,0.0020899580165743828
1772794512011923000,7.2689228515625,0.13413959037661552,-0.016840404435433446,0.018447218577563762
1772794512021968000,7.2789677734375,0.07731646391451358,0.0019474442733451722,0.013575374757498503
1772794512032013000,7.289012939453125,0.009662146836519241,0.017786562711745498,0.013969342511147259
1772794512042056700,7.299056640625,-0.024713000974059103,0.0028764687517657873,-0.008198065633326769
1772794512052102000,7.309101806640625,-0.04420329886376857,-0.025355427063442765,-0.030983021154254674
1772794512062146800,7.319146728515625,-0.018191490250825882,-0.025366277251020072,-0.06541676728427409
1772794512072190700,7.329190673828125,0.0045949265748262405,-0.03853128110934049,-0.06469751309901475
1772794512082236000,7.33923583984375,-0.016827800682187078,-0.012034319327957928,-0.06319266149401664
1772794512092280800,7.34928076171875,-0.02342822186052799,0.0482188911806792,-0.05266615291312337
1772794512102325000,7.359324951171875,-0.04201601795256137,0.054648412771523,-0.034237054514139886
1772794512112369700,7.36936962890625,-0.054524786391854284,0.04936378689948469,-0.05508154349178075
1772794512122414800,7.379414794921875,-0.11240531295239925,0.041605427857674654,-0.013887655577063559
1772794512132459000,7.389458984375,-0.11980769816339015,-0.0010118439236655832,-0.02493731124922633
1772794512142504000,7.39950390625,-0.08416764498353003,-0.026826851322874424,-0.03924143867269158
1772794512152548900,7.409548828125,0.014369301614165305,-0.02743621539287269,-0.02789966818615794
1772794512162592800,7.4195927734375,0.06888298209011555,-0.03079506083410233,0.03459843517243862
1772794512172638000,7.429637939453125,0.0799824682533741,-0.007626658953540027,0.05981003331840038
1772794512182683000,7.439682861328125,0.07101473342180252,0.02869505634754896,0.0671105655901134
1772794512192726800,7.449726806640625,0.06086100367605686,0.01854180152583867,0.05775163948386907
1772794512202772000,7.45977197265625,0.03521042959094047,0.03372899539414793,0.05034487035870552
1772794512212817000,7.46981689453125,0.05893266596198082,0.029610161898471415,0.010946925950050354
1772794512222860800,7.47986083984375,0.10372925454378128,0.02316460248827934,-0.019624299532920123
1772794512232906000,7.489906005859375,0.11926175471842289,0.020668365225754676,-0.031026714165508746
1772794512242951000,7.499950927734375,0.12979425464868544,0.0105435327809304,-0.010279548082500695
1772794512252994800,7.509994873046875,0.0865612621217966,0.00604366407841444,-0.021173428671061992
1772794512263039700,7.520039794921875,0.053043607923388476,-0.022432781082391738,-0.04771759059503674
1772794512273085000,7.5300849609375,0.06597381664514541,-0.03658931672871112,-0.04721256368234753
1772794512283129000,7.540129150390625,0.1103641625136137,-0.015796375275216996,-0.0006314297713339328
1772794512293173800,7.550173828125,0.10988602360785008,0.004655643786117434,0.025292992819100617
1772794512303219000,7.560218994140625,0.11833236491382121,0.007943835143931209,0.04052008030638098
1772794512313262800,7.570262939453125,0.05459200640916824,0.002954283228330314,0.05409121728017926
1772794512323307800,7.580307861328125,-0.0631336247831583,-0.007417692377977072,0.0684141955345869
1772794512333352700,7.590352783203125,-0.11576923642754554,-0.016397263777814804,0.046615036180615424
1772794512343396900,7.60039697265625,-0.18079846569895744,-0.06138630619179457,0.07266600776016711
1772794512353442000,7.610442138671875,-0.09175532363355159,-0.02799242450352758,-0.03568228488638997
1772794512363486700,7.62048681640625,0.026519758135080337,0.033218305925652385,-0.08879925030693411
1772794512373532000,7.630531982421875,0.0364162982493639,-0.018737506761029362,0.07327259535118937
1772794512383575800,7.640575927734375,0.028519992041587828,0.028426943463273346,0.02212050026282668
1772794512393621000,7.65062109375,-0.06318915436267852,0.03350822878293693,-0.018586773178726434
1772794512403665700,7.660665771484375,-0.13826339230835438,0.010850735566578805,0.0600849047370255
1772794512413709800,7.670709716796875,-0.09923486573398113,0.01367028649933636,0.06452595592439174
1772794512423755000,7.680755126953125,-0.014512509477138518,-0.020984299307130277,0.06993497536107897
1772794512433799700,7.690799560546875,0.08187105847895144,-0.03418466673977673,0.05688318608626723
1772794512443843800,7.70084375,0.15440437977015972,-0.05451978142317384,0.07590455128997564
1772794512453888800,7.710888671875,0.18487199874818325,-0.03180051154959947,0.11304521829113363
1772794512463934000,7.720933837890625,0.1427548585087061,-0.0013544833488762379,0.17314970451146364
1772794512473977900,7.730977783203125,0.02941840218603611,-0.03041957858521491,0.14446750764548777
1772794512484022800,7.741022705078125,0.010081249031424521,0.021259791780263184,0.0017434826664626598
1772794512494068000,7.75106787109375,0.019781974312663077,0.07333272804059088,0.012818711171299218
1772794512504111900,7.76111181640625,0.03919920696616173,0.0341413025220856,0.0384543799482286
1772794512514156800,7.77115673828125,0.04408405639827251,-0.0019464213600382209,0.01360182437300682
1772794512524202000,7.781201904296875,0.0749585026115179,0.006406907900236547,-0.02639408592879772
1772794512534246000,7.791245849609375,0.08254559673964977,-0.014028963743895291,-0.08639277368709444
1772794512544290800,7.801290771484375,0.03531915066242218,-0.010743621930293738,-0.09884265154600143
1772794512554335700,7.811335693359375,0.009321955096721648,0.010563625720888375,-0.10300620096623897
1772794512564380000,7.8213798828125,0.042941900625824925,0.0424604007191956,-0.08920476236790419
1772794512574424800,7.8314248046875,0.12328911053836344,0.009349208429828285,-0.08828326360881328
1772794512584469800,7.8414697265625,0.14576280815303325,-0.005876636948436498,-0.055349400647729634
1772794512594514000,7.851513916015625,0.12770283532738685,-0.01648695135526359,0.0031705928601324556
1772794512604558800,7.861558837890625,0.056769934970140455,-0.03277607858348638,-0.0026627894684672355
1772794512614603800,7.871603759765625,0.02460954059958458,-0.08957308422364293,0.04773556464314461
1772794512624648000,7.88164794921875,0.03606909224689007,-0.06798800601176917,0.1293226916141808
1772794512634692900,7.89169287109375,0.14296470186710356,-0.036460429652035234,0.05104381240829825
1772794512644738000,7.901738037109375,0.24995851116478443,-0.024192520763911304,0.12724179368689656
1772794512654781700,7.91178173828125,0.22291677498221396,-0.09435096614994108,0.1750740967027843
1772794512664827000,7.921826904296875,0.18319149831533432,-0.04550923036318272,0.07895137163996696
1772794512674871800,7.931871826171875,0.04255260904729366,-0.05420958296284079,-0.022387919027358292
1772794512684915700,7.941915771484375,-0.1950561236321926,0.07597900476567447,-0.16487345907539128
1772794512694961000,7.9519609375,-0.4522860871046781,0.11972254063058643,-0.040522710654884574
1772794512705005800,7.962005859375,-0.5240244586259126,0.09693539315257221,0.0377691741630435
1772794512715049700,7.9720498046875,-0.28216800537407394,0.07637271679099648,-0.11463877109289168
1772794512725095000,7.982094970703125,0.049587914511561394,0.005090820332989097,-0.13551438586115835
