time,seconds_elapsed,z,y,x
1772794504819936800,0.076936767578125,0.35103607177734375,-0.1708473563194275,-0.1366318315267563
1772794504829981700,0.086981689453125,0.3366797864437103,-0.1704038679599762,-0.13383212685585022
1772794504840027000,0.09702685546875,0.3287041485309601,-0.18109433352947235,-0.1130293682217598
1772794504850070800,0.10707080078125,0.3242139518260956,-0.18027068674564362,-0.07111214101314545
1772794504860115700,0.11711572265625,0.3168444335460663,-0.15891826152801514,-0.02810502052307129
1772794504870159600,0.12715966796875,0.3064296543598175,-0.1298864483833313,-0.004081896506249905
1772794504880204800,0.137204833984375,0.3047148287296295,-0.09876874834299088,-0.00042218045564368367
1772794504890249700,0.147249755859375,0.3057505786418915,-0.07092879712581635,-0.01127676572650671
1772794504900294700,0.157294677734375,0.2965991497039795,-0.03725765645503998,-0.027703940868377686
1772794504910338600,0.167338623046875,0.27791017293930054,-0.02078818716108799,-0.03708329051733017
1772794504920383700,0.1773837890625,0.2538546621799469,-0.01903849095106125,-0.036809250712394714
1772794504930428700,0.1874287109375,0.231563538312912,-0.008293106220662594,-0.010852323845028877
1772794504940472800,0.197472900390625,0.21199356019496918,0.01101640984416008,0.023052379488945007
1772794504950517800,0.207517822265625,0.19891099631786346,0.030235745012760162,0.0579700693488121
1772794504960562700,0.217562744140625,0.1876753866672516,0.04655320197343826,0.07505451887845993
1772794504970606800,0.22760693359375,0.18938229978084564,0.04954143613576889,0.08591493219137192
1772794504980651800,0.23765185546875,0.18521977961063385,0.06440906971693039,0.08268025517463684
1772794504990696700,0.24769677734375,0.1692958027124405,0.08223236352205276,0.0756167396903038
1772794505000740900,0.257740966796875,0.15066513419151306,0.0899139866232872,0.05134149268269539
1772794505010785800,0.267785888671875,0.14260318875312805,0.09024251252412796,0.02425779402256012
1772794505020830700,0.277830810546875,0.13795384764671326,0.08702941238880157,0.0025583563838154078
1772794505030874600,0.28787451171875,0.13604895770549774,0.0816258117556572,-0.003496333956718445
1772794505040919800,0.297919921875,0.12735454738140106,0.07880019396543503,0.000002793152816593647
1772794505050964700,0.30796484375,0.1148967444896698,0.07215538620948792,0.006254024803638458
1772794505061008600,0.318008544921875,0.10644839704036713,0.06651747226715088,0.006251627579331398
1772794505071053800,0.3280537109375,0.09417774528265,0.05929488688707352,-0.004998616874217987
1772794505081098800,0.3380986328125,0.09818367660045624,0.04419636353850365,-0.018901381641626358
1772794505091142700,0.348142578125,0.10766419768333435,0.035938482731580734,-0.01555885560810566
1772794505101187600,0.3581875,0.12414170801639557,0.017578914761543274,0.012166248634457588
1772794505111232800,0.368232666015625,0.14822176098823547,-0.0020640799775719643,0.06792861968278885
1772794505121277000,0.37827685546875,0.1676335334777832,-0.006446578074246645,0.1231367439031601
1772794505131321600,0.388321533203125,0.18097634613513947,0.0029466692358255386,0.16726207733154297
1772794505141366800,0.39836669921875,0.19892925024032593,0.02438538148999214,0.19374267756938934
1772794505151411000,0.408410888671875,0.2182505875825882,0.04346882924437523,0.18402113020420074
1772794505161455600,0.41845556640625,0.2378660887479782,0.05122848227620125,0.1566438376903534
1772794505171500800,0.428500732421875,0.2537496089935303,0.04352807626128197,0.12623964250087738
1772794505181544700,0.438544677734375,0.2608748972415924,0.02567397803068161,0.11905016750097275
1772794505191590000,0.44858984375,0.26380711793899536,0.0037193363532423973,0.13762615621089935
1772794505201634600,0.458634521484375,0.26122811436653137,-0.006315721198916435,0.1787184774875641
1772794505211678700,0.4686787109375,0.26372841000556946,-0.005799322389066219,0.22244377434253693
1772794505221724000,0.478723876953125,0.2631518244743347,-0.00832666177302599,0.2422957867383957
1772794505231768800,0.488768798828125,0.2658648192882538,-0.0175991989672184,0.23929059505462646
1772794505241812700,0.498812744140625,0.2649383246898651,-0.025632891803979874,0.2190851867198944
1772794505251857700,0.508857666015625,0.25923630595207214,-0.04206232354044914,0.2034960687160492
1772794505261902800,0.51890283203125,0.2466733753681183,-0.049044329673051834,0.1912977248430252
1772794505271946800,0.52894677734375,0.21996068954467773,-0.06801054626703262,0.19729718565940857
1772794505281991700,0.53899169921875,0.18870076537132263,-0.09694553166627884,0.21531347930431366
1772794505292036900,0.549036865234375,0.15870977938175201,-0.1208152323961258,0.23833608627319336
1772794505302080500,0.55908056640625,0.13518740236759186,-0.10748584568500519,0.25521013140678406
1772794505312125700,0.569125732421875,0.10852517187595367,-0.06912024319171906,0.268588662147522
1772794505322170600,0.579170654296875,0.08616314083337784,-0.0460980162024498,0.2672989070415497
1772794505332214800,0.58921484375,0.06871768832206726,-0.026931125670671463,0.2535000741481781
1772794505342259700,0.599259765625,0.06080330163240433,-0.006572057958692312,0.24723659455776215
1772794505352304600,0.6093046875,0.06449941545724869,0.050434865057468414,0.2572345733642578
1772794505362348800,0.619348876953125,0.07166144996881485,0.11632493138313293,0.27496299147605896
1772794505372393700,0.629393798828125,0.07330136001110077,0.1532270610332489,0.3012736737728119
1772794505382438700,0.639438720703125,0.07699516415596008,0.1573573648929596,0.32169321179389954
1772794505392482800,0.64948291015625,0.09818761050701141,0.16599485278129578,0.3342808187007904
1772794505402527700,0.65952783203125,0.12396860867738724,0.1957961618900299,0.31736788153648376
1772794505412572700,0.66957275390625,0.1611526608467102,0.22645452618598938,0.27845585346221924
1772794505422616800,0.679616943359375,0.1951625645160675,0.2259426712989807,0.23805011808872223
1772794505432661800,0.689661865234375,0.22235067188739777,0.18950754404067993,0.2115647792816162
1772794505442707000,0.69970703125,0.2590775191783905,0.15013164281845093,0.20754899084568024
1772794505452750600,0.70975048828125,0.3003949522972107,0.12554629147052765,0.20970210433006287
1772794505462795800,0.719795654296875,0.3246092200279236,0.1059480756521225,0.21045364439487457
1772794505472840700,0.7298408203125,0.34041666984558105,0.07587699592113495,0.20417125523090363
1772794505482884600,0.739884521484375,0.3452191650867462,0.04856840893626213,0.18655656278133392
1772794505492929800,0.7499296875,0.33840760588645935,0.007019049488008022,0.1658843606710434
1772794505502974700,0.759974609375,0.3342152535915375,-0.03966909274458885,0.16033139824867249
1772794505513019000,0.770018798828125,0.3211818337440491,-0.07276812195777893,0.15614107251167297
1772794505523063600,0.7800634765625,0.30881306529045105,-0.09701620787382126,0.14841097593307495
1772794505533108700,0.790108642578125,0.2767861485481262,-0.07874319702386856,0.1316322684288025
1772794505543153000,0.80015283203125,0.23046553134918213,-0.07416974753141403,0.10806329548358917
1772794505553197600,0.810197509765625,0.19078563153743744,-0.08616432547569275,0.09336959570646286
1772794505563242800,0.82024267578125,0.17378827929496765,-0.10511484742164612,0.1096138134598732
1772794505573286700,0.83028662109375,0.15490467846393585,-0.09382643550634384,0.13748982548713684
1772794505583331800,0.840331787109375,0.12387938052415848,-0.05958458036184311,0.16414140164852142
1772794505593376500,0.85037646484375,0.08422058820724487,-0.03127646446228027,0.1566227525472641
1772794505603420700,0.860420654296875,0.03851994127035141,-0.03325013443827629,0.12016621232032776
1772794505613465900,0.8704658203125,-0.0057552270591259,-0.06943900883197784,0.0662301778793335
1772794505623510800,0.8805107421875,-0.04849576577544212,-0.10876856744289398,0.020954307168722153
1772794505633555700,0.8905556640625,-0.07364780455827713,-0.09931894391775131,0.004697413183748722
1772794505643600000,0.900599853515625,-0.07419402152299881,-0.03745797276496887,0.022206632420420647
1772794505653644800,0.910644775390625,-0.02777296118438244,0.12452220171689987,0.08380521088838577
1772794505663689700,0.920689697265625,0.01349618099629879,0.302386999130249,0.1831810623407364
1772794505673733600,0.930733642578125,0.03415767103433609,0.3921463191509247,0.25449246168136597
1772794505683778800,0.94077880859375,0.0395127572119236,0.39271384477615356,0.26066699624061584
1772794505693823700,0.95082373046875,0.09920211136341095,0.21567240357398987,0.21834640204906464
1772794505703867600,0.96086767578125,0.1837044656276703,0.05087067931890488,0.1794578582048416
1772794505713912800,0.970912841796875,0.2649439573287964,-0.054764483124017715,0.1590217649936676
1772794505723957800,0.980957763671875,0.3122137486934662,-0.12183300405740738,0.1645640730857849
1772794505734002000,0.991001953125,0.3178313374519348,-0.19435180723667145,0.20530515909194946
1772794505744046800,1.001046875,0.3441545367240906,-0.23242676258087158,0.2595364451408386
1772794505754092000,1.011092041015625,0.3878655731678009,-0.17584028840065002,0.2897231876850128
1772794505764136000,1.021135986328125,0.4150114357471466,-0.10715123265981674,0.31687596440315247
1772794505774180900,1.031180908203125,0.43837812542915344,-0.07201030850410461,0.3237933814525604
1772794505784226000,1.04122607421875,0.44614923000335693,-0.07466068863868713,0.29210495948791504
1772794505794269700,1.051269775390625,0.4154950678348541,-0.13937212526798248,0.23582598567008972
1772794505804315000,1.06131494140625,0.3593391180038452,-0.24010725319385529,0.16477657854557037
1772794505814359800,1.07135986328125,0.285584956407547,-0.3054073452949524,0.11404167115688324
1772794505824403700,1.08140380859375,0.21898196637630463,-0.32496851682662964,0.06860947608947754
1772794505834449000,1.091448974609375,0.1749076098203659,-0.34821537137031555,0.008961774408817291
1772794505844493800,1.101493896484375,0.15894941985607147,-0.3774494230747223,-0.06169961392879486
1772794505854538000,1.1115380859375,0.1498962938785553,-0.4245966374874115,-0.12315212190151215
1772794505864582700,1.121582763671875,0.15927328169345856,-0.46972498297691345,-0.1622912734746933
1772794505874627800,1.1316279296875,0.15910668671131134,-0.4799320101737976,-0.18620367348194122
1772794505884672000,1.141672119140625,0.1423090696334839,-0.4452666938304901,-0.19353242218494415
1772794505894717000,1.151717041015625,0.1295255571603775,-0.37279629707336426,-0.19664394855499268
1772794505904761900,1.161761962890625,0.10953959077596664,-0.3404758870601654,-0.1880323588848114
1772794505914806000,1.171805908203125,0.08622168749570847,-0.28093022108078003,-0.18896447122097015
1772794505924851000,1.181850830078125,0.03539152443408966,-0.1906842291355133,-0.21455983817577362
1772794505934895900,1.191895751953125,-0.03851599991321564,-0.11492619663476944,-0.2350282520055771
1772794505944939800,1.201939697265625,-0.0631670132279396,-0.1079937219619751,-0.19156359136104584
1772794505954985000,1.21198486328125,-0.12798291444778442,-0.10268458724021912,-0.15854884684085846
1772794505965030000,1.22202978515625,-0.22141459584236145,-0.12574675679206848,-0.13882146775722504
1772794505975073800,1.23207373046875,-0.35401391983032227,-0.09074179828166962,-0.13430221378803253
1772794505985119000,1.242118896484375,-0.41691938042640686,-0.06602740287780762,-0.14667579531669617
1772794505995164000,1.252163818359375,-0.3749569058418274,-0.052780114114284515,-0.15957888960838318
1772794506005207800,1.262207763671875,-0.2846826910972595,-0.037132445722818375,-0.15287518501281738
1772794506015252700,1.272252685546875,-0.2048044204711914,0.004871063400059938,-0.14582470059394836
1772794506025298000,1.2822978515625,-0.15924039483070374,0.024693503975868225,-0.14634135365486145
1772794506035342000,1.292342041015625,-0.1295340210199356,0.03159752115607262,-0.14492292702198029
1772794506045386800,1.30238671875,-0.11420407146215439,0.025642961263656616,-0.15778572857379913
1772794506055432000,1.312431884765625,-0.11360178142786026,0.01945858635008335,-0.18148717284202576
1772794506065475800,1.322475830078125,-0.11397115886211395,0.006511361803859472,-0.196711927652359
1772794506075520800,1.332520751953125,-0.0957687571644783,-0.009737813845276833,-0.1960185319185257
1772794506085565700,1.342565673828125,-0.06843620538711548,-0.00026708049699664116,-0.1656491756439209
1772794506095609900,1.35260986328125,-0.036897532641887665,0.030287038534879684,-0.11888821423053741
1772794506105655000,1.362655029296875,-0.010353275574743748,0.0552416555583477,-0.05151529610157013
1772794506115699700,1.37269970703125,0.00810169242322445,0.08840691298246384,0.021741723641753197
1772794506125745000,1.382744873046875,0.04208868741989136,0.11905777454376221,0.06487055122852325
1772794506135788800,1.392788818359375,0.02605358324944973,0.08091451227664948,0.06447425484657288
1772794506145834000,1.402833984375,0.04835888743400574,0.12790146470069885,0.060733579099178314
1772794506155878700,1.412878662109375,0.03837418183684349,0.10513418167829514,0.016745906323194504
1772794506165922800,1.4229228515625,0.005145121365785599,0.03398783504962921,-0.035412367433309555
1772794506175968000,1.432968017578125,-0.015594582073390484,0.03764093667268753,-0.06313987821340561
1772794506186012700,1.4430126953125,-0.0060881623066961765,0.029953455552458763,-0.05248989909887314
1772794506196056800,1.453056884765625,0.006637949030846357,0.02951621264219284,-0.02898377552628517
1772794506206102000,1.46310205078125,-0.0008497948874719441,0.04705791920423508,-0.01471962034702301
1772794506216147000,1.47314697265625,-0.01206553727388382,0.043570104986429214,0.0031318666879087687
1772794506226190800,1.48319091796875,-0.016772141680121422,0.0522133931517601,0.022045636549592018
1772794506236235800,1.49323583984375,-0.011237549595534801,0.08672486990690231,0.055851686745882034
1772794506246281000,1.503281005859375,-0.011464984156191349,0.12949523329734802,0.07958285510540009
1772794506256324900,1.513324951171875,-0.007635816000401974,0.1411125659942627,0.07519717514514923
1772794506266369800,1.523369873046875,0.004101800732314587,0.13092811405658722,0.040868233889341354
1772794506276415000,1.5334150390625,0.014658274129033089,0.09841058403253555,-0.009681152179837227
1772794506286459000,1.543458984375,0.009046726860105991,0.061226725578308105,-0.05812112241983414
1772794506296503800,1.55350390625,-0.0005979101406410336,0.027069559320807457,-0.09634228050708771
1772794506306548700,1.563548828125,0.0006490421947091818,-0.012604770250618458,-0.10639745742082596
1772794506316593000,1.573593017578125,-0.0063037024810910225,-0.0320616140961647,-0.07842966914176941
1772794506326637800,1.583637939453125,-0.03419951722025871,-0.03890913352370262,-0.011915085837244987
1772794506336682800,1.593682861328125,-0.0479716882109642,-0.044370200484991074,0.054000213742256165
1772794506346727000,1.603726806640625,-0.018805012106895447,-0.027571512386202812,0.100886769592762
1772794506356771800,1.613771728515625,-0.012490913271903992,0.007912818342447281,0.1449126899242401
1772794506366816800,1.623816650390625,-0.030185755342245102,0.007264605723321438,0.14464958012104034
1772794506376861000,1.63386083984375,-0.040861599147319794,-0.004370003938674927,0.12699928879737854
1772794506386905900,1.64390576171875,-0.058740463107824326,-0.021489601582288742,0.09716682136058807
1772794506396951000,1.653950927734375,-0.04113994166254997,0.020322393625974655,0.07385582476854324
1772794506406995000,1.663994873046875,0.04978250712156296,0.12506185472011566,0.01282442919909954
1772794506417040000,1.674039794921875,0.10313412547111511,0.0858929306268692,-0.023886222392320633
1772794506427084800,1.684084716796875,0.10424786061048508,0.07830852270126343,-0.03409065678715706
1772794506437128700,1.694128662109375,0.10957662016153336,0.16800101101398468,0.014161908999085426
1772794506447174000,1.704173828125,0.12211398035287857,0.22670108079910278,0.08999568223953247
1772794506457218800,1.71421875,0.09553676098585129,0.21868161857128143,0.13217894732952118
1772794506467262700,1.7242626953125,-0.0008608796051703393,0.1388336718082428,0.15416574478149414
1772794506477308000,1.734307861328125,-0.13066981732845306,0.10167381912469864,0.09174523502588272
1772794506487352800,1.744352783203125,-0.06699522584676743,0.11383488029241562,-0.02289826236665249
1772794506497397000,1.75439697265625,0.018034957349300385,0.16898898780345917,-0.08227134495973587
1772794506507441700,1.764441650390625,0.05651603639125824,0.18057186901569366,-0.1226150393486023
1772794506517486800,1.77448681640625,0.12102305889129639,0.18511538207530975,-0.13221079111099243
1772794506527531000,1.784531005859375,0.09972549974918365,0.12832720577716827,-0.16285444796085358
1772794506537576000,1.794575927734375,0.11981061100959778,0.089989572763443,-0.1865091472864151
1772794506547620900,1.804620849609375,0.19657064974308014,-0.16082987189292908,-0.2787085771560669
1772794506557664800,1.814664794921875,0.19896358251571655,-0.2914268672466278,-0.39789244532585144
1772794506567710000,1.8247099609375,0.12536926567554474,-0.09387809783220291,-0.37762314081192017
1772794506577755000,1.8347548828125,0.07282241433858871,0.02370595373213291,-0.21939769387245178
1772794506587798800,1.844798828125,0.09114176779985428,-0.009318309836089611,-0.06035530939698219
1772794506597844000,1.854843994140625,0.10442867130041122,-0.01085646077990532,0.025235746055841446
1772794506607889000,1.864888916015625,0.0965995043516159,-0.019913606345653534,0.0491328239440918
1772794506617933800,1.874933837890625,0.09443815797567368,-0.05743572860956192,0.053401075303554535
1772794506627977700,1.884977783203125,0.08914326131343842,-0.09685583412647247,0.05128119885921478
1772794506638023000,1.89502294921875,0.07752547413110733,-0.11812927573919296,0.05672108754515648
1772794506648067800,1.90506787109375,0.055360786616802216,-0.138311505317688,0.06868133693933487
1772794506658111700,1.91511181640625,0.03543883562088013,-0.14974641799926758,0.07916173338890076
1772794506668157000,1.925156982421875,0.024655696004629135,-0.1616201251745224,0.08946257084608078
1772794506678201900,1.935201904296875,0.017614925280213356,-0.16797758638858795,0.09894561022520065
1772794506688245800,1.945245849609375,0.01499064639210701,-0.15963737666606903,0.10558487474918365
1772794506698291000,1.955291015625,0.009111051447689533,-0.1438111960887909,0.12221457064151764
1772794506708335900,1.9653359375,-0.002130418550223112,-0.12807483971118927,0.12197675555944443
1772794506718380000,1.975380126953125,-0.00892407726496458,-0.11532232165336609,0.09560227394104004
1772794506728424700,1.9854248046875,-0.014008584432303905,-0.11378088593482971,0.04408422112464905
1772794506738470400,1.995470458984375,-0.01863056607544422,-0.11453533172607422,-0.008791377767920494
1772794506748514000,2.00551416015625,-0.014552999287843704,-0.1112617701292038,-0.030335286632180214
1772794506758559200,2.015559326171875,0.0009830630151554942,-0.09585560113191605,-0.03454631567001343
1772794506768604200,2.025604248046875,0.029129479080438614,-0.06972093880176544,-0.0375216007232666
1772794506778648000,2.03564794921875,0.058158643543720245,-0.06814637780189514,-0.045240286737680435
1772794506788693200,2.045693359375,0.07404013723134995,-0.0442194789648056,-0.07708209753036499
1772794506798738200,2.05573828125,0.14962530136108398,-0.0596565306186676,-0.09119795262813568
1772794506808782300,2.0657822265625,0.1809651106595993,-0.001072046346962452,-0.11060786992311478
1772794506818827300,2.0758271484375,0.14035481214523315,0.027396133169531822,-0.11836861819028854
1772794506828872200,2.0858720703125,0.12587013840675354,-0.0016483035869896412,-0.12373888492584229
1772794506838916400,2.095916259765625,0.142299085855484,-0.014364376664161682,-0.13093388080596924
1772794506848961300,2.105961181640625,0.17209267616271973,-0.022223632782697678,-0.12253746390342712
1772794506859006200,2.116006103515625,0.1938188374042511,0.000021656975150108337,-0.10942055284976959
1772794506869050400,2.12605029296875,0.1816931962966919,0.028581397607922554,-0.08398177474737167
1772794506879095300,2.13609521484375,0.16881775856018066,0.030983980745077133,-0.053333669900894165
1772794506889140200,2.14614013671875,0.1596953570842743,0.020111892372369766,-0.02844429947435856
1772794506899184000,2.15618408203125,0.15084987878799438,0.01693585142493248,-0.008473263122141361
1772794506909229300,2.166229248046875,0.12306670844554901,-0.0008751046843826771,0.0000131664564833045
1772794506919274200,2.176274169921875,0.10231777280569077,-0.022547289729118347,0.005433257203549147
1772794506929318100,2.186318115234375,0.08137227594852448,-0.032047584652900696,0.009105224162340164
1772794506939363300,2.19636328125,0.06719861179590225,-0.04176344349980354,0.01293686032295227
1772794506949408300,2.206408203125,0.0626416727900505,-0.04250326752662659,0.02490750327706337
1772794506959452200,2.2164521484375,0.05884439870715141,-0.03903574496507645,0.04725833609700203
1772794506969497000,2.2264970703125,0.0577881895005703,-0.04059262573719025,0.05136226490139961
1772794506979542300,2.236542236328125,0.05609972029924393,-0.05954136326909065,0.04405130445957184
1772794506989586400,2.24658642578125,0.04883115366101265,-0.08153986930847168,0.034331031143665314
1772794506999631000,2.256631103515625,0.03760913014411926,-0.09633813053369522,0.0309206023812294
1772794507009676300,2.26667626953125,0.04240921139717102,-0.09893311560153961,0.04395198076963425
1772794507019720200,2.27672021484375,0.044941142201423645,-0.09236085414886475,0.0484674908220768
1772794507029765000,2.28676513671875,0.042108338326215744,-0.08769019693136215,0.04710608348250389
1772794507039810300,2.296810302734375,0.027731269598007202,-0.08358696103096008,0.039142850786447525
1772794507049854200,2.306854248046875,0.014674856327474117,-0.07218916714191437,0.03230039030313492
1772794507059899400,2.3168994140625,0.005132800433784723,-0.0511896014213562,0.038041066378355026
1772794507069944000,2.326944091796875,0.0016613700427114964,-0.030455291271209717,0.03736276179552078
1772794507079988200,2.33698828125,-0.0037904372438788414,-0.024546809494495392,0.01848151534795761
1772794507090033400,2.347033447265625,-0.01861359179019928,-0.03459624573588371,-0.007529578171670437
1772794507100078300,2.357078369140625,-0.03432995080947876,-0.03537900000810623,-0.026384718716144562
1772794507110123300,2.367123291015625,-0.03864507004618645,-0.019642116501927376,-0.03274035081267357
1772794507120167200,2.377167236328125,-0.04438730701804161,-0.00679507153108716,-0.03068172186613083
1772794507130212400,2.38721240234375,-0.05346256121993065,-0.00622382340952754,-0.0308175440877676
1772794507140257000,2.397257080078125,-0.058849819004535675,-0.012396225705742836,-0.027186889201402664
1772794507150301200,2.40730126953125,-0.06326773762702942,-0.021136721596121788,-0.02048717625439167
1772794507160346400,2.417346435546875,-0.07766182720661163,-0.030474506318569183,-0.003179632592946291
1772794507170391300,2.427391357421875,-0.08576449006795883,-0.04271998628973961,0.013225972652435303
1772794507180435200,2.437435302734375,-0.08435101062059402,-0.04003468528389931,0.025406500324606895
1772794507190480100,2.447480224609375,-0.08656463027000427,-0.03967409208416939,0.04094257950782776
1772794507200525300,2.457525390625,-0.08055654168128967,-0.03205744922161102,0.0423191674053669
1772794507210569200,2.4675693359375,-0.07576045393943787,-0.026175858452916145,0.03621174022555351
1772794507220614100,2.4776142578125,-0.07751554250717163,-0.025331592187285423,0.02530502900481224
1772794507230659300,2.487659423828125,-0.07457008957862854,-0.023958198726177216,0.009764683432877064
1772794507240703200,2.497703125,-0.06722454726696014,-0.014467118307948112,-0.001647341181524098
1772794507250748200,2.507748046875,-0.0645480751991272,-0.004729802720248699,-0.014100815169513226
1772794507260793000,2.51779296875,-0.0624590665102005,0.005266588181257248,-0.023232487961649895
1772794507270837200,2.527837158203125,-0.06189687177538872,0.01724761724472046,-0.035864658653736115
1772794507280882200,2.537882080078125,-0.05996277555823326,0.028952330350875854,-0.04212167114019394
1772794507290927000,2.547927001953125,-0.0540500245988369,0.045142218470573425,-0.03845156729221344
1772794507300971300,2.55797119140625,-0.047754380851984024,0.06097156181931496,-0.03204613924026489
1772794507311016400,2.568016357421875,-0.04953976348042488,0.06745848804712296,-0.019530082121491432
1772794507321061000,2.57806103515625,-0.04794067144393921,0.07795540988445282,-0.006997653283178806
1772794507331105300,2.588105224609375,-0.047315627336502075,0.07928938418626785,-0.0040809595957398415
1772794507341150200,2.598150146484375,-0.04570372775197029,0.0712561085820198,-0.010919509455561638
1772794507351195400,2.6081953125,-0.0421377569437027,0.054877664893865585,-0.013476676307618618
1772794507361239300,2.6182392578125,-0.04525119811296463,0.04736020788550377,-0.013937816955149174
1772794507371284200,2.6282841796875,-0.045402467250823975,0.03021717444062233,-0.009900464676320553
1772794507381329400,2.638329345703125,-0.045716460794210434,0.016515102237462997,-0.012863119132816792
1772794507391373000,2.648373046875,-0.04890026897192001,0.005798807833343744,-0.011644456535577774
1772794507401418200,2.658418212890625,-0.05109265446662903,-0.0026076820213347673,-0.020162582397460938
1772794507411463200,2.668463134765625,-0.052695877850055695,-0.004932355135679245,-0.026389319449663162
1772794507421507000,2.678507080078125,-0.051350221037864685,-0.002644065534695983,-0.024391496554017067
1772794507431552300,2.68855224609375,-0.05422297492623329,0.010047228075563908,-0.019635356962680817
1772794507441597200,2.69859716796875,-0.06085794419050217,0.017562460154294968,-0.011003859341144562
1772794507451641300,2.708641357421875,-0.07313910871744156,0.01107366755604744,-0.005810427945107222
1772794507461686000,2.71868603515625,-0.07616502046585083,0.0013755513355135918,0.005148439668118954
1772794507471731200,2.728731201171875,-0.07482144981622696,-0.0010322127491235733,0.022919978946447372
1772794507481775400,2.738775390625,-0.07959040254354477,-0.0006527695804834366,0.027752893045544624
1772794507491820300,2.7488203125,-0.0715939998626709,0.007680794224143028,0.023791706189513206
1772794507501865200,2.758865234375,-0.06321132183074951,0.015676256269216537,0.007051694206893444
1772794507511909000,2.7689091796875,-0.051004987210035324,0.028401639312505722,-0.009952855296432972
1772794507521954300,2.778954345703125,-0.04223686829209328,0.037867091596126556,-0.029404856264591217
1772794507531999200,2.788999267578125,-0.03432781249284744,0.02820567600429058,-0.04099307209253311
1772794507542043100,2.799043212890625,-0.034877240657806396,0.021304678171873093,-0.042669035494327545
1772794507552088300,2.80908837890625,-0.030969850718975067,0.016103524714708328,-0.04468851163983345
1772794507562133200,2.81913330078125,-0.028810232877731323,0.020325280725955963,-0.04655127227306366
1772794507572178200,2.82917822265625,-0.026157191023230553,0.024966102093458176,-0.043336834758520126
1772794507582222300,2.839222412109375,-0.019658546894788742,0.031146768480539322,-0.03843235969543457
1772794507592267300,2.849267333984375,-0.012739386409521103,0.0347505584359169,-0.02261132001876831
1772794507602312400,2.8593125,-0.0027070934884250164,0.03608398884534836,-0.004788845777511597
1772794507612356000,2.869356201171875,0.008232107385993004,0.03160029277205467,0.0026112799532711506
1772794507622401300,2.8794013671875,0.011675840243697166,0.0207068994641304,0.0004466624232009053
1772794507632446200,2.8894462890625,0.017929473891854286,0.015063393861055374,-0.0027230316773056984
1772794507642490000,2.899489990234375,0.020361198112368584,0.013305865228176117,0.016641458496451378
1772794507652535300,2.909535400390625,0.018434135243296623,0.019976286217570305,0.03031545877456665
1772794507662580200,2.919580322265625,0.016596920788288116,0.02429887466132641,0.03619857877492905
1772794507672624400,2.929624267578125,0.013670639134943485,0.027718106284737587,0.025423165410757065
1772794507682669000,2.9396689453125,0.015157964080572128,0.03673796355724335,0.002133588306605816
1772794507692714200,2.94971435546875,0.022411616519093513,0.04408615827560425,-0.017692580819129944
1772794507702758400,2.95975830078125,0.01845546066761017,0.047289080917835236,-0.03285574913024902
1772794507712803000,2.969802978515625,0.015533705241978168,0.04047352075576782,-0.039351996034383774
1772794507722848300,2.97984814453125,0.0035639421548694372,0.03502901643514633,-0.04351728782057762
1772794507732892000,2.989891845703125,0.004425741732120514,0.028490690514445305,-0.0356854647397995
1772794507742936800,2.999936767578125,0.001954162260517478,0.025031255558133125,-0.024934083223342896
1772794507752982000,3.00998193359375,0.00233499426394701,0.016507543623447418,-0.018686573952436447
1772794507763025700,3.020025634765625,-0.0008429557783529162,0.002328340895473957,0.0010277426335960627
1772794507773070800,3.03007080078125,-0.010838864371180534,-0.009046819061040878,0.009653189219534397
1772794507783115800,3.04011572265625,-0.01882338896393776,-0.024278514087200165,0.020041448995471
1772794507793160000,3.050159912109375,-0.02352067269384861,-0.025049764662981033,0.02508973702788353
1772794507803204900,3.060204833984375,-0.024533450603485107,-0.020335756242275238,0.031073633581399918
1772794507813249800,3.070249755859375,-0.027414193376898766,-0.012155590578913689,0.024897761642932892
1772794507823294000,3.0802939453125,-0.025295482948422432,-0.009384582750499249,0.006024806294590235
1772794507833339000,3.0903388671875,-0.021353472024202347,-0.0007942905649542809,-0.012549410574138165
1772794507843383800,3.1003837890625,-0.020673349499702454,0.004396204371005297,-0.02475544437766075
1772794507853428000,3.110427978515625,-0.019663212820887566,0.007572556380182505,-0.03697988763451576
1772794507863473000,3.120472900390625,-0.020397592335939407,0.012655161321163177,-0.043084945529699326
1772794507873517800,3.130517822265625,0.016728203743696213,-0.010038966313004494,-0.02523643709719181
1772794507883561700,3.140561767578125,0.0220699030905962,0.013174522668123245,-0.0050147948786616325
1772794507893607000,3.15060693359375,-0.028421500697731972,0.013529254123568535,0.01645933836698532
1772794507903651800,3.16065185546875,-0.057603415101766586,-0.023923957720398903,0.029657578095793724
1772794507913695700,3.17069580078125,-0.0638599768280983,-0.02492424100637436,0.020926404744386673
1772794507923741000,3.180740966796875,-0.045179639011621475,-0.011303968727588654,0.021788595244288445
1772794507933785900,3.190785888671875,-0.02998337522149086,0.013792596757411957,0.033878814429044724
1772794507943829800,3.200829833984375,-0.024890435859560966,0.03954199701547623,0.03691637143492699
1772794507953875000,3.210875,-0.02117825672030449,0.05390549078583717,0.01660097762942314
1772794507963920000,3.220919921875,-0.01616133376955986,0.052574824541807175,-0.017302807420492172
1772794507973965000,3.230965087890625,-0.004764867946505547,0.05525103583931923,-0.05303177610039711
1772794507984008700,3.2410087890625,0.004676304291933775,0.05199478939175606,-0.08071427047252655
1772794507994054000,3.251053955078125,0.01380801759660244,0.04881710559129715,-0.09773613512516022
1772794508004098800,3.261098876953125,0.017540469765663147,0.04646984860301018,-0.10266172140836716
1772794508014142700,3.271142822265625,0.0165305957198143,0.04136882722377777,-0.10875609517097473
1772794508024188000,3.28118798828125,0.016784386709332466,0.029439358040690422,-0.11149930953979492
1772794508034232800,3.29123291015625,0.015508465468883514,0.024271495640277863,-0.1021026074886322
1772794508044277000,3.301277099609375,0.01806083880364895,0.025672050192952156,-0.06581384688615799
1772794508054321700,3.31132177734375,0.014845338650047779,0.03731725364923477,-0.010156707838177681
1772794508064366800,3.321366943359375,0.014712417498230934,0.04073376953601837,0.03373785316944122
1772794508074411000,3.331410888671875,0.010941381566226482,0.03999900445342064,0.048433974385261536
1772794508084456000,3.3414560546875,0.01099654845893383,0.027009068056941032,0.03563463315367699
1772794508094500900,3.3515009765625,0.010295604355633259,0.023965606465935707,0.0106637729331851
1772794508104544800,3.361544677734375,0.008329015225172043,0.015630323439836502,-0.014176947996020317
1772794508114590000,3.37158984375,0.007181459106504917,0.011470465920865536,-0.0402064174413681
1772794508124635000,3.381634765625,0.005580181255936623,0.001046118326485157,-0.05111562833189964
1772794508134678800,3.3916787109375,0.0033018472604453564,-0.0071170032024383545,-0.04891505837440491
1772794508144724000,3.401723876953125,0.0046058110892772675,-0.009230691939592361,-0.03376870974898338
1772794508154769000,3.411768798828125,0.0009674006141722202,-0.0018638554029166698,-0.016923148185014725
1772794508164812800,3.421812744140625,-0.0017541339620947838,0.0008741347119212151,0.00134483992587775
1772794508174857700,3.431857666015625,-0.007062080316245556,-0.00478162057697773,0.017260156571865082
1772794508184903000,3.44190283203125,-0.009629407897591591,-0.009064147248864174,0.023992547765374184
1772794508194946800,3.45194677734375,-0.006450125947594643,-0.011067643761634827,0.033454760909080505
1772794508204991700,3.46199169921875,-0.0007020698976702988,-0.0039693741127848625,0.032511379569768906
1772794508215037000,3.472036865234375,-0.0017952974885702133,0.002818757202476263,0.02466517686843872
1772794508225081000,3.4820810546875,0.0017247030045837164,0.0058073680847883224,0.010225716978311539
1772794508235125800,3.492125732421875,0.002083164406940341,0.009087850339710712,-0.006746076047420502
1772794508245171000,3.5021708984375,-0.0018444553716108203,0.015785541385412216,-0.0198899544775486
1772794508255214800,3.51221484375,-0.002768572187051177,0.01587582379579544,-0.026420557871460915
1772794508265260000,3.522260009765625,-0.00007955852197483182,0.01707126386463642,-0.03139343857765198
1772794508275304700,3.5323046875,0.004459799267351627,0.016428377479314804,-0.031265608966350555
1772794508285348900,3.542348876953125,0.009200130589306355,0.018394822254776955,-0.02204793505370617
1772794508295394000,3.55239404296875,0.014627386815845966,0.029216844588518143,-0.01390478853136301
1772794508305438700,3.562438720703125,0.015775522217154503,0.03719543665647507,-0.00879382062703371
1772794508315483000,3.57248291015625,0.020673073828220367,0.04017551243305206,-0.014908971264958382
1772794508325527800,3.58252783203125,0.01689140498638153,0.03847530111670494,-0.028293978422880173
1772794508335573000,3.592572998046875,0.012968302704393864,0.02191230282187462,-0.047333985567092896
1772794508345617000,3.602616943359375,0.006786186248064041,0.006840713322162628,-0.062294527888298035
1772794508355661800,3.612661865234375,0.00864613801240921,0.0023594126105308533,-0.06226283684372902
1772794508365707000,3.62270703125,0.009271854534745216,-0.0008537811227142811,-0.05658549815416336
1772794508375750700,3.632750732421875,0.017449356615543365,0.007868871092796326,-0.046726472675800323
1772794508385795800,3.6427958984375,0.07155384123325348,0.0015965364873409271,-0.017309922724962234
1772794508395840800,3.6528408203125,0.04238850250840187,0.01265611220151186,0.004132251255214214
1772794508405885000,3.662885009765625,0.007142134942114353,0.013197431340813637,0.013570839539170265
1772794508415929900,3.672929931640625,-0.00478696171194315,-0.004623111337423325,0.008899122476577759
1772794508425974800,3.682974853515625,-0.0016016254667192698,-0.0031479415483772755,0.0016151044983416796
1772794508436020000,3.69302001953125,0.002983272774145007,0.002143493387848139,-0.0017034605843946338
1772794508446063900,3.70306396484375,0.0001919532660394907,0.006080330815166235,-0.014534424059092999
1772794508456108800,3.71310888671875,-0.0011793083976954222,0.010438593104481697,-0.028819618746638298
1772794508466154000,3.723154052734375,0.0016197743825614452,0.007775444537401199,-0.03669625520706177
1772794508476198000,3.733197998046875,-0.0004383163759484887,0.007397808134555817,-0.041245732456445694
1772794508486242800,3.743242919921875,0.002649352652952075,0.005959168076515198,-0.03744300454854965
1772794508496287700,3.753287841796875,0.006175644230097532,0.005143442191183567,-0.0427088737487793
1772794508506332000,3.763331787109375,0.010962676256895065,0.004584711045026779,-0.03566747531294823
1772794508516377000,3.773377197265625,0.008341592736542225,0.006629485636949539,-0.03315505012869835
1772794508526421800,3.783421875,0.0021052886731922626,0.0013598385266959667,-0.03520510718226433
1772794508536466000,3.7934658203125,0.0045114546082913876,-0.012029736302793026,-0.03017413057386875
1772794508546510800,3.8035107421875,-0.0030229748226702213,-0.021371901035308838,-0.02291025221347809
1772794508556555800,3.8135556640625,-0.010299796238541603,-0.025892086327075958,-0.011932436376810074
1772794508566600000,3.823599853515625,-0.00889537949115038,-0.042186301201581955,-0.0014921858673915267
1772794508576644900,3.833644775390625,-0.010701269842684269,-0.036764372140169144,-0.0034496095031499863
1772794508586690000,3.84368994140625,-0.0070491814985871315,-0.033384520560503006,0.0033558933064341545
1772794508596733700,3.853733642578125,-0.006872613914310932,-0.03889832645654678,0.009900877252221107
1772794508606779000,3.86377880859375,-0.007307407911866903,-0.03601864352822304,0.015274005010724068
1772794508616823800,3.87382373046875,-0.009690936654806137,-0.03167449310421944,0.014609811827540398
1772794508626867700,3.88386767578125,-0.009801683947443962,-0.024043040350079536,0.005886974278837442
1772794508636913000,3.893912841796875,-0.010984926484525204,-0.018135882914066315,-0.002166957361623645
1772794508646957800,3.903957763671875,-0.014613750390708447,-0.01810312643647194,-0.01754537969827652
1772794508657002000,3.914001953125,-0.021060997620224953,-0.018738556653261185,-0.026066962629556656
1772794508667047000,3.924046875,-0.020318076014518738,-0.025044668465852737,-0.03556958585977554
1772794508677091800,3.934091796875,-0.014990688301622868,-0.033987030386924744,-0.03885060176253319
1772794508687136000,3.944135986328125,-0.011739666573703289,-0.033719103783369064,-0.035625580698251724
1772794508697180700,3.9541806640625,-0.013879516161978245,-0.030612526461482048,-0.03385990485548973
1772794508707225900,3.964225830078125,-0.017527565360069275,-0.03218592703342438,-0.030771404504776
1772794508717270000,3.97427001953125,-0.01689479872584343,-0.02131517231464386,-0.03502926602959633
1772794508727315000,3.98431494140625,-0.02611856535077095,-0.016904272139072418,-0.038558706641197205
1772794508737360100,3.994360107421875,-0.04193215072154999,-0.04824887961149216,-0.03356048837304115
1772794508747404000,4.004404052734375,-0.053396228700876236,-0.05533655732870102,-0.00806052703410387
1772794508757449200,4.01444921875,-0.06159050762653351,-0.04690445959568024,0.034233931452035904
1772794508767494100,4.024494140625,-0.06744429469108582,-0.04163099452853203,0.07238739728927612
1772794508777538000,4.0345380859375,-0.07231974601745605,-0.034623418003320694,0.09221649169921875
1772794508787583200,4.044583251953125,-0.0719929188489914,-0.018176419660449028,0.0908549353480339
1772794508797628200,4.054628173828125,-0.06268464028835297,-0.004350885283201933,0.06501109153032303
1772794508807672300,4.06467236328125,-0.05348159000277519,0.009697124361991882,0.024303792044520378
1772794508817717000,4.074717041015625,-0.04367982596158981,0.019271720200777054,-0.017112357541918755
1772794508827762200,4.08476220703125,-0.03996584191918373,0.01836906187236309,-0.05006377026438713
1772794508837806300,4.094806396484375,-0.03935118392109871,0.03692970052361488,-0.06186476722359657
1772794508847851000,4.10485107421875,-0.030758997425436974,0.05736019089818001,-0.06735148280858994
1772794508857896200,4.114896240234375,-0.017037326470017433,0.06626634299755096,-0.07697508484125137
1772794508867940000,4.124940185546875,-0.011000473983585835,0.0573042668402195,-0.08446948230266571
1772794508877985300,4.1349853515625,-0.005618064198642969,0.06923322379589081,-0.10062656551599503
1772794508888030000,4.145030029296875,0.006440985947847366,0.054753776639699936,-0.11105618625879288
1772794508898074000,4.15507421875,0.007229014299809933,0.03785442188382149,-0.11720782518386841
1772794508908119300,4.165119384765625,0.006305912975221872,0.03738223388791084,-0.11548419296741486
1772794508918164200,4.175164306640625,0.004066194407641888,0.03202928230166435,-0.1044725552201271
1772794508928209200,4.185209228515625,-0.0016122478991746902,0.038113001734018326,-0.08750179409980774
1772794508938253000,4.195253173828125,-0.010961274616420269,0.05915091186761856,-0.08140794932842255
1772794508948298200,4.20529833984375,-0.003907696809619665,0.06301920115947723,-0.08134004473686218
1772794508958343200,4.21534326171875,0.019835449755191803,0.07460740953683853,-0.08877585828304291
1772794508968387000,4.225386962890625,0.0016927651595324278,0.08640788495540619,-0.11016111075878143
1772794508978432300,4.235432373046875,-0.010650454089045525,0.059201303869485855,-0.1267038732767105
1772794508988477200,4.245477294921875,-0.016506969928741455,0.05829598754644394,-0.13804671168327332
1772794508998521000,4.25552099609375,-0.010866395197808743,0.051652733236551285,-0.11665594577789307
1772794509008566000,4.26556591796875,-0.008294520899653435,0.030463941395282745,-0.07738911360502243
1772794509018611200,4.275611083984375,-0.005786621943116188,0.02081078104674816,-0.033782511949539185
1772794509028655000,4.285655029296875,-0.002914071548730135,0.011614860966801643,-0.00430598109960556
1772794509038700000,4.295699951171875,-0.004942867439240217,0.00258168438449502,0.011279902420938015
1772794509048745200,4.3057451171875,-0.004212427418678999,-0.008083452470600605,0.013945857994258404
1772794509058789400,4.315789306640625,-0.0034968359395861626,-0.022752409800887108,0.011572183109819889
1772794509068834000,4.325833984375,-0.0001520065125077963,-0.02231273427605629,0.008220130577683449
1772794509078879200,4.335879150390625,0.004925043787807226,-0.015911027789115906,0.0026075178757309914
1772794509088923100,4.345923095703125,0.010391241870820522,-0.019107772037386894,-0.02121327444911003
1772794509098968300,4.35596826171875,0.01404909323900938,-0.028065048158168793,-0.045724209398031235
1772794509109013000,4.366012939453125,0.014708688482642174,-0.027836237102746964,-0.05965467914938927
1772794509119057200,4.37605712890625,0.016097260639071465,-0.020876865833997726,-0.06418178230524063
1772794509129102300,4.386102294921875,0.009561832994222641,-0.025415480136871338,-0.05533628910779953
1772794509139147000,4.39614697265625,0.005216619931161404,-0.028884781524538994,-0.05426649749279022
1772794509149191200,4.406191162109375,0.006491710897535086,-0.03345801681280136,-0.03831861913204193
1772794509159236000,4.416236083984375,0.008595341816544533,-0.04156335070729256,-0.01784716360270977
1772794509169281300,4.42628125,0.005261320620775223,-0.04095279425382614,0.010800839401781559
1772794509179325200,4.4363251953125,0.005971052683889866,-0.036820098757743835,0.021948566660284996
1772794509189370000,4.4463701171875,0.011689351871609688,-0.030684875324368477,0.02743699587881565
1772794509199415300,4.456415283203125,0.01510006282478571,-0.02999032288789749,0.019317282363772392
1772794509209459000,4.466458984375,0.02275301329791546,-0.03348714858293533,0.00646731024608016
1772794509219504000,4.476504150390625,0.030961675569415092,-0.039267007261514664,-0.012389734387397766
1772794509229549000,4.486549072265625,0.04288819804787636,-0.046546854078769684,-0.031278692185878754
1772794509239593200,4.49659326171875,0.04547679051756859,-0.044458404183387756,-0.0429244302213192
1772794509249638100,4.50663818359375,0.05193556100130081,-0.04545660316944122,-0.046622488647699356
1772794509259683000,4.51668310546875,0.05379311740398407,-0.044002510607242584,-0.04864382743835449
1772794509269727200,4.526727294921875,0.050722647458314896,-0.043531790375709534,-0.05486638844013214
1772794509279772200,4.536772216796875,0.04934366047382355,-0.05342783033847809,-0.045436933636665344
1772794509289817000,4.546817138671875,0.049207430332899094,-0.04592001810669899,-0.026993755251169205
1772794509299861200,4.556861328125,0.04780767485499382,-0.030307238921523094,0.005968987010419369
1772794509309906200,4.56690625,0.04476882144808769,-0.016120251268148422,0.04227708652615547
1772794509319951000,4.576951171875,0.04100950434803963,-0.001246228814125061,0.062458254396915436
1772794509329995300,4.586995361328125,0.03746514394879341,0.0005395850166678429,0.05877411738038063
1772794509340040200,4.597040283203125,0.04828476905822754,-0.009361781179904938,0.043941378593444824
1772794509350085400,4.60708544921875,0.062449581921100616,-0.0020613656379282475,0.022385064512491226
1772794509360130000,4.617130126953125,0.04685970023274422,-0.0013865209184587002,0.0014893697807565331
1772794509370174200,4.62717431640625,0.03059527277946472,-0.012944582849740982,-0.02054782770574093
1772794509380219100,4.63721923828125,0.021872621029615402,-0.030127031728625298,-0.037131600081920624
1772794509390263000,4.647262939453125,0.018247220665216446,-0.034302499145269394,-0.037223026156425476
1772794509400308200,4.65730810546875,0.013146202079951763,-0.030834797769784927,-0.02496955543756485
1772794509410353200,4.667353271484375,0.012551899999380112,-0.027010250836610794,-0.010229923762381077
1772794509420398300,4.6773984375,0.006835957057774067,-0.023045070469379425,0.004204676020890474
1772794509430442000,4.68744189453125,-0.0018226979300379753,-0.02009395882487297,0.011688318103551865
1772794509440487200,4.697487060546875,-0.009568235836923122,-0.01871044561266899,0.009665647521615028
1772794509450532000,4.707531982421875,-0.003438080893829465,-0.020763039588928223,0.010427357628941536
1772794509460576000,4.717575927734375,-0.0074027287773787975,-0.0036751339212059975,0.004684783518314362
1772794509470621200,4.72762109375,-0.019483933225274086,0.002104027196764946,-0.005504550412297249
1772794509480666000,4.737666015625,-0.023089053109288216,-0.007718243170529604,-0.0276482030749321
1772794509490710300,4.747710205078125,-0.014293074607849121,-0.005890611559152603,-0.03995488956570625
1772794509500755000,4.7577548828125,-0.009619493037462234,-0.007728192489594221,-0.04541410133242607
1772794509510800100,4.767800048828125,-0.01512021292001009,0.00016664667055010796,-0.04342783987522125
1772794509520844300,4.77784423828125,-0.026795243844389915,0.0012604068033397198,-0.04197561740875244
1772794509530889200,4.78788916015625,-0.02857646718621254,0.004542474634945393,-0.03614535555243492
1772794509540934100,4.79793408203125,-0.026494940742850304,0.011178539134562016,-0.029246438294649124
1772794509550978300,4.807978271484375,-0.026433788239955902,0.010536439716815948,-0.024406874552369118
1772794509561023200,4.818023193359375,-0.023978088051080704,0.003952838946133852,-0.023117639124393463
1772794509571068200,4.828068115234375,-0.02831612154841423,-0.005988050252199173,-0.024058952927589417
1772794509581112000,4.838112060546875,-0.030320681631565094,-0.014882208779454231,-0.024541251361370087
1772794509591157200,4.8481572265625,-0.02901022508740425,-0.01487441174685955,-0.02631615474820137
1772794509601202200,4.8582021484375,-0.02015388384461403,-0.01584113948047161,-0.023871641606092453
1772794509611246000,4.86824609375,-0.020232507959008217,-0.010627849027514458,-0.021183298900723457
1772794509621291300,4.878291259765625,-0.017992788925766945,-0.01846846006810665,-0.01728443242609501
1772794509631336200,4.888336181640625,-0.02405204251408577,-0.016280464828014374,-0.014718934893608093
1772794509641380000,4.898380126953125,-0.029726173728704453,-0.010145074687898159,-0.01740100421011448
1772794509651425000,4.908425048828125,-0.02992294169962406,-0.01133720763027668,-0.016854178160429
1772794509661470200,4.91847021484375,-0.03281806409358978,-0.004802342504262924,-0.021455321460962296
1772794509671514400,4.928514404296875,-0.031422924250364304,0.005205113440752029,-0.02364794723689556
1772794509681559000,4.93855908203125,-0.033111367374658585,0.015341370366513729,-0.026267165318131447
1772794509691604200,4.948604248046875,-0.03478734567761421,0.022063449025154114,-0.02632146328687668
1772794509701648100,4.958648193359375,-0.03440970927476883,0.02281978726387024,-0.02067982219159603
1772794509711693000,4.968693115234375,-0.039374787360429764,0.014883262105286121,-0.009839717298746109
1772794509721738000,4.978738037109375,-0.03639977052807808,0.01605718582868576,0.011192330159246922
1772794509731782100,4.9887822265625,-0.03503253310918808,0.016428371891379356,0.027481097728013992
1772794509741826800,4.998826904296875,-0.028013505041599274,0.01704808883368969,0.03137676790356636
1772794509751871700,5.008871826171875,-0.025362851098179817,0.00883154571056366,0.02237810008227825
1772794509761916000,5.018916015625,-0.0214711744338274,0.0015478003770112991,0.011981384828686714
1772794509771961000,5.028961181640625,-0.023348908871412277,-0.00001109996810555458,0.007685826160013676
1772794509782005800,5.039005859375,-0.021639157086610794,-0.002642303006723523,0.004134234972298145
1772794509792051000,5.049051025390625,-0.021414989605545998,-0.0013823164626955986,0.012472319416701794
1772794509802094800,5.0590947265625,-0.016773633658885956,0.0028137601912021637,0.020749159157276154
1772794509812139800,5.069139892578125,-0.014139480888843536,0.003451801836490631,0.029819924384355545
1772794509822184700,5.079184814453125,-0.015460142865777016,-0.003921958152204752,0.04053222015500069
1772794509832228900,5.089228759765625,-0.020224273204803467,-0.010311147198081017,0.04870200157165527
1772794509842274000,5.099274169921875,-0.022393949329853058,-0.0031320645939558744,0.06116905435919762
1772794509852318700,5.109318603515625,-0.024701226502656937,0.0013779234141111374,0.06865271180868149
1772794509862363000,5.11936279296875,-0.026005908846855164,0.005736985709518194,0.06675521284341812
1772794509872407800,5.12940771484375,-0.027176739647984505,0.005368264392018318,0.048615675419569016
1772794509882453000,5.139452880859375,-0.029062258079648018,-0.00109016802161932,0.01921331137418747
1772794509892497000,5.149496826171875,-0.030093127861618996,-0.003678862238302827,-0.0029550266917794943
1772794509902541800,5.159541748046875,-0.03427242487668991,-0.0006354018114507198,-0.017208265140652657
1772794509912587000,5.1695869140625,-0.034392308443784714,0.0041599879041314125,-0.00566300842911005
1772794509922631000,5.179630859375,-0.037701018154621124,0.011628024280071259,0.009616345167160034
1772794509932675800,5.18967578125,-0.04120481386780739,0.016213277354836464,0.019561907276511192
1772794509942720800,5.199720703125,-0.043181680142879486,0.002687348984181881,0.023534810170531273
1772794509952764700,5.2097646484375,-0.03979478403925896,0.00401814840734005,0.019642502069473267
1772794509962809900,5.219809814453125,-0.037312984466552734,-0.01002842839807272,0.017642734572291374
1772794509972854800,5.229854736328125,-0.0344303622841835,-0.008300885558128357,0.018101636320352554
1772794509982899000,5.23989892578125,-0.032040439546108246,-0.01397288590669632,0.015755390748381615
1772794509992943900,5.24994384765625,-0.02668728120625019,-0.014448907226324081,0.01476510800421238
1772794510002988800,5.25998876953125,-0.020272260531783104,-0.008710327558219433,0.013465485535562038
1772794510013033000,5.270032958984375,-0.014995777979493141,-0.010646343231201172,0.01686679571866989
1772794510023078000,5.280077880859375,-0.023146115243434906,-0.013457044027745724,0.018573882058262825
1772794510033122800,5.290122802734375,-0.029615020379424095,-0.015166452154517174,0.01762881875038147
1772794510043167000,5.3001669921875,-0.03533655405044556,-0.01477949507534504,0.0231692586094141
1772794510053212000,5.3102119140625,-0.040248896926641464,-0.019643936306238174,0.01953296549618244
1772794510063257000,5.320257080078125,-0.03365331143140793,-0.015713907778263092,0.021609965711832047
1772794510073300700,5.33030078125,-0.030638230964541435,-0.00103751290589571,0.02625994384288788
1772794510083346000,5.340345947265625,-0.03289100155234337,0.015704449266195297,0.02862589620053768
1772794510093390800,5.350390869140625,-0.02942158840596676,0.01855415105819702,0.014222542755305767
1772794510103434800,5.360434814453125,-0.02587266080081463,0.0180103350430727,-0.007586349733173847
1772794510113480000,5.37047998046875,-0.022591710090637207,0.016728047281503677,-0.026957519352436066
1772794510123524900,5.38052490234375,-0.021300610154867172,0.019894279539585114,-0.026595862582325935
1772794510133570000,5.390570068359375,-0.016254562884569168,0.034222234040498734,-0.0185950119048357
1772794510143613700,5.40061376953125,-0.011527985334396362,0.04400109499692917,-0.010596208274364471
1772794510153659000,5.410658935546875,-0.004730492830276489,0.04935634136199951,-0.01081264391541481
1772794510163703800,5.420703857421875,0.003173236735165119,0.05005541816353798,-0.02302110567688942
1772794510173747700,5.430747802734375,0.009024171158671379,0.04571707546710968,-0.030289599671959877
1772794510183793000,5.44079296875,0.008697401732206345,0.03292218595743179,-0.038278549909591675
1772794510193837800,5.450837890625,0.011106968857347965,0.024777058511972427,-0.04376531392335892
1772794510203882000,5.460882080078125,0.008165507577359676,0.003979369066655636,-0.04738827794790268
1772794510213927000,5.470927001953125,0.016293229535222054,-0.009413186460733414,-0.04266432300209999
1772794510223971800,5.480971923828125,0.021008621901273727,-0.017180295661091805,-0.021796325221657753
1772794510234016000,5.49101611328125,0.0165390707552433,-0.02869574725627899,0.0025757865514606237
1772794510244060700,5.501060791015625,0.010317392647266388,-0.032796215265989304,0.029474245384335518
1772794510254105900,5.51110595703125,0.005782968830317259,-0.03136006370186806,0.04918484762310982
1772794510264150000,5.52114990234375,-0.004165802150964737,-0.03397795185446739,0.04330405592918396
1772794510274195000,5.53119482421875,-0.013694537803530693,-0.0361030176281929,0.0289866141974926
1772794510284240000,5.541239990234375,-0.02094818837940693,-0.032771140336990356,0.01286516897380352
1772794510294283800,5.55128369140625,-0.03060690127313137,-0.02352554351091385,0.0012778351083397865
1772794510304329000,5.561328857421875,-0.038221944123506546,-0.013827109709382057,-0.000523793394677341
1772794510314374000,5.571373779296875,-0.040652066469192505,-0.002645720262080431,0.0009789152536541224
1772794510324417800,5.581417724609375,-0.03966030851006508,0.00645856186747551,0.002164820907637477
1772794510334463000,5.591462890625,-0.04733099788427353,0.007861888967454433,-0.0009139066096395254
1772794510344508000,5.6015078125,-0.04858561232686043,0.001528625376522541,-0.00005237397272139788
1772794510354551800,5.6115517578125,-0.04889935627579689,0.0021928688511252403,-0.0002761194482445717
1772794510364596700,5.6215966796875,-0.04160655662417412,0.014654332771897316,-0.0004055490717291832
1772794510374642000,5.631641845703125,-0.03223622217774391,0.018151596188545227,-0.001722748507745564
1772794510384685800,5.641685791015625,-0.030682535842061043,0.0223173126578331,-0.0018641623901203275
1772794510394730800,5.651730712890625,-0.026095446199178696,0.02379654534161091,-0.010220509953796864
1772794510404776000,5.66177587890625,-0.028690429404377937,0.0170584823936224,-0.024448979645967484
1772794510414819800,5.67181982421875,-0.030425304546952248,0.006866926327347755,-0.026786215603351593
1772794510424864800,5.68186474609375,-0.0303155817091465,0.0027763107791543007,-0.018992207944393158
1772794510434909700,5.69190966796875,-0.03074486367404461,0.007878344506025314,-0.0010957273188978434
1772794510444953900,5.701953857421875,-0.027351463213562965,0.005806404631584883,0.018265720456838608
1772794510454999000,5.7119990234375,-0.023278098553419113,0.00538147846236825,0.03747415542602539
1772794510465043700,5.722043701171875,-0.020460475236177444,0.005692002829164267,0.0451592393219471
1772794510475088000,5.732087890625,-0.013175170868635178,0.008527039550244808,0.04486940801143646
1772794510485133000,5.742133056640625,-0.007336456328630447,0.006540321744978428,0.036463137716054916
1772794510495177700,5.752177734375,-0.005414403043687344,0.005313142202794552,0.024044785648584366
1772794510505223000,5.762222900390625,-0.003599991090595722,0.002317884936928749,0.007089771330356598
1772794510515266800,5.772266845703125,-0.006502128206193447,-0.009503258392214775,-0.003249731846153736
1772794510525312000,5.78231201171875,-0.004442705772817135,-0.012948855757713318,-0.005415414460003376
1772794510535356000,5.79235595703125,-0.00649997778236866,-0.002978298347443342,0.0028209835290908813
1772794510545400800,5.80240087890625,-0.0011659322772175074,0.005111319478601217,0.011008872650563717
1772794510555446000,5.812446044921875,0.006294616963714361,0.008350199088454247,0.008582007139921188
1772794510565491000,5.822490966796875,0.01009281724691391,0.003188460599631071,-0.005645664408802986
1772794510575534800,5.832534912109375,0.014492163434624672,-0.0028409811202436686,-0.019450154155492783
1772794510585579800,5.842579833984375,0.00579933961853385,-0.0029171474743634462,-0.02262490801513195
1772794510595625000,5.852625,-0.005683974828571081,-0.0098736472427845,-0.012321064248681068
1772794510605668900,5.8626689453125,-0.010215343907475471,-0.01252322643995285,-0.0008529601036570966
1772794510615713800,5.8727138671875,-0.011287758126854897,-0.01036163978278637,0.014263754710555077
1772794510625759000,5.882759033203125,-0.011136490851640701,-0.006356511730700731,0.02998572587966919
1772794510635802600,5.892802734375,-0.012250510975718498,-0.0035478919744491577,0.032623548060655594
1772794510645847800,5.902847900390625,-0.014481174759566784,-0.002677304670214653,0.025607716292142868
1772794510655892700,5.912892822265625,-0.00888722576200962,-0.006329779047518969,0.011387726292014122
1772794510665937000,5.92293701171875,-0.0018381041008979082,-0.009174567647278309,-0.006134541239589453
1772794510675981800,5.93298193359375,0.0016240053810179234,-0.010371392592787743,-0.02135743573307991
1772794510686026800,5.94302685546875,0.00267835077829659,-0.008181741461157799,-0.0288169514387846
1772794510696071000,5.95307080078125,0.009246138855814934,-0.004133748821914196,-0.03372295945882797
1772794510706115800,5.96311572265625,0.011469878256320953,0.011999414302408695,-0.030471239238977432
1772794510716160800,5.973160888671875,0.007598274853080511,0.024799378588795662,-0.02321765385568142
1772794510726205000,5.983204833984375,0.011945884674787521,0.03258992359042168,-0.030614318326115608
1772794510736250000,5.99325,0.021524732932448387,0.0161445289850235,-0.04075125977396965
1772794510746295300,6.00329541015625,0.022841399535536766,0.02722274512052536,-0.04479686915874481
1772794510756339200,6.013339111328125,0.020207809284329414,0.029866043478250504,-0.040296770632267
1772794510766384400,6.02338427734375,0.019672513008117676,0.03129962086677551,-0.02093079872429371
1772794510776429000,6.033428955078125,0.018513496965169907,0.03158154338598251,-0.0029908325523138046
1772794510786473200,6.04347314453125,0.02112685702741146,0.0325983390212059,0.008812563493847847
1772794510796518400,6.053518310546875,0.02719041332602501,0.03350057452917099,0.008954516611993313
1772794510806563300,6.063563232421875,0.023204991593956947,0.0189189650118351,0.002795956563204527
1772794510816607200,6.073607177734375,0.029910985380411148,0.021125275641679764,-0.002325122244656086
1772794510826652400,6.08365234375,0.037626963108778,0.0341944694519043,-0.006688711233437061
1772794510836697300,6.093697265625,0.047744568437337875,0.03419223427772522,-0.01226579025387764
1772794510846741200,6.1037412109375,0.05753008648753166,0.03032851777970791,-0.016567595303058624
1772794510856786200,6.1137861328125,0.05767472833395004,0.029503528028726578,-0.011266379617154598
1772794510866831400,6.123831298828125,0.05722891539335251,0.03323621302843094,0.0015197235625237226
1772794510876875300,6.133875244140625,0.05417989194393158,0.03127938136458397,0.008743474259972572
1772794510886920200,6.143920166015625,0.042767979204654694,0.02911503240466118,0.007022273261100054
1772794510896965400,6.15396533203125,0.042730726301670074,0.02233627811074257,0.003322270466014743
1772794510907009300,6.16400927734375,0.04072483256459236,0.02414030209183693,-0.004417141899466515
1772794510917054200,6.17405419921875,0.03929445892572403,0.02081172540783882,-0.011509520001709461
1772794510927099100,6.18409912109375,0.04081698879599571,0.017659608274698257,-0.01273643784224987
1772794510937143300,6.194143310546875,0.041127145290374756,0.026222189888358116,-0.01211825106292963
1772794510947188500,6.2041884765625,0.039903424680233,0.026225121691823006,-0.01859452575445175
1772794510957233200,6.214233154296875,0.03370894119143486,0.02499692514538765,-0.026214169338345528
1772794510967277300,6.22427734375,0.02900526486337185,0.021008577197790146,-0.024984586983919144
1772794510977322200,6.234322265625,0.029009301215410233,0.026760905981063843,-0.018335659056901932
1772794510987367400,6.244367431640625,0.028194107115268707,0.026894062757492065,-0.0058816540986299515
1772794510997411300,6.254411376953125,0.026769807562232018,0.02006421983242035,0.0012291725724935532
1772794511007456300,6.264456298828125,0.018872469663619995,0.01234052050858736,0.0051064686849713326
1772794511017501400,6.27450146484375,0.022538527846336365,0.009914109483361244,0.006215974688529968
1772794511027545000,6.284545166015625,0.02461952157318592,0.013628153130412102,0.0038433645386248827
1772794511037590300,6.29459033203125,0.029587769880890846,0.01247469987720251,0.0036044521257281303
1772794511047635200,6.30463525390625,0.03389383479952812,0.012488548643887043,0.007316365838050842
1772794511057680400,6.314680419921875,0.034617096185684204,0.009384362027049065,-0.002085091546177864
1772794511067724300,6.324724365234375,0.02792457491159439,0.0019408264197409153,-0.014212594367563725
1772794511077769200,6.334769287109375,0.022405747324228287,-0.0031083624344319105,-0.020474672317504883
1772794511087814400,6.344814453125,0.013446606695652008,0.0022520478814840317,-0.019458675757050514
1772794511097858300,6.3548583984375,0.006263046059757471,0.012288976460695267,-0.012029821053147316
1772794511107903200,6.3649033203125,-0.0019400225719437003,0.01712607592344284,0.00007025094237178564
1772794511117948400,6.374948486328125,-0.011511011980473995,0.017664605751633644,-0.0014013848267495632
1772794511127992300,6.384992431640625,-0.01596834324300289,0.018513621762394905,-0.003318860661238432
1772794511138037200,6.395037353515625,-0.02074066922068596,0.01599891111254692,-0.006101744249463081
1772794511148082200,6.405082275390625,-0.02273537591099739,0.019776873290538788,-0.006616000551730394
1772794511158126300,6.415126220703125,-0.025318356230854988,0.026920750737190247,-0.0023746108636260033
1772794511168171300,6.425171142578125,-0.031185032799839973,0.0312848724424839,-0.0007799098384566605
1772794511178216200,6.43521630859375,-0.03353691101074219,0.03383282199501991,-0.010897072032094002
1772794511188260400,6.44526025390625,-0.03489512577652931,0.030171241611242294,-0.019867131486535072
1772794511198305300,6.45530517578125,-0.03290713205933571,0.027775080874562263,-0.029384322464466095
1772794511208350200,6.46535009765625,-0.023983679711818695,0.020856188610196114,-0.03487762436270714
1772794511218394400,6.475394287109375,-0.026641875505447388,0.01695595495402813,-0.03365476429462433
1772794511228439300,6.485439208984375,-0.016933854669332504,-0.012021899223327637,-0.022300109267234802
1772794511238484500,6.495484375,-0.01709478162229061,0.0054082684218883514,-0.0185751523822546
1772794511248528100,6.505528076171875,-0.01428194995969534,0.023894336074590683,-0.01026422530412674
1772794511258573300,6.5155732421875,-0.011138660833239555,0.01425858587026596,-0.004013866186141968
1772794511268618200,6.5256181640625,-0.008260583505034447,0.021998532116413116,0.0016181869432330132
1772794511278662100,6.535662109375,-0.0049833375960588455,0.024520380422472954,-0.003988645970821381
1772794511288707300,6.545707275390625,-0.0017689020605757833,0.022717688232660294,-0.007405481301248074
1772794511298752300,6.555752197265625,-0.004384678788483143,0.012522624805569649,-0.013398698531091213
1772794511308796200,6.565796142578125,-0.0034062336198985577,0.010078109800815582,0.0026700159069150686
1772794511318841300,6.57584130859375,0.001741943066008389,0.010708695277571678,0.020097514614462852
1772794511328886300,6.58588623046875,0.010370850563049316,0.015428615733981133,0.03397231921553612
1772794511338930400,6.595930419921875,0.01337350532412529,0.014189598150551319,0.047244325280189514
1772794511348975000,6.60597509765625,0.01674160361289978,0.012288101948797703,0.050742123275995255
1772794511359020300,6.616020263671875,0.059193581342697144,-0.00045489659532904625,0.05449049547314644
1772794511369064400,6.626064453125,0.06104128062725067,0.02815411239862442,0.0634365901350975
1772794511379109400,6.636109375,0.04114104434847832,0.02169322595000267,0.058151084929704666
1772794511389154300,6.646154296875,0.042926426976919174,0.016856392845511436,0.04155879095196724
1772794511399198200,6.6561982421875,0.04211556166410446,-0.005667317193001509,0.018534298986196518
1772794511409243400,6.666243408203125,0.03718738257884979,-0.005311785265803337,0.00530744343996048
1772794511419288300,6.676288330078125,0.025686463341116905,-0.01239725947380066,-0.004131844267249107
1772794511429332200,6.686332275390625,0.01464526541531086,-0.01508332323282957,-0.004659682512283325
1772794511439377400,6.69637744140625,0.008476042188704014,-0.007840697653591633,-0.00037454324774444103
1772794511449422300,6.70642236328125,0.01053067110478878,0.001950946170836687,0.003736312035471201
1772794511459466200,6.71646630859375,0.008144846186041832,-0.0011308509856462479,0.0016864100471138954
1772794511469511200,6.72651123046875,-0.0014396046753972769,-0.010334203019738197,-0.006457270123064518
1772794511479556400,6.736556396484375,-0.00995043944567442,-0.018975595012307167,-0.017587359994649887
1772794511489600300,6.746600341796875,-0.017309552058577538,-0.020849129185080528,-0.022990114986896515
1772794511499645200,6.756645263671875,-0.029763055965304375,-0.021456653252243996,-0.026282772421836853
1772794511509690400,6.7666904296875,-0.03395380824804306,-0.018742626532912254,-0.03096061386168003
1772794511519734300,6.776734375,-0.039441730827093124,-0.011809611693024635,-0.028117457404732704
1772794511529779200,6.786779296875,-0.03975678235292435,-0.003785241860896349,-0.025550169870257378
1772794511539824000,6.79682421875,-0.04468138888478279,-0.004684471990913153,-0.023985477164387703
1772794511549868300,6.806868408203125,-0.044954631477594376,-0.0033278577029705048,-0.030551500618457794
1772794511559913500,6.81691357421875,-0.04187875986099243,-0.006688030902296305,-0.03712061420083046
1772794511569958100,6.826958251953125,-0.03891412913799286,-0.014156600460410118,-0.04717537760734558
1772794511580002300,6.837002197265625,-0.03503802418708801,-0.01566350646317005,-0.043871182948350906
1772794511590047200,6.847047119140625,-0.0345916785299778,-0.01937541924417019,-0.02553398534655571
1772794511600092200,6.857092041015625,-0.031133685261011124,-0.0172381941229105,-0.0007939910865388811
1772794511610136300,6.86713623046875,-0.028251079842448235,-0.003848619293421507,0.015534382313489914
1772794511620181200,6.87718115234375,-0.032702554017305374,-0.007868127897381783,0.022885238751769066
1772794511630226400,6.887226318359375,-0.030003173276782036,-0.004990582820028067,0.025933759286999702
1772794511640270300,6.897270263671875,-0.027105674147605896,0.00008358852937817574,0.031192932277917862
1772794511650315300,6.907315185546875,-0.01889062114059925,0.00794177781790495,0.029511943459510803
1772794511660360400,6.9173603515625,-0.011613759212195873,0.0180041640996933,0.03126944229006767
1772794511670404000,6.927404052734375,-0.01998833566904068,0.009244760498404503,0.01127869077026844
1772794511680449300,6.93744921875,-0.008274315856397152,-0.0082651162520051,-0.007201303727924824
1772794511690494200,6.947494140625,0.003926423843950033,-0.0018900413997471333,-0.019472351297736168
1772794511700539400,6.957539306640625,0.006582881323993206,-0.0048826620914042,-0.019926246255636215
1772794511710583300,6.967583251953125,0.01030944287776947,-0.017951859161257744,-0.019610662013292313
1772794511720628200,6.977628173828125,0.011298812925815582,-0.024570483714342117,-0.018278801813721657
1772794511730673400,6.98767333984375,0.006930163130164146,-0.023307081311941147,-0.005954491440206766
1772794511740717000,6.997717041015625,0.006138268858194351,-0.024670017883181572,0.006374739110469818
1772794511750761700,7.00776171875,0.007431500591337681,-0.02374590002000332,0.014844922348856926
1772794511760807000,7.017806884765625,0.011245298199355602,-0.02407025545835495,0.01793009415268898
1772794511770850800,7.027850830078125,0.012608037330210209,-0.029454633593559265,0.01690238155424595
1772794511780896000,7.03789599609375,0.012954946607351303,-0.03167518973350525,0.019264671951532364
1772794511790940700,7.047940673828125,0.014876151457428932,-0.024721410125494003,0.02027241140604019
1772794511800984800,7.05798486328125,0.015809373930096626,-0.025019410997629166,0.014384927228093147
1772794511811030000,7.068030029296875,0.020551132038235664,-0.02871028706431389,0.0012896325206384063
1772794511821075000,7.078074951171875,0.023379242047667503,-0.02784927561879158,-0.015525899827480316
1772794511831118800,7.088118896484375,0.02521522529423237,-0.023608723655343056,-0.028998032212257385
1772794511841163800,7.098163818359375,0.031180329620838165,-0.02068256214261055,-0.028054559603333473
1772794511851209000,7.108208984375,0.036119960248470306,-0.025669865310192108,-0.023425986990332603
1772794511861252900,7.1182529296875,0.043164536356925964,-0.026017621159553528,-0.011994407512247562
1772794511871297800,7.1282978515625,0.04609321430325508,-0.015065371990203857,0.007336946204304695
1772794511881343000,7.138343017578125,0.03761669620871544,-0.018092207610607147,0.023054510354995728
1772794511891386600,7.14838671875,0.0376230888068676,-0.0179851483553648,0.029605619609355927
1772794511901431800,7.158431884765625,0.03771991655230522,-0.016278980299830437,0.022717000916600227
1772794511911476700,7.168476806640625,0.038293030112981796,-0.015910398215055466,0.01415573712438345
1772794511921521000,7.17852099609375,0.03768423944711685,-0.01230277307331562,0.0051360297948122025
1772794511931565800,7.18856591796875,0.038000624626874924,-0.018521787598729134,-0.0006046801572665572
1772794511941610800,7.19861083984375,0.030543211847543716,-0.016679203137755394,-0.000568920630030334
1772794511951655000,7.208655029296875,0.030661720782518387,-0.009426616132259369,0.006425339728593826
1772794511961699800,7.218699951171875,0.025783147662878036,0.0007111942395567894,0.01783059909939766
1772794511971744800,7.228744873046875,0.024706965312361717,0.011301787570118904,0.01964634284377098
1772794511981789000,7.238788818359375,0.022773776203393936,0.010216815397143364,0.012202807702124119
1772794511991833900,7.248833740234375,0.01979636214673519,0.012426972389221191,-0.0029686884954571724
1772794512001879000,7.258879150390625,0.02083546668291092,0.0171278715133667,-0.024265307933092117
1772794512011923000,7.2689228515625,0.02132255770266056,0.02279694192111492,-0.03335520625114441
1772794512021968000,7.2789677734375,0.019014079123735428,0.019750013947486877,-0.03027416579425335
1772794512032013000,7.289012939453125,0.014950097538530827,0.018183540552854538,-0.020691845566034317
1772794512042056700,7.299056640625,0.010662045329809189,0.01318502239882946,-0.012881919741630554
1772794512052102000,7.309101806640625,0.007967991754412651,0.013760264962911606,-0.010256309062242508
1772794512062146800,7.319146728515625,0.0010399137390777469,0.012815039604902267,-0.012330771423876286
1772794512072190700,7.329190673828125,-0.0014027375727891922,0.0040455167181789875,-0.01913408190011978
1772794512082236000,7.33923583984375,-0.007553544361144304,0.00022899731993675232,-0.01913096010684967
1772794512092280800,7.34928076171875,-0.006310913246124983,-0.00772826187312603,-0.00836087018251419
1772794512102325000,7.359324951171875,-0.008157383650541306,-0.015496981330215931,0.003997595049440861
1772794512112369700,7.36936962890625,-0.01329861581325531,-0.026310747489333153,0.012587620876729488
1772794512122414800,7.379414794921875,-0.010267028585076332,-0.029449161142110825,0.025090716779232025
1772794512132459000,7.389458984375,-0.011986631900072098,-0.016820453107357025,0.04101908206939697
1772794512142504000,7.39950390625,-0.014389325864613056,-0.010710254311561584,0.0491328239440918
1772794512152548900,7.409548828125,-0.014131798408925533,-0.011671122163534164,0.045684825628995895
1772794512162592800,7.4195927734375,-0.014402375556528568,-0.01525733433663845,0.04258863627910614
1772794512172638000,7.429637939453125,-0.011317103169858456,-0.018469106405973434,0.03267635032534599
1772794512182683000,7.439682861328125,-0.01255445834249258,-0.01792050153017044,0.03136557713150978
1772794512192726800,7.449726806640625,-0.01053285226225853,-0.016847247257828712,0.03111843392252922
1772794512202772000,7.45977197265625,-0.007593164686113596,-0.00949515588581562,0.03501947969198227
1772794512212817000,7.46981689453125,-0.01229044795036316,0.0023947935551404953,0.03188946470618248
1772794512222860800,7.47986083984375,-0.013262266293168068,0.0015699556097388268,0.022077389061450958
1772794512232906000,7.489906005859375,-0.016922781243920326,0.003982513211667538,0.012979231774806976
1772794512242951000,7.499950927734375,-0.01618274860084057,0.004928887356072664,0.008087950758635998
1772794512252994800,7.509994873046875,-0.020421436056494713,0.016274485737085342,0.0006063324399292469
1772794512263039700,7.520039794921875,-0.02271869033575058,0.02146834135055542,-0.003444222267717123
1772794512273085000,7.5300849609375,-0.0265033058822155,0.018895460292696953,-0.010602532885968685
1772794512283129000,7.540129150390625,-0.027403732761740685,0.01789426989853382,-0.020926963537931442
1772794512293173800,7.550173828125,-0.021987661719322205,0.019850894808769226,-0.03000275045633316
1772794512303219000,7.560218994140625,-0.020292500033974648,0.009082251228392124,-0.03865364193916321
1772794512313262800,7.570262939453125,-0.01917237415909767,0.0160706527531147,-0.03660354018211365
1772794512323307800,7.580307861328125,-0.007540198042988777,0.03349140286445618,-0.013527743518352509
1772794512333352700,7.590352783203125,-0.0009214440360665321,0.04204041510820389,0.021019315347075462
1772794512343396900,7.60039697265625,0.007956143468618393,0.0631415918469429,0.04621030390262604
1772794512353442000,7.610442138671875,-0.006670736707746983,0.050410620868206024,0.04993846267461777
1772794512363486700,7.62048681640625,-0.0037148436531424522,0.03776513785123825,0.03962746635079384
1772794512373532000,7.630531982421875,0.0021723401732742786,0.02308286353945732,0.030985243618488312
1772794512383575800,7.640575927734375,-0.0043716393411159515,0.0125664584338665,0.023626277223229408
1772794512393621000,7.65062109375,-0.0010216492228209972,0.005682720337063074,0.03676285222172737
1772794512403665700,7.660665771484375,0.007976945489645004,0.00815855897963047,0.06077931821346283
1772794512413709800,7.670709716796875,0.012440936639904976,0.006108990870416164,0.07015897333621979
1772794512423755000,7.680755126953125,0.015551519580185413,-0.005893768277019262,0.06349430233240128
1772794512433799700,7.690799560546875,0.013944567181169987,-0.017603421583771706,0.043441493064165115
1772794512443843800,7.70084375,0.01855849288403988,-0.02442004904150963,0.02446540631353855
1772794512453888800,7.710888671875,0.04581940919160843,-0.0350058488547802,0.008675790391862392
1772794512463934000,7.720933837890625,0.0642729252576828,-0.020516235381364822,0.0077944304794073105
1772794512473977900,7.730977783203125,0.05122263729572296,-0.01749754138290882,0.011783579364418983
1772794512484022800,7.741022705078125,0.03011145256459713,-0.015344008803367615,0.013714024797081947
1772794512494068000,7.75106787109375,0.030315984040498734,-0.020567532628774643,0.007361054420471191
1772794512504111900,7.76111181640625,0.026450062170624733,-0.013411968015134335,0.010877471417188644
1772794512514156800,7.77115673828125,0.02535417303442955,-0.006855798419564962,0.007852919399738312
1772794512524202000,7.781201904296875,0.022815074771642685,-0.0069579617120325565,0.0010971992742270231
1772794512534246000,7.791245849609375,0.01870528608560562,-0.004525164142251015,-0.006547138094902039
1772794512544290800,7.801290771484375,0.014080287888646126,0.005399619694799185,0.0002070046029984951
1772794512554335700,7.811335693359375,0.010626434348523617,0.016019241884350777,0.006203644443303347
1772794512564380000,7.8213798828125,0.00805979035794735,0.01741432398557663,0.00514246104285121
1772794512574424800,7.8314248046875,0.00333108170889318,0.014907756820321083,-0.007367738056927919
1772794512584469800,7.8414697265625,0.006465375889092684,0.01578814722597599,-0.021980728954076767
1772794512594514000,7.851513916015625,0.010333617217838764,0.01806594990193844,-0.02680690959095955
1772794512604558800,7.861558837890625,0.018320582807064056,0.037633031606674194,-0.025209251791238785
1772794512614603800,7.871603759765625,0.042032837867736816,0.06817708909511566,-0.022261666133999825
1772794512624648000,7.88164794921875,0.047499239444732666,0.07961936295032501,-0.011255886405706406
1772794512634692900,7.89169287109375,0.05118505656719208,0.07545284926891327,-0.03568852320313454
1772794512644738000,7.901738037109375,0.06795047223567963,0.07168575376272202,-0.06153552979230881
1772794512654781700,7.91178173828125,0.08755559474229813,0.059832826256752014,-0.08732930570840836
1772794512664827000,7.921826904296875,0.07636243849992752,0.05732600763440132,-0.09452950209379196
1772794512674871800,7.931871826171875,0.02170664817094803,0.037296101450920105,-0.08323530107736588
1772794512684915700,7.941915771484375,-0.00795661099255085,0.0018459991551935673,-0.06642909348011017
1772794512694961000,7.9519609375,0.001385491923429072,0.0004694112576544285,-0.011910191737115383
1772794512705005800,7.962005859375,-0.00031326842145062983,0.02363700419664383,0.04886208474636078
1772794512715049700,7.9720498046875,-0.0038219832349568605,0.05182070657610893,0.07682740688323975
1772794512725095000,7.982094970703125,-0.010091566480696201,0.05559579282999039,0.06422844529151917
