time,seconds_elapsed,z,y,x
1772795247636896300,0.080896240234375,0.03667114979326725,-0.028602331996220164,-0.018715313195530325
1772795247646940400,0.0909404296875,0.016482932767271995,-0.0053388065987994195,-0.03186415137033909
1772795247656985600,0.100985595703125,0.04528407983779907,-0.000054237808976904484,-0.01537783933589235
1772795247667029500,0.111029541015625,0.03555938915908336,-0.012126314168568932,-0.024825064780097453
1772795247677074400,0.121074462890625,0.029151275682449337,-0.010452980978734558,0.005983056464977562
1772795247687118600,0.13111865234375,0.02464168930351734,-0.0014151536100449446,-0.0009820881062187253
1772795247697162500,0.14116259765625,0.038275662380456925,-0.0005544746675281203,-0.01559124462455511
1772795247707207400,0.15120751953125,0.017528057906031607,-0.013932389767933637,-0.01658020999613218
1772795247717251600,0.16125146484375,0.03358195160627365,0.0037291617495880925,-0.01278757624751888
1772795247727296300,0.171296142578125,0.025958617120981214,-0.0062808977672364555,0.008834664770122617
1772795247737340400,0.18134033203125,0.018457447710633276,-0.010970537437789607,0.01489134359373711
1772795247747384300,0.19138427734375,0.031500469157099725,0.004068703893769998,0.01092539910483174
1772795247757429200,0.20142919921875,0.041754152145981785,-0.0006974990111775696,0.020325369607517494
1772795247767473400,0.211473388671875,0.04172200344204902,0.010352202326757832,0.010283612336264923
1772795247777517300,0.221517333984375,0.02736789939701557,0.011769556028104852,0.003083325568633154
1772795247787562500,0.2315625,0.02139876185953617,-0.005690778395469533,0.006518597246939316
1772795247797606400,0.2416064453125,0.019164134675264358,-0.019128823616576845,0.01109798832591623
1772795247807651600,0.251651611328125,0.0427992772847414,-0.003988527355116093,0.007783886208711192
1772795247817695500,0.261695556640625,0.033955461093783376,-0.015402800247212871,-0.010823811027035116
1772795247827739400,0.271739501953125,0.027366730353236196,-0.0017380358814320061,0.002104434066498652
1772795247837784600,0.28178466796875,0.0328828634262085,0.008697278151515638,0.016727920504286883
1772795247847828500,0.291828369140625,0.03900748378634453,0.002560049471555976,-0.014121016808366402
1772795247857873400,0.301873291015625,0.032122984969615936,-0.008488027306518051,0.015362376905279232
1772795247867917600,0.31191748046875,0.03241875304579735,-0.01872398969233036,0.006171199448220432
1772795247877961500,0.32196142578125,0.02911854245662689,-0.002836109341913834,-0.011339057939639314
1772795247888006400,0.33200634765625,0.02836392469704151,-0.010424854287726338,-0.0014491758950054645
1772795247898050300,0.34205029296875,0.030469372543692586,0.0074851863899268204,-0.006534434136888012
1772795247908095200,0.35209521484375,0.03510989182591438,-0.010943438226665603,-0.006396212976286187
1772795247918139400,0.362139404296875,0.04751987606585026,-0.0082188275768538,-0.010116247279569507
1772795247928183300,0.372183349609375,0.03825228150486946,0.0169826464673155,-0.006307466113753616
1772795247938228500,0.382228515625,0.03868716579079628,-0.011758653324889018,-0.011276441032206638
1772795247948272400,0.3922724609375,0.0331873993307352,0.007688111383770592,0.009929163742251694
1772795247958316300,0.40231640625,0.12775368873178958,-0.021478140388813335,0.015210492545505985
1772795247968361500,0.412361572265625,-0.14250819027125836,-0.018756121271598383,-0.009839165637549012
1772795247978405400,0.4224052734375,0.06939093161225318,0.003463735154387541,0.019551252563018352
1772795247988450600,0.432450439453125,0.08673603416681289,-0.014189554283220785,0.015535240120999515
1772795247998494500,0.442494384765625,-0.011859364619851112,0.021437728463322855,0.014656767652882262
1772795248008538400,0.452538330078125,0.10574585506319999,-0.02664047103845514,0.0042932858802843836
1772795248018583600,0.46258349609375,-0.06138824242055416,0.023423413254669866,-0.003943897053878754
1772795248028627500,0.47262744140625,0.10200842210054396,-0.0034586856615787835,0.007787155878031626
1772795248038672400,0.48267236328125,-0.03535246841013431,0.010846366493782261,0.009753131321910769
1772795248048716300,0.49271630859375,0.07058744792044162,-0.02041559147450607,0.013266665001353248
1772795248058760400,0.502760498046875,0.0031038112342357633,0.0017840224561165086,0.0014615969851613044
1772795248068805400,0.512805419921875,0.05891746839284896,-0.0021289280452940146,0.0036341004523448646
1772795248078849300,0.522849365234375,0.02734393399953842,0.008916879143880214,-0.00323003142978996
1772795248088894500,0.53289453125,0.06250877088308333,0.004143970220221672,0.004823949557729065
1772795248098938400,0.5429384765625,0.014473346510529518,0.0013035089301760307,-0.00006068067867308855
1772795248108982300,0.552982177734375,0.032280805879831315,-0.005634276134992251,0.0026811653753742574
1772795248119027500,0.56302734375,0.03871814545094967,0.007271209137461846,-0.0010321469261776654
1772795248129071400,0.5730712890625,0.0279459915459156,0.007078195899567799,0.0029702845150604844
1772795248139116500,0.583116455078125,0.03153729403614998,0.014864151909423525,0.005393392609292641
1772795248149160400,0.593160400390625,0.02360825460255146,-0.00008219382415991276,0.0056321058691479265
1772795248159204600,0.60320458984375,0.031388825476169585,-0.010923167190194363,-0.002034912494244054
1772795248169249500,0.61324951171875,0.03213701349496841,-0.003305536359903635,0.01111902198079042
1772795248179293400,0.62329345703125,0.04844634326100349,-0.0033403302537160923,0.0034253165398724374
1772795248189338400,0.63333837890625,0.03842003928720951,-0.005450647213374031,0.013566606929153202
1772795248199382300,0.64338232421875,0.04096387855112552,0.00788730776727898,-0.0020012020208872855
1772795248209427500,0.653427490234375,0.03871872997283935,-0.0007448886667261831,-0.0014886493888683616
1772795248219471400,0.663471435546875,0.04036123648285866,-0.000018928462755866347,0.015610195920197292
1772795248229515300,0.673515380859375,0.031979192584753034,-0.0003141439830884337,0.008280136159900576
1772795248239560400,0.683560546875,0.03766834413707256,-0.005949842606898164,-0.012021788639947772
1772795248249604400,0.693604248046875,0.03347381505668163,-0.0002883508130616974,-0.006786463536042719
1772795248259649500,0.7036494140625,0.041702714219689366,0.0013852266886562575,-0.00010883066933602093
1772795248269693400,0.713693359375,0.04723112225234508,-0.012273370514530688,0.00027426863042637705
1772795248279737600,0.723737548828125,0.03137128981947899,-0.002804725539672654,0.013824079688405617
1772795248289782500,0.733782470703125,0.021795652222633362,0.004607942461670609,-0.01243824222004041
1772795248299826400,0.743826416015625,0.034058921468257904,-0.019498051937902345,-0.01993239736771211
1772795248309871400,0.753871337890625,0.026724340796470642,-0.013022251511429203,-0.002431857656268403
1772795248319915500,0.76391552734375,0.04214110563695431,-0.0015876995913509744,-0.002003211314883083
1772795248329959400,0.77395947265625,0.030621932756900786,-0.008335073226020904,-0.00704802794852294
1772795248340004400,0.78400439453125,0.04379062640964985,-0.008037348371482221,0.002274557335861027
1772795248350048300,0.79404833984375,0.031820202630758285,0.011201259187434334,0.0008182119145523757
1772795248360093400,0.804093505859375,0.02882218985855579,0.005321790961094666,-0.006683222357276827
1772795248370137300,0.814137451171875,0.027478958556056022,-0.005947994284750894,-0.004228732744092121
1772795248380181200,0.82418115234375,0.028383798441290853,0.002508366091735661,-0.01254204052123241
1772795248390226400,0.834226318359375,0.025092940202355384,0.006754391322279116,-0.0001937781395856291
1772795248400270300,0.844270263671875,0.032574235868453975,-0.001881571396323852,0.013084148041298612
1772795248410315500,0.8543154296875,0.024047230541706082,-0.00700675293992972,0.01384731443352066
1772795248420359400,0.864359375,0.034222587597370145,-0.006875541475426871,-0.0006539521303959191
1772795248430404400,0.874404296875,0.03302607128918171,0.0004720368168957066,-0.007683165780594572
1772795248440448500,0.884448486328125,0.04200608108043671,0.005134153726283694,-0.008762375852046533
1772795248450492000,0.894491943359375,0.033627544313669204,0.008430027208698447,-0.0012101155752781778
1772795248460536800,0.904536865234375,0.030190555602312086,0.012438164588226936,0.010344904936291277
1772795248470581000,0.9145810546875,0.02196224096119404,-0.0004454467791365459,0.0011371051379945128
1772795248480626000,0.9246259765625,0.017018354818224907,-0.01649669300621026,0.0001418287566397339
1772795248490670000,0.934670166015625,0.03257715847790241,-0.018652099208120488,0.010413704989338293
1772795248500714000,0.9447138671875,0.03317687793672085,-0.00205232371170423,-0.002386264948872849
1772795248510759000,0.954759033203125,0.03736789988577366,-0.011986615720222471,0.006689889560081064
1772795248520803000,0.964802978515625,0.041109424501657485,-0.0018141139169922098,0.009557599616656079
1772795248530848000,0.974847900390625,0.04125906210541725,0.009374807520321337,-0.007978175804950296
1772795248540892000,0.984891845703125,0.032279052314162254,-0.0028418883454403836,-0.014681883827829733
1772795248550936800,0.994936767578125,0.06011281565725803,-0.01137863532313495,0.0007986395644024014
1772795248560981000,1.00498095703125,0.031235096219182013,-0.00755605396082974,-0.0035183651181869206
1772795248571025000,1.01502490234375,0.03422551020681858,-0.00010180384857230819,-0.0008114259807392954
1772795248581069800,1.02506982421875,0.04036182100474834,0.0009999491315393243,-0.004154827257664874
1772795248591114000,1.035114013671875,0.031232758131623267,0.003956199413025751,-0.011408826107066124
1772795248601159000,1.045158935546875,0.032576573956012725,0.012039643957046792,0.00815038143354468
1772795248611203000,1.055203125,0.03287526464164257,0.010003756498557049,0.004628189523611217
1772795248621248000,1.065248046875,0.03781564365327358,-0.00577631267089746,-0.005846899397298693
1772795248631292000,1.0752919921875,0.030033903735876083,0.006152658002887619,-0.007954374804254621
1772795248641336000,1.085336181640625,0.021653028881549834,-0.0024359401763416827,0.009330521995667368
1772795248651381000,1.095381103515625,0.03182780141532421,0.0024727913132112007,0.005540527728712186
1772795248661425000,1.1054248046875,0.03721650871634483,0.005017314422072376,-0.003761170031270012
1772795248671469800,1.1154697265625,0.02629647077322006,0.0015473447480762843,-0.026721445586485787
1772795248681514000,1.125513916015625,0.026893267622590065,-0.0030011511524266096,-0.005611364475218579
1772795248691559200,1.13555908203125,0.037515783923864364,0.007821881273185135,0.005450018167356029
1772795248701602800,1.145602783203125,0.03990940106213092,0.0081281342107628,0.001072661599656567
1772795248711647000,1.15564697265625,0.020758125868439673,-0.006110695724416291,0.004382014476507902
1772795248721692000,1.16569189453125,0.03287701820731163,-0.0043695671285327985,0.010120384598569943
1772795248731736000,1.175736083984375,0.03137888860404491,0.011315673639118904,0.0005571041597984731
1772795248741781000,1.185781005859375,0.03601765432059765,-0.0021591096960706635,0.00431378067904152
1772795248751825000,1.195824951171875,0.03377893548309803,-0.010092665474582463,0.0054289205804001536
1772795248761869800,1.205869873046875,0.040216275054216384,0.010504888120840768,0.0010183284633792937
1772795248771914000,1.2159140625,0.0390174206584692,-0.005340713715628953,0.009822451964765786
1772795248781958000,1.2259580078125,0.035275311520695685,-0.010518883538508089,-0.002661611291533336
1772795248792002800,1.2360029296875,0.031385318344831464,0.004852660770626971,0.015747366768028587
1772795248802047000,1.246046875,0.0367693494707346,-0.007334306677151471,-0.007766323152557015
1772795248812092200,1.256092041015625,0.033327684584259984,0.01116808757019462,0.0004376790312118828
1772795248822135800,1.2661357421875,0.034821722534298896,0.00365773591461475,0.013015064860461278
1772795248832180000,1.276179931640625,0.019558102428913114,-0.013961127238650806,0.01299299915912561
1772795248842225200,1.28622509765625,0.03212999923229217,-0.0018150146743573714,-0.007073472917033359
1772795248852269000,1.29626904296875,0.03302607128918171,0.004814704522059765,0.004810624285275116
1772795248862314000,1.30631396484375,0.026444354811310765,0.01000019228500314,0.0012142985600512475
1772795248872358000,1.31635791015625,0.017312953850626943,0.005682430692232446,0.0003672441435046494
1772795248882402800,1.32640283203125,0.024495558831095693,0.0010655982462747487,0.010125316502014174
1772795248892447000,1.336447021484375,0.02464519643485546,0.010502323987707495,0.0002489971918519586
1772795248902492200,1.3464921875,0.02913257098197937,-0.004747572411358123,-0.001077447372628376
1772795248912535800,1.356535888671875,0.02060147400200367,0.010315114869514945,0.005376194879319518
1772795248922580000,1.366580078125,0.034818215402960775,0.0006346720411907882,-0.016535850264597682
1772795248932625200,1.376625244140625,0.031825463327765466,0.0038915469537780154,-0.007407874236861243
1772795248942668800,1.386668701171875,0.03167641024589538,0.0035212728862592485,0.002342133546201512
1772795248952714000,1.3967138671875,0.02733867330253124,-0.005950526451843324,0.01786917209443636
1772795248962758100,1.406758056640625,0.022849545189738273,0.001906047108810162,0.002006106524867937
1772795248972802800,1.416802734375,0.019707155510783194,-0.001883186823030701,-0.01458725521378219
1772795248982847000,1.426846923828125,0.028238252490758894,0.01196118216815521,-0.010908658032584935
1772795248992891100,1.43689111328125,0.051582887721061704,0.004441713341069408,-0.0018447236843872814
1772795249002935800,1.446935791015625,0.0367734411239624,0.007842385205096798,-0.0052813927353359755
1772795249012980000,1.45697998046875,0.025402736803889273,0.002627647373138461,0.0005436875557992607
1772795249023025200,1.467025146484375,0.024801848301291465,0.0001556711939687375,0.00039530119420960546
1772795249033068800,1.47706884765625,0.02868891886770725,-0.0012433750991302076,-0.01226795455389656
1772795249043114000,1.487114013671875,0.027789924201369283,-0.001540364734729519,0.010558008830854669
1772795249053158100,1.497158203125,0.030936405533552168,-0.006060058090789243,0.010051182686723769
1772795249063201800,1.507201904296875,0.03752396723031998,0.009789387662091758,-0.013075498943962156
1772795249073247000,1.5172470703125,0.03842179285287857,-0.006549744728807126,-0.01335453508105129
1772795249083291100,1.527291015625,0.03677694825530052,-0.013088511405873577,-0.0007476217632181942
1772795249093335800,1.537335693359375,0.03363455857634544,0.0016290602232678793,0.019631578657077625
1772795249103380000,1.5473798828125,0.034383331117033955,-0.005267775201937184,-0.0047490850900765505
1772795249113425000,1.5574248046875,0.030045594173669813,-0.008553788302396424,0.009129957922268658
1772795249123468800,1.56746875,0.05159224007129669,0.0008140985700825694,0.005147445891052484
1772795249133514000,1.577513916015625,0.03842413094043731,0.002420183201495092,-0.013384848020924255
1772795249143558100,1.58755810546875,0.02555705058276653,-0.0035171058845066,0.0028866248195990917
1772795249153601800,1.597601806640625,0.02690612710416317,0.0006976474249386228,-0.0006862743642646818
1772795249163647000,1.60764697265625,0.039326632738113404,-0.004830808556778356,-0.009632418418535961
1772795249173691100,1.617691162109375,0.038278584989905357,0.0010796918453532271,-0.0066853503822814665
1772795249183735800,1.62773583984375,0.023914544072747228,0.0015326415109331718,0.017802454400621354
1772795249193780000,1.637780029296875,0.027056933751702306,-0.0031392946812149602,0.0140906216701027
1772795249203825000,1.647824951171875,0.029451719933748243,0.008924327231396455,-0.0060945722817443305
1772795249213868800,1.657868896484375,0.03947977747321128,-0.0023831870757974683,-0.006063473890582099
1772795249223914000,1.6679140625,0.027659575819969175,-0.005643700408819131,-0.004657662213267758
1772795249233958000,1.6779580078125,0.040977322554588316,-0.010206617560319136,-0.006749839586392045
1772795249244001800,1.688001708984375,0.0339455242216587,-0.013462334845570148,0.0069607423907145855
1772795249254047000,1.698046875,0.02915828994512558,0.007761456322838784,-0.004328612921992317
1772795249264091100,1.708091064453125,0.035739421901106835,0.004806968740175943,0.007742805279651656
1772795249274136000,1.718135986328125,0.01927870096564293,0.005371276675607078,0.014459327118331566
1772795249284180000,1.728179931640625,0.01733458116054535,-0.008232764770661014,0.0033174448517616834
1772795249294225000,1.738224853515625,0.021375965505838392,0.008794368150708031,0.005013736508786678
1772795249304269000,1.74826904296875,0.026763503763079642,0.006570385658036684,0.004048636069986969
1772795249314314000,1.75831396484375,0.015991349858045577,0.0013271227012039161,0.01687764030643739
1772795249324358000,1.76835791015625,0.028709377133846282,0.00490245929568191,0.007066997510474174
1772795249334401800,1.77840185546875,0.025416765329241753,0.0050521220156166235,0.0007310907535254955
1772795249344447000,1.788447021484375,0.025416180807352064,-0.01376826013122918,-0.0024657325264066457
1772795249354491000,1.798490966796875,0.038134792605042454,-0.0014960198445711284,0.013360937422374262
1772795249364536000,1.8085361328125,0.03753624219000339,0.0011593032700708136,0.012610986704751848
1772795249374580000,1.818580078125,0.04636427628993988,-0.002914798318024259,0.004196611439622938
1772795249384625000,1.828625,0.039033202749490736,0.007574147881590761,0.01861693998812698
1772795249394669000,1.8386689453125,0.025564649367332458,-0.0022761373715940864,-0.0004465381911024451
1772795249404714000,1.8487138671875,0.027211247530579564,-0.006683923326886724,-0.0005503182259853929
1772795249414758000,1.8587578125,0.029455227065086364,0.013926665563334245,0.001204553484171629
1772795249424803000,1.868802978515625,0.02750993821620941,-0.00447010261027026,0.007470427212212234
1772795249434847000,1.878846923828125,0.04142506632208824,-0.0030837160109891556,0.018044236400397495
1772795249444891000,1.888890869140625,0.04351940825283527,0.0038808851375128142,0.00856470698863268
1772795249454935300,1.898935302734375,0.028704700958728787,-0.0027852890451962593,-0.010921636245166882
1772795249464979500,1.9089794921875,0.02481120065152645,0.001956395906425314,0.007138966768141836
1772795249475024100,1.919024169921875,0.023164017966389654,0.0007435655009641778,-0.0036978042051661756
1772795249485068300,1.929068359375,0.023613515299558636,0.007602957275899825,-0.01325581481377594
1772795249495113500,1.939113525390625,0.047106034567952156,-0.008779853284877025,0.013193481034133583
1772795249505157000,1.9491572265625,0.03199263658821583,-0.00380620789952809,-0.017649117869278415
1772795249515202300,1.959202392578125,0.03663023326098919,0.0018355026232486124,-0.00033832857627421616
1772795249525246500,1.96924658203125,0.03169102329313755,0.0035257310073124244,-0.011942978649539871
1772795249535290400,1.979290283203125,0.02630699216723442,0.010008273985114646,-0.013850556703377514
1772795249545335300,1.989335205078125,0.032141105148196215,0.003505826438666554,0.009385777580551802
1772795249555379500,1.99937939453125,0.03004793226122856,0.001193751245655585,-0.008585128722153603
1772795249565424400,2.00942431640625,0.029452888977527618,0.01426584923120099,0.009434950484521686
1772795249575468300,2.01946826171875,0.014787234765291214,0.008514640177163527,-0.004383576245931909
1772795249585513500,2.029513427734375,0.02586217100918293,0.008762273104058112,-0.0012742851189803332
1772795249595557400,2.039557373046875,0.05324702154099941,0.0008525411591283046,0.01452490316783078
1772795249605602300,2.049602294921875,0.03424246134161949,-0.006279297181905712,-0.004509869506722316
1772795249615646500,2.059646484375,0.04157645749151707,-0.0007784895422286353,0.004735677619231864
1772795249625691400,2.06969140625,0.023769582644104958,0.001423251435882412,0.017288842322677373
1772795249635735300,2.0797353515625,0.0164390936255455,-0.007901290626858827,-0.0014254844921641051
1772795249645780200,2.0897802734375,0.028859014737606048,0.008057736997317988,-0.00864586419975385
1772795249655824400,2.099824462890625,0.031852935856580736,0.0012219236024364362,0.001316726888064295
1772795249665868300,2.109868408203125,0.030807226195931434,-0.002985951300006127,0.004712698602443561
1772795249675913200,2.119913330078125,0.04352408442795276,-0.0037834526450256814,0.005916165241226554
1772795249685957400,2.129957275390625,0.027213585618138313,-0.006127979077713098,0.00023891418925486504
1772795249696002300,2.140002197265625,0.01689092904627323,0.004392740224854788,0.008753927684109658
1772795249706046500,2.15004638671875,0.023021979147195816,-0.0034870383981615303,-0.006790600855043158
1772795249716091400,2.16009130859375,0.032898645517230034,0.009667255694832419,0.001928127651521936
1772795249726135300,2.17013525390625,0.027062194448709487,0.001929525024164468,-0.004400152921397239
1772795249736180200,2.18018017578125,0.029307927548885344,-0.0012746447369398083,-0.004306282359175384
1772795249746224400,2.190224365234375,0.04547112684249878,0.001801463356328895,0.008098231121199204
1772795249756269600,2.20026953125,0.021528525719046593,0.005177540776861133,-0.011206983392033725
1772795249766313200,2.210313232421875,0.023323592442274093,-0.008191320798709057,0.012839260768983512
1772795249776358400,2.2203583984375,0.029008067819476124,0.00400284129154752,-0.005986499664233997
1772795249786402300,2.23040234375,0.04217559242844581,0.0039912090776138935,0.005950542434863746
1772795249796446200,2.2404462890625,0.03544248478114605,0.0015315500989672728,-0.015249564180569723
1772795249806491400,2.250491455078125,0.009705401456356047,0.005056202252401272,-0.015072645844239741
1772795249816535300,2.260535400390625,0.017786416581273078,0.0007486127104843035,0.003519981686538085
1772795249826580200,2.270580322265625,0.02571779410243034,-0.0035906894272367935,0.0028028646594379096
1772795249836624400,2.280624267578125,0.04247895928919315,0.0012721205613575874,0.0038246637215372174
1772795249846669300,2.29066943359375,0.02856266213953495,0.005432304414152167,0.0023339137071277946
1772795249856713200,2.300713134765625,0.02871463783085346,0.00036695987407001665,0.004883342461613938
1772795249866758400,2.31075830078125,0.039488545301556585,-0.0001378946503275074,0.012675211047381162
1772795249876802600,2.320802490234375,0.0306605112016201,0.020500219284347258,-0.0017831844891887157
1772795249886847200,2.33084716796875,0.024527707535028455,-0.0055934509342594535,-0.0115129623349756
1772795249896891400,2.340891357421875,0.030363574081659316,-0.00587328165579238,0.002422185645624995
1772795249906936300,2.350936279296875,0.0454787256270647,-0.0015962185412354301,-0.004641934921173378
1772795249916980200,2.360980224609375,0.02632686591148376,-0.0024879203836841043,-0.004974728805804625
1772795249927025400,2.371025390625,0.04099193560183048,-0.0016740992331702727,-0.005221086515998468
1772795249937069300,2.3810693359375,0.028121932634711265,0.008369697014830308,-0.006501527381129563
1772795249947113200,2.39111328125,0.02722586057782173,-0.002081799826293718,-0.0008497304308228194
1772795249957158400,2.401158447265625,0.02917173394858837,-0.011412812729016878,0.007409152878494933
1772795249967202300,2.411202392578125,0.026479426124691962,0.004125916257011704,-0.01601570798116736
1772795249977247200,2.421247314453125,0.023337036445736883,0.0019288023633125702,0.0006059939359780401
1772795249987291400,2.43129150390625,0.021390578553080557,0.00039418580771307456,0.0003854008547030389
1772795249997336300,2.44133642578125,0.023485505005717278,-0.010816840146842878,-0.004279814477358013
1772795250007380200,2.451380126953125,0.031117022797465324,0.0068293505464098415,0.0027656470547430217
1772795250017425400,2.46142529296875,0.03231529267132282,0.010209831289068097,-0.002711615312565118
1772795250027469300,2.47146923828125,0.025730653584003445,-0.004416387103567831,0.009089096188917756
1772795250037514500,2.481514404296875,0.02962123128175735,-0.014129058550926856,-0.0006310553119983523
1772795250047558400,2.491558349609375,0.03620587036907673,0.001043921845650766,0.025313487617857754
1772795250057603300,2.501603271484375,0.028424130451679228,-0.0006665650167968124,-0.0003215144387912005
1772795250067647500,2.5116474609375,0.041591655060648915,-0.002065784839831758,0.006660791329760104
1772795250077692200,2.521692138671875,0.032766543570160865,0.014342230944149196,-0.005532508819038048
1772795250087736300,2.531736328125,0.019597265395522118,-0.003410247976548271,0.002167142305476591
1772795250097781500,2.541781494140625,0.036056817287206645,0.0009111748695431743,0.0069265935259405515
1772795250107825200,2.5518251953125,0.032764205482602116,0.011451673159882193,-0.007347860278468578
1772795250117869300,2.561869384765625,0.03740238667726516,0.018608877695968837,0.003257440026523545
1772795250127914500,2.57191455078125,0.0306692790299654,-0.001120148294972023,0.012133414054568857
1772795250137958400,2.58195849609375,0.04338789082765579,-0.005785562273144023,0.0023492117409594357
1772795250148003300,2.59200341796875,0.03785188401043415,0.0013757270663045345,0.0020639650587923825
1772795250158047500,2.602047607421875,0.028874796828627584,0.005350982806249521,0.0050064208520110695
1772795250168092200,2.612092041015625,0.04129471794068813,0.00021667381633887998,0.0035237445462029423
1772795250178136300,2.62213623046875,0.03426175056397915,0.011017729588871589,-0.004266681001149118
1772795250188181500,2.632181396484375,0.023187983363866804,-0.012189331793156451,-0.007306761083099991
1772795250198225200,2.64222509765625,0.021092472389340398,0.0075911264158552505,-0.0015043492814991622
1772795250208270300,2.652270263671875,0.0236368961751461,0.0029050863498297982,-0.008210304060392082
1772795250218314500,2.662314453125,0.033959552747011186,-0.009235966446856037,-0.0034121191315818577
1772795250228359200,2.672359130859375,0.01764905393719673,-0.007308442725177155,0.011995156361348926
1772795250238403300,2.6824033203125,0.03396013726890087,-0.006145800145482644,-0.0038432314246892928
1772795250248448300,2.6924482421875,0.029769699841737746,-0.004084202857001219,0.012581614479795097
1772795250258492200,2.7024921875,0.038597149419784545,-0.014415901251847388,0.0004163896480109542
1772795250268537300,2.712537353515625,0.026775194200873372,-0.003094593598030042,-0.003058565586712211
1772795250278581500,2.72258154296875,0.025278233641386032,0.009928647719020954,0.011279473239509388
1772795250288626400,2.73262646484375,0.04278700232505798,-0.0009282641433062962,0.007895118897687643
1772795250298670300,2.74267041015625,0.024382161584496496,-0.0038383018045336937,0.003609139541024342
1772795250308715300,2.75271533203125,0.019143676409125326,-0.005707377903821179,-0.0033487533054780212
1772795250318759400,2.762759521484375,0.03261106074750423,-0.002363605592492968,0.003685702775418758
1772795250328804400,2.772804443359375,0.020189386069774627,0.018483011410152538,-0.00031871056035161015
1772795250338848300,2.78284814453125,0.026025837138295174,0.007635841198771959,0.014251200792985036
1772795250348892400,2.792892333984375,0.04727554591596126,0.0012283099607389885,0.011922757845418528
1772795250358937300,2.802937255859375,0.020937574088573455,0.00677801080152858,-0.002088697641249746
1772795250368981200,2.812981201171875,0.02168400854170322,0.005040109634125838,-0.0017624522284138946
1772795250379026400,2.8230263671875,0.03260638457238674,-0.0011511462214344645,0.0019134780716616659
1772795250389070300,2.8330703125,0.024826982742547986,0.009638462283543776,-0.004416939659416676
1772795250399115300,2.843115234375,0.03245733149051666,-0.0013958964964316692,0.002527618781477213
1772795250409159400,2.853159423828125,0.02691957110762596,-0.00863574466453865,-0.008018562614265829
1772795250419204400,2.863204345703125,0.03170797442793846,0.0018370164436113555,0.017430278353672474
1772795250429248300,2.873248291015625,0.030960370931029317,0.014846519212966085,0.023448095604777335
1772795250439293400,2.88329345703125,0.04068739969730377,0.011335357870411825,0.0011558098384644837
1772795250449337300,2.89333740234375,0.033355157113075254,0.01535233157694456,-0.003778586956951767
1772795250459382800,2.9033828125,0.028414778101444244,0.00906160881872638,0.004596561409486458
1772795250469426700,2.9134267578125,0.04023614879846572,-0.011499929323466494,-0.0024488635899964717
1772795250479471600,2.9234716796875,0.051608022162318225,-0.0010897531567083205,-0.0011222546287346631
1772795250489515800,2.933515869140625,0.02018237180709839,-0.000049919539352413264,0.005339296935033053
1772795250499561000,2.94356103515625,0.03888590323328971,-0.0023000045876600777,-0.0005700367066077888
1772795250509604600,2.9536044921875,0.03693827629685402,0.014903338850563158,0.008253713943855837
1772795250519649800,2.96364990234375,0.02616495334804058,0.00307074807320605,0.004404326773015782
1772795250529693700,2.973693603515625,0.022724457505345342,-0.002762746136536589,0.009092384124547243
1772795250539738600,2.983738525390625,0.05205284332036972,-0.0021981961725105067,-0.0009627897507045417
1772795250549782800,2.99378271484375,0.032150457498431206,-0.0003822624744789209,0.004251456032553688
1772795250559827700,3.00382763671875,0.02721241657435894,-0.002244851750764064,-0.011000327504565938
1772795250569871600,3.01387158203125,0.025715456014871595,-0.0015023011715966277,0.005861923436494543
1772795250579916800,3.023916748046875,0.022272037562727928,-0.0013099637871375306,-0.005603948353743181
1772795250589960700,3.033960693359375,0.029754502272605895,0.00004756318548461422,0.010868335155351086
1772795250600005600,3.044005615234375,0.04801087445318698,0.0008939074992667883,0.0004439078425988555
1772795250610049800,3.0540498046875,0.025263620594143867,-0.007256495625519892,0.007766971606528386
1772795250620094700,3.0640947265625,0.0311006561845541,-0.00039157372551853765,0.00019476452027447522
1772795250630138600,3.074138671875,0.024817045870423316,0.018094387693546012,0.0040347354087978595
1772795250640183800,3.084183837890625,0.017485387808084486,0.01618286868353025,-0.002083162949606776
1772795250650227700,3.094227783203125,0.02796002007126808,0.00007510763789177872,0.006460857444023713
1772795250660272600,3.104272705078125,0.019879589468240737,0.0012242514151963404,-0.014470743561489507
1772795250670316800,3.11431689453125,0.02571487149298191,-0.005828204971627565,0.007340151896048337
1772795250680361700,3.12436181640625,0.023172201272845267,0.016019796209462218,0.0014189268872141837
1772795250690405600,3.134405517578125,0.03200023537278175,0.005304391160077648,-0.008201006509084254
1772795250700450600,3.144450439453125,0.028707039046287536,0.00887163920457824,-0.00962653666702099
1772795250710494700,3.15449462890625,0.0225695592045784,-0.0028333020385412962,-0.003332176630012691
1772795250720540000,3.164539794921875,0.01807867752611637,0.007943255188618787,0.0063927241112571205
1772795250730583600,3.17458349609375,0.03812953190803527,0.012327161369757958,-0.005607912142807618
1772795250740628700,3.184628662109375,0.033790041399002074,0.014577071746485306,0.004573043536581099
1772795250750673000,3.1946728515625,0.02660685189664364,0.015373869838606332,0.0015403065108694136
1772795250760717600,3.204717529296875,0.022116554740071296,0.0005520466754795052,-0.010831272814283147
1772795250770761700,3.21476171875,0.039623569858074185,0.001450469378015259,-0.008471009956346824
1772795250780806700,3.224806640625,0.04291384357511997,-0.014432142283883877,-0.002477075904328376
1772795250790850600,3.2348505859375,0.03977028485238552,-0.001984379891894059,0.001500175429880619
1772795250800895700,3.244895751953125,0.034682021802663804,-0.00021724349685246124,-0.0034674203822389242
1772795250810940000,3.25493994140625,0.03677753277719021,-0.0008256577187799848,-0.012865445523010567
1772795250820984600,3.264984619140625,0.031090719312429425,0.0011983463640266563,-0.002598793454701081
1772795250831028700,3.27502880859375,0.03243628870248794,-0.0026987524060590657,0.0010705335746519268
1772795250841073700,3.28507373046875,0.02420855858325958,0.01561725927357911,0.00001584602310322225
1772795250851117600,3.29511767578125,0.0361807359278202,-0.0020159075413190295,0.007560644512623548
1772795250861161700,3.30516162109375,0.032740240085124966,0.004463428557600127,-0.003857296482659876
1772795250871206700,3.31520654296875,0.021367197677493094,0.0032059210434847046,-0.011535037169465795
1772795250881251800,3.325251953125,0.02121931363940239,0.0007368857400724664,0.008933056243835016
1772795250891295700,3.335295654296875,0.03289163125455379,-0.00013842779822298326,0.002081939106900245
1772795250901340700,3.345340576171875,0.0290004690349102,-0.008256725601560901,0.0038511224702000614
1772795250911384800,3.355384765625,0.04441255770027637,-0.003477542200742755,0.004075286614894867
1772795250921428700,3.3654287109375,0.032141105148196215,-0.002918491537385853,-0.0037826146780978887
1772795250931473700,3.3754736328125,0.027950083199143407,0.0023609330031496936,0.0005070544729940593
1772795250941517800,3.385517822265625,0.02735211730599403,0.007716472111863549,-0.004565070292679592
1772795250951562800,3.395562744140625,0.032441549399495125,-0.0018560168299591167,0.0031835345400962976
1772795250961607700,3.405607666015625,0.030046763217449188,0.0091440560879244,-0.0036087376822251825
1772795250971651800,3.41565185546875,0.028251696494221684,-0.002434744874743046,0.006734112294297665
1772795250981696500,3.425696533203125,0.035733576682209965,-0.005360065728425979,0.008554231260390953
1772795250991740700,3.43574072265625,0.024508418312668798,-0.006527159579307772,0.0016634305670391767
1772795251001785900,3.445785888671875,0.01597907489836216,-0.0008886125529301353,0.01603441268163733
1772795251011829500,3.45582958984375,0.038574937587976456,0.0019255749348318202,0.020416098364582285
1772795251021874700,3.465874755859375,0.031843583506345745,-0.006157982631976483,0.00843989329887554
1772795251031918800,3.4759189453125,0.03483516653776168,0.004084225689887535,-0.019656895761424674
1772795251041963800,3.4859638671875,0.02331190200448036,0.0127065845748235,-0.002648770076269284
1772795251052007700,3.496007568359375,0.043214287826418875,0.015492719578457763,0.014590881076129153
1772795251062052600,3.506052490234375,0.022414660903811452,-0.014521986266603925,0.008442934639332815
1772795251072096800,3.5160966796875,0.03647942661345005,-0.00037992781185312196,0.0034315818838775154
1772795251082141700,3.5261416015625,0.025105215162038803,0.004946426301571773,-0.008511214102571829
1772795251092185900,3.536185791015625,0.027048165923357008,-0.007850614177325042,-0.0009983725207392126
1772795251102230800,3.546230712890625,0.02420563597381115,-0.005843477889284259,0.015035720500489696
1772795251112274700,3.556274658203125,0.02779752298593521,-0.009976862783409887,0.012796408007945865
1772795251122319600,3.566319580078125,0.028395488879084586,0.0032283520710014273,-0.01552009735079482
1772795251132363800,3.57636376953125,0.028545126482844352,0.009706062468414893,0.0025836689508054404
1772795251142408700,3.58640869140625,0.03378302713632583,0.007619546509452629,0.005159054130455479
1772795251152452600,3.59645263671875,0.03393324926197529,-0.008581501718162325,-0.007193939225235954
1772795251162497800,3.606497802734375,0.035280572217702866,-0.002213753359601833,0.01783173529403284
1772795251172541700,3.616541748046875,0.0384206238090992,-0.010186638784792739,0.010630544344102964
1772795251182586600,3.626586669921875,0.027646131816506384,0.006767551056307274,-0.00125070331399329
1772795251192630800,3.636630859375,0.03542670269012451,-0.00752920591145521,0.00424013092094101
1772795251202675700,3.64667578125,0.031087796702980994,0.0069728849196573715,-0.0060455911740195005
1772795251212719600,3.6567197265625,0.03482639870941639,0.0073338340364047325,-0.0022773064153734594
1772795251222764800,3.666764892578125,0.02255728424489498,-0.012850815351103665,0.012461970155499874
1772795251232808700,3.67680859375,0.03153846307992935,0.009424022665130906,0.009658374843699857
1772795251242853600,3.686853515625,0.04365852446258068,-0.011778346689336467,-0.0046176133306697
1772795251252897800,3.696897705078125,0.026449615508317946,-0.005407918891566805,0.00177190504334867
1772795251262942700,3.706942626953125,0.012232874107360838,-0.02002524045004975,0.001852167205326259
1772795251272986600,3.716986572265625,0.031983868759870526,0.00805605649688514,0.0037019415241666136
1772795251283031800,3.72703173828125,0.04156125992238521,0.00869924292138312,0.007800024492759257
1772795251293075700,3.73707568359375,0.025999533653259275,-0.003404514638794353,0.0006474675906822085
1772795251303120600,3.74712060546875,0.03407879521250724,-0.010866174022661289,0.0005860471264924853
1772795251313164800,3.757164794921875,0.03617313714325428,0.010087290613143705,-0.00797996590323746
1772795251323209700,3.767209716796875,0.04545183762013912,0.006403739837260218,-0.009392800976382568
1772795251333253600,3.777253662109375,0.03243161252737045,-0.01707168102421565,-0.012958841161197051
1772795251343298600,3.787298583984375,0.026446108376979825,-0.013061395070084835,-0.00249121402753517
1772795251353342700,3.7973427734375,0.03437631685435772,0.002400932795042172,-0.024232797975372523
1772795251363388000,3.807387939453125,0.029586744490265843,0.0012863602909084875,-0.004840855026757344
1772795251373431800,3.817431884765625,0.017765958315134046,0.003119112693000352,-0.007510028570238501
1772795251383476700,3.827476806640625,0.027341595911979672,0.008007333400775678,-0.006089585579372942
1772795251393521000,3.83752099609375,0.038266310030221934,0.013300487355852965,-0.017833223998220637
1772795251403565600,3.847565673828125,0.03317921602427959,0.0012077009975502732,-0.004913554936787114
1772795251413609700,3.857609619140625,0.009539397239685058,0.01706072009713971,-0.0009841156665235757
1772795251423655000,3.867655029296875,0.02121054581105709,0.003310451138683129,0.0008048775089439004
1772795251433698600,3.877698486328125,0.01597381420135498,-0.001169249275350012,-0.009644565514056012
1772795251443743700,3.88774365234375,0.028993454772233963,-0.004142173272068612,-0.006867529415618628
1772795251453788000,3.897787841796875,0.031688685205578805,-0.013349217301828321,-0.007940446743601932
1772795251463832800,3.907832763671875,0.036925416815280915,-0.004061311746825231,-0.0037886151606217025
1772795251473877000,3.917876953125,0.014781974068284034,0.0023288459480099843,-0.0019650712615810334
1772795251483921700,3.927921630859375,0.03453530680835247,0.0023464284121175296,0.012314350978890434
1772795251493965800,3.9379658203125,0.021219898161292074,0.004764246126590296,-0.008930964751448481
1772795251504011000,3.948010986328125,0.021517419803142545,-0.010691014960221946,0.0035647889426443724
1772795251514055700,3.9580556640625,0.030495091506838795,0.0006950798668724019,0.0020240349072031677
1772795251524099800,3.968099853515625,0.03154372377693653,-0.0016963396060862578,-0.009593218919308855
1772795251534144800,3.978144775390625,0.03229483440518379,0.006354815811751177,-0.013751261047367005
1772795251544188700,3.988188720703125,0.03334171310961246,0.000623311538604321,0.0009054883392062038
1772795251554233900,3.99823388671875,0.024513094487786293,-0.0020313391475356183,0.011377590718585998
1772795251564277800,4.00827783203125,0.03094458884000778,-0.007741520929796388,-0.01486788051975891
1772795251574323000,4.018322998046875,0.03543371695280075,0.0032447072674694935,0.0004159329902846366
1772795251584366800,4.028366943359375,0.03094283527433872,0.003760244157729903,-0.006882087663933634
1772795251594411800,4.038411865234375,0.04081833260059357,0.00271601749304682,0.0072914082503411914
1772795251604456000,4.0484560546875,0.04022036670744419,-0.007990438206546241,-0.006754899353999644
1772795251614500900,4.0585009765625,0.034084055909514424,0.005398443243745714,-0.0021662289900239557
1772795251624544800,4.068544677734375,0.02615267838835716,0.008715084377909079,0.0012159242615569382
1772795251634590000,4.07858984375,0.024055413848161695,-0.0057654362255008884,-0.007008380924724042
1772795251644633900,4.0886337890625,0.027795184898376464,-0.006120414542476646,-0.0003704407475888729
1772795251654678800,4.0986787109375,0.021510990062355993,-0.00017955325141083447,0.005642928657261654
1772795251664723000,4.108722900390625,0.0331833076775074,0.00009522112744743935,-0.005511466031009331
1772795251674767600,4.118767578125,0.014926935496926306,0.016487850970984437,0.001024210214894265
1772795251684811800,4.128811767578125,0.03916939634978771,-0.009415064182184869,-0.00115193738094531
1772795251694857000,4.13885693359375,0.03093991266489029,0.0027763282789615915,-0.00782931451932527
1772795251704900900,4.14890087890625,0.01672550935149193,-0.0012205753204994835,-0.015101999802887438
1772795251714945800,4.15894580078125,0.045156069543957705,-0.001697996131988475,0.00853690566625446
1772795251724990000,4.168989990234375,0.032437457746267315,-0.0008137834762514103,0.002888880708767101
1772795251735035000,4.179034912109375,0.02779869202971458,0.0007028932805696967,0.004369228060171008
1772795251745079800,4.189079833984375,0.027198972570896148,-0.00013016914324252864,-0.0030321525038219986
1772795251755124000,4.1991240234375,0.04036766622364521,-0.00914855074159568,0.009420109108416364
1772795251765169000,4.2091689453125,0.038871290186047555,-0.007291870616289088,-0.00013111556638032196
1772795251775212800,4.219212890625,0.034682606324553486,-0.004550456103793113,-0.003964063059072941
1772795251785257700,4.2292578125,0.019121464577317237,-0.000901727762829978,-0.018711806064192205
1772795251795302000,4.239302001953125,0.042463177198171616,0.004820163865177892,0.0026028029095381496
1772795251805346800,4.249346923828125,0.03512918104827404,-0.004039978981140302,-0.00473105624304153
1772795251815390700,4.259390625,0.031386487388610836,-0.0027755188531416934,-0.008263943076925353
1772795251825436000,4.269435791015625,0.04201251082122326,0.004226950637315167,0.007389270001091063
1772795251835479800,4.279479736328125,0.021812603357434273,-0.0052335418554837814,-0.0023925942249596118
1772795251845524700,4.289524658203125,0.030789690539240834,0.012882906972820638,-0.0032071437445469198
1772795251855569000,4.29956884765625,0.030339608684182166,0.008070131829654565,0.0107938268807251
1772795251865613800,4.30961376953125,0.026899112841486928,0.0005228445555258076,0.012803321805922314
1772795251875657700,4.31965771484375,0.013731003710627555,0.008817420232732546,-0.0006636606736574322
1772795251885703000,4.329702880859375,0.02076338656544685,-0.011992218910524387,-0.02001460489160381
1772795251895747000,4.3397470703125,0.025400398716330527,-0.00540727957074996,0.01308983799656853
1772795251905791700,4.349791748046875,0.023901684591174123,-0.005456818942545214,0.006931178369512781
1772795251915836000,4.3598359375,0.03856675428152084,0.0005355818811571226,-0.013651234738994388
1772795251925883000,4.3698828125,0.028989947640895842,0.004234135004994459,-0.019947631469462067
1772795251935927000,4.379927001953125,0.03931494230031967,0.0025099552606232464,0.002515745680592954
1772795251945971700,4.3899716796875,0.04290682931244373,0.00817615747890668,0.000020138605730608104
1772795251956015900,4.400015869140625,0.028992870250344274,0.0037006514660897663,-0.007164594399742782
1772795251966060800,4.410060791015625,0.04575111282765865,-0.007453915610472904,0.0030967695720959454
1772795251976104700,4.420104736328125,0.033331776237487794,-0.007851008044613991,0.0006078479663468897
1772795251986150000,4.43014990234375,0.027796938464045524,-0.011114821871352614,0.008790789095778018
1772795251996193800,4.44019384765625,0.038570845934748646,0.007024382211454213,0.006545247791847213
1772795252006239000,4.450239013671875,0.03737549867033958,-0.009447273393266368,0.0000944550841115415
1772795252016283000,4.460282958984375,0.021664719319343564,0.010296544883074238,-0.014667471709987149
1772795252026327800,4.470327880859375,0.03782733409106731,0.005379009032557951,-0.002557338066305965
1772795252036373000,4.480373046875,0.028549802657961844,0.0044733003559987985,-0.009300738778756932
1772795252046416600,4.490416748046875,0.028999299991130826,0.0018389115731755736,-0.005654801758145913
1772795252056461800,4.5004619140625,0.02286357371509075,0.007990542096178978,-0.009578112681722269
1772795252066506000,4.510506103515625,0.030944004318118095,0.01832405570548726,-0.010499812370212748
1772795252076550700,4.520550537109375,0.01762684210538864,-0.007031774358398979,0.004801408932358026
1772795252086594800,4.5305947265625,0.030049101305007934,0.017490133623505242,-0.010455744899623096
1772795252096639700,4.5406396484375,0.040973230901360506,-0.0008227636504394468,0.00889047747743316
1772795252106683600,4.55068359375,0.020172434934973716,0.010418239600560627,0.003274363761860877
1772795252116728800,4.560728759765625,0.013887071055173873,0.005180262456909986,0.01727958130398765
1772795252126773000,4.57077294921875,0.023162848922610283,0.0030508206716738638,-0.007074422765104099
1772795252136818000,4.58081787109375,0.02151683528125286,0.009893680295272498,-0.013525973524665459
1772795252146861800,4.59086181640625,0.03797814073860645,-0.006270517937117256,0.0017874953381251542
1772795252156906800,4.60090673828125,0.03363923475146294,0.008625814642279874,0.024615276220627126
1772795252166952000,4.610951904296875,0.04411211344897747,-0.0023601018860877955,-0.009939411141630262
1772795252176995800,4.620995849609375,0.0375274743616581,0.00996132500427193,0.010534280895395204
1772795252187040800,4.631040771484375,0.030043840608000753,0.002525935997755732,0.00024024762981571257
1772795252197085000,4.6410849609375,0.03632686640024185,0.008845262654306133,0.0035698304439429193
1772795252207129900,4.6511298828125,0.033034839117527005,-0.007367444045061711,0.006254959608381613
1772795252217173800,4.661173828125,0.025699089401960373,-0.004951715539686847,-0.0004080602110829204
1772795252227219000,4.671218994140625,0.05023848737478256,0.005861640308704227,-0.004661178477760404
1772795252237262800,4.681262939453125,0.02629705529510975,-0.0052768729654897465,0.013508602264756336
1772795252247307800,4.691307861328125,0.022406477597355843,-0.0015530050205939915,-0.006222299447795376
1772795252257352000,4.70135205078125,0.031086043137311933,-0.007160918305045925,-0.0006506824610754847
1772795252267396900,4.71139697265625,0.017170915031433105,-0.000864477050449932,-0.00490016573225148
1772795252277440800,4.721440673828125,0.019714169773459432,-0.002928466083772946,-0.011825115290377289
1772795252287486000,4.73148583984375,0.027046996879577637,-0.001621654376591323,-0.0017767638815566896
1772795252297529900,4.74152978515625,0.028094460105895995,-0.0014618013394938315,0.020856773070478812
1772795252307574800,4.75157470703125,0.01971475429534912,-0.004521835080796154,0.01843179267956875
1772795252317619700,4.76161962890625,0.027196049961447713,0.0009898044801491777,-0.0014977368776220828
1772795252327663900,4.771663818359375,0.018515899899601937,0.006380492534057702,-0.004247967167524621
1772795252337709000,4.781708984375,0.02255728424489498,-0.004848799729550955,0.006750414975127205
1772795252347752700,4.791752685546875,0.036922494205832476,0.002777537280292017,0.00253215795927681
1772795252357798000,4.8017978515625,0.024203297886252403,0.003871919804700883,0.0023965397477149963
1772795252367841800,4.811841796875,0.02689560571014881,-0.001249183785408968,-0.002891702853515744
1772795252377886700,4.82188671875,0.02943886045217514,0.0005275458468182478,0.003797574785212055
1772795252387931000,4.831930908203125,0.03452653898000717,0.009027319531701505,0.0018814846313558518
1772795252397975800,4.841975830078125,0.03452770802378654,-0.0017282805307535453,-0.02109855507025495
1772795252408019700,4.852019775390625,0.025400983238220213,-0.004804626086039934,0.00039833340151235457
1772795252418065000,4.86206494140625,0.03453063063323498,0.003618731636565644,-0.00576607097974047
1772795252428109800,4.87210986328125,0.03812310216724872,0.011874680919991805,-0.001974332280270755
1772795252438153700,4.88215380859375,0.0376753583997488,0.003915568291826639,-0.0054814818846993145
1772795252448198700,4.89219873046875,0.045156654065847394,0.0022707921929075382,-0.00834322799136862
1772795252458242600,4.90224267578125,0.017772972577810287,0.005361966566211776,0.009432402334408833
1772795252468287500,4.91228759765625,0.03288520151376724,-0.0017876152107783125,0.009511577650997787
1772795252478331600,4.92233154296875,0.031389409998059274,0.008296122605254641,-0.009440092450520023
1772795252488376600,4.93237646484375,0.03079202862679958,-0.00047460209167329593,-0.011174149701511487
1772795252498420500,4.94242041015625,0.03348492097258567,0.002503042604291113,0.006452820268040523
1772795252508465400,4.95246533203125,0.024508418312668798,0.00854558901292039,0.002830976509070024
1772795252518509600,4.962509521484375,0.025405659413337705,0.00474367255437537,-0.009786010678205639
1772795252528554500,4.972554443359375,0.03887479731738567,-0.003429283753869822,0.00277181193404831
1772795252538599400,4.982599365234375,0.0330395152926445,0.007931307880854001,-0.016490622883383182
1772795252548643600,4.9926435546875,0.02944879732429981,0.004489118979638442,-0.013765344371646641
1772795252558688800,5.002688720703125,0.032142858713865276,0.00883231869105366,0.006452948132203891
1772795252568732400,5.012732421875,0.018674889853596686,0.014885798627295298,0.01255799614218995
1772795252578777600,5.022777587890625,0.021069091513752938,0.006139904694235883,-0.008691100714122876
1772795252588821800,5.03282177734375,0.03663023326098919,-0.009334048534958856,-0.0047079219626262785
1772795252598866400,5.042866455078125,0.026304654079675673,0.0035299037172866515,0.01634683963167481
1772795252608910600,5.05291064453125,0.02974339635670185,-0.0015277860976580994,0.0002707432327792048
1772795252618955500,5.06295556640625,0.03198679136931896,0.007304878511623246,0.008290310494042932
1772795252628999400,5.07299951171875,0.02495323947072029,0.01223559350412106,0.0015339133027009665
1772795252639044600,5.083044677734375,0.030489830809831617,0.003973757902602665,-0.010725720947422086
1772795252649089500,5.093089599609375,0.03213467540740966,0.002070674502436304,-0.003922817733231932
1772795252659133400,5.103133544921875,0.016274258452653883,0.003928933521831641,-0.004899973936006426
1772795252669178400,5.113178466796875,0.029441198539733884,0.0007455508204293437,0.010760253404686226
1772795252679222500,5.123222412109375,0.03003916443288326,-0.0017847942076739854,-0.00036182818287052213
1772795252689267700,5.133267822265625,0.031385318344831464,0.0026495144283631817,0.001847070905100554
1772795252699311600,5.1433115234375,0.026745383584499356,0.01534706060513854,0.0058235367880202825
1772795252709356500,5.1533564453125,0.014326631516218184,0.002946813449572073,0.0009688632984645664
1772795252719400700,5.163400634765625,0.03587503097951412,0.007630500586662674,-0.0019831914401613176
1772795252729445400,5.1734453125,0.020014614024758338,0.010460234986717113,0.003919895123783499
1772795252739489500,5.183489501953125,0.026449615508317946,0.016858199245383728,0.0006543265897314995
1772795252749534700,5.19353466796875,0.04156009087860584,0.020250509706442245,-0.014320521435840054
1772795252759579600,5.20357958984375,0.02839256626963615,0.0012833303668943698,-0.0035224476382602005
1772795252769623600,5.21362353515625,0.024953823992609977,-0.0022756738640018737,0.0011519556472543626
1772795252779668500,5.22366845703125,0.0375227981865406,0.013832894324167863,-0.005876527350582182
1772795252789712400,5.23371240234375,0.028094460105895995,0.004994617391430074,0.0006285162950400262
1772795252799757600,5.243757568359375,0.031686931639909745,0.0068089562123524955,-0.00021334135658107698
1772795252809801500,5.253801513671875,0.0391699808716774,0.014668571113463258,-0.010159374035242945
1772795252819846700,5.2638466796875,0.037224692022800446,0.0008938161677215248,-0.005358796219946816
1772795252829890600,5.273890625,0.030492168897390363,-0.0024595665054570415,0.0019034772674553096
1772795252839935500,5.283935546875,0.02345744795501232,0.0027912529951019675,-0.008534266184596344
1772795252849980700,5.293980712890625,0.030040333476662635,0.005042439730174373,-0.0157824106819462
1772795252860024600,5.304024658203125,0.02450491118133068,-0.023207019141188355,0.0088343816423323
1772795252870069500,5.314069580078125,0.03737316058278083,-0.008415298855380388,0.008799931383458897
1772795252880113700,5.32411376953125,0.024654548785090446,-0.003596645385632291,-0.00851752511234954
1772795252890158600,5.33415869140625,0.021963994526863095,0.005543138669262407,-0.005056571003515273
1772795252900202500,5.344202392578125,0.035730069550871844,-0.004315876738005317,0.0006109715051949024
1772795252910247700,5.35424755859375,0.026453707161545752,-0.013552834132127463,-0.010529239394096657
1772795252920291600,5.36429150390625,0.01612929702401161,-0.014335391353053274,-0.006600823037140071
1772795252930336500,5.37433642578125,0.03423603160083294,-0.0007283039997506421,-0.0024932324546854943
1772795252940381400,5.38438134765625,0.031094810965657232,0.005373143264063401,-0.013194503947440534
1772795252950425600,5.394425537109375,0.015981997507810593,0.0010011261668289079,-0.004787042480288073
1772795252960470500,5.404470458984375,0.027505262041091917,0.005212275305169168,0.01025489769843407
1772795252970514400,5.414514404296875,0.028999884513020515,-0.007414334802044322,0.004769698619842529
1772795252980559600,5.4245595703125,0.031242695003747937,0.010829450749955139,-0.010912621821649373
1772795252990603500,5.434603515625,0.026306407645344733,-0.0017403671191248576,0.00040520153371617195
1772795253000648400,5.4446484375,0.028999884513020515,-0.0028095855195249893,-0.013226533920364453
1772795253010692600,5.454692626953125,0.038277415946125985,-0.004269911854562815,-0.0036538189329672604
1772795253020737500,5.464737548828125,0.013140052080154419,-0.001365040133864386,-0.0012884232421871275
1772795253030782500,5.474782470703125,0.024664485657215116,0.010515006514411653,-0.004249510670639574
1772795253040826600,5.48482666015625,0.024812369695305824,-0.00721915129830595,-0.00574423360726796
1772795253050871600,5.49487158203125,0.03423953873217106,0.0022294327026349493,-0.0015542619709856807
1772795253060915500,5.50491552734375,0.029003391644358632,0.008343435770634096,0.021875229398021473
1772795253070960600,5.514960693359375,0.021969839745759962,-0.00034222272503538984,0.007036903766309842
1772795253081004500,5.525004638671875,0.031250293788313864,-0.0024285103551344943,-0.00041301038083620367
1772795253091049500,5.535049560546875,0.0414268198877573,0.012535992089647334,0.008660650776932016
1772795253101093600,5.54509375,0.03319675168097019,0.004032138167979428,-0.014411834714794531
1772795253111138600,5.555138671875,0.027661329385638235,0.012029412540688645,-0.007322278312640264
1772795253121183700,5.565183837890625,0.018083353701233863,-0.0015470616202859673,0.01478117948384024
1772795253131227400,5.575227294921875,0.02975508679449558,-0.007930097737879258,0.01685842414931394
1772795253141272600,5.5852724609375,0.02481587682664394,0.005271675058919936,-0.008981050970871
1772795253151316700,5.595316650390625,0.03424246134161949,-0.00005535148300696164,-0.004683344643795863
1772795253161361400,5.605361328125,0.035141456007957456,-0.0027264955045771784,0.011995074162958188
1772795253171405600,5.615405517578125,0.024218495455384254,0.003998756488185608,0.004090593781881034
1772795253181450500,5.625450439453125,0.024518939706683156,0.009031932916381628,-0.0034392719999887045
1772795253191495700,5.63549560546875,0.024969606083631513,0.003053793513472192,0.004613713473686948
1772795253201539600,5.64553955078125,0.02646773568689823,0.012075658268632833,0.015201889113942161
1772795253211584500,5.65558447265625,0.02946048776209354,0.009395059148839209,0.002479377459269017
1772795253221628700,5.665628662109375,0.020335516542196272,0.006279870287352241,-0.006153700324147939
1772795253231673600,5.675673583984375,0.02602291452884674,-0.0025861828515888192,-0.00593004763610661
1772795253241717500,5.685717529296875,0.018391396737098692,0.009782348283240571,0.00083224957305938
1772795253251762700,5.6957626953125,0.016598083579540252,-0.0021557064543652814,0.0035301651538349687
1772795253261806600,5.705806640625,0.017646131327748296,0.0029010163878439924,0.009676056630862876
1772795253271851500,5.7158515625,0.041138650596141815,0.01777281160596176,0.005270177221577614
1772795253281896700,5.725896728515625,0.03470248006880283,-0.0030870861450093797,-0.003210851805284619
1772795253291940400,5.7359404296875,0.03769523214399814,-0.004761862373258918,0.0009574925210792571
1772795253301985500,5.745985595703125,0.035302199527621266,-0.0009057417842443101,0.006907432167744264
1772795253312029700,5.75602978515625,0.02123743381798267,-0.008101173138601007,0.021073110101744532
1772795253322074600,5.76607470703125,0.02527998720705509,0.00804965872213943,-0.010507191959070041
1772795253332118500,5.776118408203125,0.021389994031190872,0.005706362982024439,0.0027136885386426
1772795253342163500,5.78616357421875,0.030069559571146962,0.015597928952024085,0.009615841743070631
1772795253352207600,5.79620751953125,0.027075053930282592,0.002709079720539739,-0.00007256291271187365
1772795253362252500,5.80625244140625,0.024531214666366576,-0.006204252334451302,0.007537236237572506
1772795253372297500,5.81629736328125,0.03320902664065361,0.009164388773188693,0.027218882847763595
1772795253382341600,5.826341552734375,0.03350771732628345,0.008405165620433398,0.017904170342581346
1772795253392386600,5.836386474609375,0.025575170761346817,0.006494333880295744,-0.008108999110385776
1772795253402430500,5.846430419921875,0.03934124578535556,0.010570190175704191,-0.006335176104586571
1772795253412475600,5.8564755859375,0.0381458985209465,0.00032912578144459983,-0.0038305363398976624
1772795253422519600,5.86651953125,0.03305763547122478,-0.002230887157493271,-0.004033803827036172
1772795253432564500,5.876564453125,0.033953707528114316,-0.010879374855884815,-0.006374759196303785
1772795253442609700,5.886609619140625,0.031708558949828144,0.0025398309507232626,0.0015005772886797785
1772795253452653300,5.8966533203125,0.024528292056918144,0.010142026749864454,0.009115445339726283
1772795253462698500,5.906698486328125,0.032609307181835176,-0.00039160683320369567,0.020247335935244335
1772795253472742400,5.916742431640625,0.03440495842695236,0.0032629998343414626,0.006197539465874433
1772795253482787300,5.926787353515625,0.01944236709475517,-0.001179078832908999,0.010730479320930316
1772795253492831500,5.93683154296875,0.025727730974555014,-0.005046886434784391,0.011246676081605254
1772795253502876400,5.94687646484375,0.02962006223797798,0.012370957129000453,0.013581904962984843
1772795253512921300,5.95692138671875,0.03380874609947204,0.008244282820163061,-0.001166669159196317
1772795253522965500,5.966965576171875,0.028270401194691656,0.018619054313399826,0.0009806268014945088
1772795253533010400,5.977010498046875,0.030665771898627278,-0.0050144363367522595,0.01050113667761907
1772795253543054300,5.987054443359375,0.04039163162112236,-0.00539622388719581,-0.0040476953550707545
1772795253553099500,5.997099609375,0.03410860582888126,0.0013946452542615588,0.002356801392370835
1772795253563143400,6.007143310546875,0.03186345725059509,-0.001184957159491023,0.0020271127802785486
1772795253573188400,6.017188232421875,0.02363397356569767,0.000941800619958667,0.01015678021935746
1772795253583233300,6.0272333984375,0.01944412066042423,0.0076733145317935845,-0.014687829511426389
1772795253593277400,6.03727734375,0.03425765891075134,0.006098561186983716,-0.017718694240460173
1772795253603322600,6.047322509765625,0.038596564897894856,0.0006387979437480681,0.0027266302186064423
1772795253613366300,6.0573662109375,0.02812251715660095,-0.0033112776891677637,0.008920068898098543
1772795253623411500,6.067411376953125,0.020043840119242668,-0.0005631297584972344,0.004437014333065599
1772795253633455600,6.07745556640625,0.029922260054945943,-0.0039329498265346045,-0.013226424322510137
1772795253643500300,6.087500244140625,0.029922844576835632,0.00316309454026632,-0.012580591566488147
1772795253653545500,6.09754541015625,0.02453355275392532,0.016863149415137012,-0.005383884995430708
1772795253663589400,6.10758935546875,0.0185480486035347,0.01974183866509702,0.0028253322195727374
1772795253673634600,6.117634521484375,0.04622983625531196,0.01088761181962327,-0.007850229443190618
1772795253683678500,6.127678466796875,0.030815994024276733,-0.004629984188475646,0.005075421834457665
1772795253693723400,6.137723388671875,0.038596564897894856,-0.009848067038279259,-0.015303952115774153
1772795253703767600,6.147767578125,0.029019758257269858,0.006873410025489283,0.014343089460674672
1772795253713812200,6.157812255859375,0.04982055422365665,-0.002151682158152107,0.007984459415264428
1772795253723857400,6.167857421875,0.041292379853129384,0.0027892962167446965,0.00714939683061093
1772795253733901600,6.177901611328125,0.02782674908041954,0.004578514296142384,0.0034979159852024165
1772795253743946200,6.1879462890625,0.03366378467082977,0.0071113777916063554,-0.0008834774367976933
1772795253753990400,6.197990478515625,0.018553309300541877,0.002032865525985835,-0.002192769937077537
1772795253764035600,6.20803564453125,0.028730419921875,-0.005552479603054234,-0.005970735839521512
1772795253774079200,6.218079345703125,0.03726210142374038,-0.005886886631103698,0.0007585176165681331
1772795253784124400,6.22812451171875,0.023943185645341872,-0.008737446906766854,0.005927179825585335
1772795253794169300,6.23816943359375,0.024091654205322263,-0.0001521218217909336,0.021277473567426205
1772795253804213500,6.248213623046875,0.03695873456299305,0.00539027135373326,0.010974425878329202
1772795253814258400,6.258258544921875,0.036510406273603434,-0.0066718527215358335,0.015931728625297546
1772795253824302300,6.26830224609375,0.039054830059409136,-0.00269722031938727,0.0037002427574247118
1772795253834347500,6.278347412109375,0.01825637218058109,0.014347032700141425,0.005606944028427824
1772795253844391400,6.288391357421875,0.031126959669589994,-0.007055482885905075,0.012005686888517811
1772795253854436400,6.298436279296875,0.026935353198647496,-0.00459486150110024,0.01623746097306721
1772795253864481500,6.3084814453125,0.03291910378336906,-0.004295134202431655,-0.008720180678134784
1772795253874525200,6.318525146484375,0.0320201091170311,-0.010664212576620048,-0.00940128567693755
1772795253884570400,6.3285703125,0.024986557218432424,0.007610084561363328,-0.0034250790778547523
1772795253894614500,6.338614501953125,0.01930208184123039,0.0039592030792206055,0.01300554811344482
1772795253904659500,6.348659423828125,0.039950317594408986,0.0006873840425396338,0.01426719294656068
1772795253914703400,6.358703369140625,0.04638590359985828,0.0008427766752953175,0.009081013347161934
1772795253924748500,6.36874853515625,0.02005026986002922,0.006496479029965121,0.012678188455756753
1772795253934793500,6.37879345703125,0.022294249394536017,0.01949095547683537,-0.0036680757871828972
1772795253944837400,6.38883740234375,0.024687282010912893,-0.0014517354615614748,0.0006308269831351935
1772795253954882300,6.39888232421875,0.01930091279745102,0.002242025039438158,0.0042528351388871665
1772795253964926500,6.408926513671875,0.020947510960698128,0.001844937171874335,-0.0016821718001272527
1772795253974971600,6.4189716796875,0.029626491978764533,0.0063817734589800236,0.015840205283788964
1772795253985015300,6.429015380859375,0.017805705803632735,0.00955849238251103,0.004349482180085033
1772795253995060500,6.439060546875,0.021396423771977424,0.015022485417936694,0.00803646359713748
1772795254005105400,6.44910546875,0.030822423765063285,0.012515625155053566,-0.006075785382883623
1772795254015149300,6.4591494140625,0.0315711963057518,0.008975058479857398,0.011930667157238348
1772795254025194500,6.469194580078125,0.024839257702231405,0.016835947456024587,0.004400143788242712
1772795254035238400,6.47923828125,0.03172317199707031,0.009020084931672317,0.012857581876963377
1772795254045283300,6.489283447265625,0.02274550029337406,0.0019744316033262293,0.010945227183308452
1772795254055327500,6.499327392578125,0.021845921105146406,0.003482032287836773,0.011420169484987855
1772795254065372400,6.509372314453125,0.021397592815756795,0.019755207320034968,0.0023357220717240123
1772795254075417600,6.51941748046875,0.03232113789021969,-0.0011046984224463811,0.017013797374116256
1772795254085461500,6.52946142578125,0.036811435046792025,0.003853095231577754,0.016938631512364372
1772795254095506400,6.53950634765625,0.033819267493486405,0.011889767749625024,0.007404768964322283
1772795254105550600,6.549550537109375,0.030827099940180777,0.005919699772028252,-0.0042567441290244454
1772795254115595300,6.55959521484375,0.02933072390258312,-0.006733456990460399,-0.0035027291576378047
1772795254125640400,6.569640380859375,0.027089666977524757,0.002045266066543991,0.013966967890970409
1772795254135684600,6.5796845703125,0.024846856486797332,0.015906894436496077,0.003198065388947725
1772795254145729500,6.5897294921875,0.03143032653033733,0.008432349313236772,0.0074930591691285365
1772795254155773400,6.5997734375,0.024247137027978895,0.012226192063180496,-0.002286412170436233
1772795254165818400,6.609818359375,0.03277648044228554,0.01005406762190978,-0.00825636255866848
1772795254175862300,6.6198623046875,0.01945814918577671,0.007085561788693303,0.0020755367655772715
1772795254185907500,6.629907470703125,0.031580548655986786,-0.0051868874188745395,0.0017319383591413496
1772795254195952400,6.639952392578125,0.023797055172920224,0.0124708555732097,-0.004362971849320456
1772795254205996500,6.64999658203125,0.03726502403318882,0.015016369629336985,0.013315061587188393
1772795254216041200,6.660041259765625,0.01871054568886757,0.02033742308820365,0.007209593452094122
1772795254226085400,6.67008544921875,0.02424830607175827,0.008033212194126099,0.0050730746137443924
1772795254236130600,6.680130615234375,0.019460487273335457,-0.009527938555687433,-0.0005659085207618773
1772795254246175500,6.690175537109375,0.026644261297583578,-0.008071855712571414,0.011931872733635827
1772795254256219400,6.700219482421875,0.031880408385396,0.015436501587415113,0.0027218992445617912
1772795254266264300,6.710264404296875,0.01482347512245178,0.027089091588789596,0.008375650689937173
1772795254276308500,6.72030859375,0.020959785920381543,0.01885452416175394,-0.0005530764386523514
1772795254286353400,6.730353515625,0.02155833633542061,-0.002474878239020472,-0.011636488249944522
1772795254296397600,6.7403974609375,0.029490882900357243,0.012123449782980605,0.01109505658331327
1772795254306442500,6.7504423828125,0.011834230178594588,0.004568723554490134,0.01174928270834498
1772795254316487400,6.7604873046875,0.019166472762823104,-0.0019395087037060875,0.0023293562630191445
1772795254326531300,6.77053125,0.01452595348060131,0.015972180508339078,-0.006034750119596719
1772795254336576500,6.780576416015625,0.026947628158330916,0.01633486949102371,-0.004298099052719772
1772795254346620400,6.790620361328125,0.025900164932012557,0.0016622546733939087,0.006328645899100229
1772795254356665300,6.800665283203125,0.01946633249223232,0.011900230919779278,0.013095783680165186
1772795254366709500,6.81070947265625,0.030988427981734273,0.015594786005222704,-0.002494465430546552
1772795254376754400,6.82075439453125,0.03143734079301357,0.0022900323245616163,-0.0013334953597746789
1772795254386799400,6.83079931640625,0.024855039793252945,-0.0015496280367078724,0.000725848322827369
1772795254396843500,6.840843505859375,0.03907178119421005,0.0011520595368870999,-0.00322003975873813
1772795254406888400,6.850888427734375,0.022611060258746145,0.00799439857067773,0.006928465822618454
1772795254416932400,6.860932373046875,0.03189034525752067,0.0131382003330742,0.00869146604030393
1772795254426977300,6.870977294921875,0.03144260149002075,0.007003233250504126,0.007448178847786039
1772795254437022500,6.8810224609375,0.026656536257266997,-0.0018538568389136344,-0.0077958871737588194
1772795254447066400,6.89106640625,0.027406477841734885,-0.008637477680610026,0.0027600849636364726
1772795254457111600,6.901111572265625,0.043566754525899885,-0.0031134261626633813,0.004233463718136772
1772795254467155700,6.91115576171875,0.01423836871087551,0.00048151931458269244,0.005169301529834047
1772795254477200600,6.92120068359375,0.01319090548455715,0.00482282732136664,0.010398571352288126
1772795254487244500,6.93124462890625,0.028304303464293478,-0.011472453369718277,-0.006217066150251776
1772795254497289700,6.941289794921875,0.0196241534024477,-0.0005773957458673977,0.006889987842598929
1772795254507334700,6.951334716796875,0.021567104163765907,0.014829187910608015,-0.0009107490362133831
1772795254517378600,6.961378662109375,0.02919920647740364,0.0008957364134606904,0.011231834705499932
1772795254527423700,6.971423828125,0.04969897367060184,-0.003149787534121424,0.006566308846184983
1772795254537467600,6.981467529296875,0.0254582663834095,0.008591189711826154,-0.005668145296908914
1772795254547512800,6.991512939453125,0.027253333106637,0.005781478611426427,0.004940817403048276
1772795254557557500,7.0015576171875,0.02650514508783817,-0.0037434471449116244,0.01823911965168081
1772795254567601700,7.0116015625,0.027253917628526685,0.004874502709676744,0.005891734052868559
1772795254577646800,7.021646728515625,0.038326515784859655,0.0010048730434733442,0.0134956971174106
1772795254587690500,7.0316904296875,0.010795534780621528,0.016735962246847338,0.006006245544319972
1772795254597735700,7.041735595703125,0.042968788632750506,0.017461900759575655,0.002045452154567465
1772795254607780600,7.051780517578125,0.047610476958751674,0.015353301974612986,0.005241517382673919
1772795254617824500,7.061824462890625,0.022172668841481207,0.012400014260126045,0.0021551230741199104
1772795254627869700,7.07186962890625,0.02202127767205238,0.008597141103644389,-0.0020087916722986844
1772795254637913600,7.08191357421875,0.04177285684645176,0.010188335268246008,-0.0015730945356190204
1772795254647958800,7.091958740234375,0.02920563621819019,0.006875871410634136,0.002332899926975369
1772795254658002700,7.102002685546875,0.027859482306241988,-0.008465049431374064,0.008169296196568757
1772795254668047600,7.112047607421875,0.020527824243903158,0.012560154991591115,-0.010366943238163366
1772795254678092800,7.1220927734375,0.025764555853605268,0.019084224139736032,0.009036607949854806
1772795254688136700,7.13213671875,0.02157470294833183,-0.0030272285918879786,0.0059145760723389685
1772795254698181600,7.142181640625,0.025465865167975422,-0.0001956344532431103,-0.0033568270140793173
1772795254708225800,7.152225830078125,0.023970073652267453,0.014587113649887032,0.003742145670391619
1772795254718270700,7.162270751953125,0.01499298647046089,0.0008714559221523813,0.00620210604313761
1772795254728315600,7.172315673828125,0.03235328659415245,0.003148945000616368,0.013265769952209665
1772795254738359800,7.18235986328125,0.031307576933503146,0.0122996100674849,-0.006802528754854574
1772795254748404700,7.19240478515625,0.010507365489006042,0.009545605501474347,-0.00476859350814484
1772795254758448600,7.20244873046875,0.02592179224193096,-0.013688816528226014,0.018248024477344006
1772795254768493600,7.21249365234375,0.04028817124664783,0.008185173044068506,0.009932141150627285
1772795254778538800,7.222538818359375,0.03370645476877689,0.0033311365920410023,0.008916963625559583
1772795254788582700,7.232582763671875,0.03774608554840088,-0.002751965589262545,-0.011183027127711102
1772795254798627600,7.242627685546875,0.03235620920360088,0.0017971867567219304,-0.003001638634549454
1772795254808671700,7.252671630859375,0.014698971959948539,0.02352452640843112,-0.004056189188780263
1772795254818716700,7.262716552734375,0.019638181927800178,0.014419982630276353,-0.00965651168017648
1772795254828760600,7.272760498046875,0.032358547291159626,0.004223264267819468,0.019024059484293684
1772795254838805800,7.2828056640625,0.026374212184548378,0.005534943946363637,0.0116488180085551
1772795254848850700,7.2928505859375,0.03669979136586189,-0.005210337934765266,-0.006427201769594102
1772795254858894600,7.30289453125,0.024728783065080643,-0.0049626696168968915,-0.004779105769004672
1772795254868939500,7.312939453125,0.026374796706438063,-0.006655377652414608,-0.006134182772925123
1772795254878983700,7.322983642578125,0.03026537440419197,-0.00021538604155066422,0.008382400091132149
1772795254889028900,7.33302880859375,0.029964930152893064,0.01434402903394657,0.009054381068563088
1772795254899073500,7.343073486328125,0.03086392481923103,0.004675612286844989,0.010460229278495535
1772795254909117700,7.35311767578125,0.04029226289987564,0.006971359682851471,0.0060773380191531026
1772795254919162600,7.36316259765625,0.03221124777495861,0.0059953337079496115,0.009912678398331628
1772795254929206500,7.37320654296875,0.024579729983210563,-0.0015362822146562393,0.002462197995604947
1772795254939251700,7.383251708984375,0.024430092379450798,0.0037573911885847334,-0.00036050387546420094
1772795254949296600,7.393296630859375,0.01829553514719009,0.007074196719529573,-0.006174523916468024
1772795254959340500,7.403340576171875,0.022484803530573843,0.004713315090374089,0.010124384920252487
1772795254969385700,7.4133857421875,0.014105097720026969,-0.006946075686189579,-0.0009867094824090599
1772795254979429600,7.4234296875,0.03864566473662853,0.0005084027549310122,0.0041081020391080525
1772795254989474800,7.433474853515625,0.04298632428944111,0.009330829097988316,-0.0005995550620369613
1772795254999519500,7.44351953125,0.032061025649309155,-0.000687066665419843,0.009173340406268835
1772795255009563600,7.453563720703125,0.025475802040100096,0.017366579167428425,-0.006608522286405787
1772795255019608800,7.46360888671875,0.04043897789418697,0.0017967118326865602,0.006837517869845032
1772795255029652500,7.473652587890625,0.029516601863503453,0.019243182127689943,0.010641257534362375
1772795255039697700,7.48369775390625,0.016796236500144005,0.0005778135876869782,-0.014849212351907044
1772795255049742600,7.49374267578125,0.03714987322092056,-0.004782628883363213,0.011673066533822565
1772795255059786500,7.503786376953125,0.03310790435373783,0.013787649818288627,0.010530317106330766
1772795255069831700,7.513831787109375,0.020090017348527906,0.0003038589094474446,-0.005457817881321534
1772795255079875600,7.52387548828125,0.037598201510310174,0.008278758195211412,-0.014232048567943275
1772795255089920800,7.533920654296875,0.023383213675022125,-0.0035319278526585547,0.006457898301957175
1772795255099965700,7.543965576171875,0.025030980882048606,0.00590436406393419,0.009568933861423283
1772795255110009600,7.554009521484375,0.02877133645415306,0.014716796452651032,0.010575170028209686
1772795255120054800,7.5640546875,0.01784954494535923,-0.002654675802314887,0.002160420303745195
1772795255130098700,7.5740986328125,0.03386076854765415,0.01665499112374964,-0.006048869976494461
1772795255140143600,7.5841435546875,0.029221418309211728,0.008050552629638696,0.010063110586535185
1772795255150188800,7.594188720703125,0.013359247788786888,0.00374604324408574,-0.0023583722949493675
1772795255160232700,7.604232666015625,0.027575989189743993,-0.00013514785410370677,0.012835114316828548
1772795255170277600,7.614277587890625,0.03610708616971969,0.008425413824018324,0.0057599791656713925
1772795255180321800,7.62432177734375,0.02578150698840618,0.018545156818482792,-0.0010093140398617832
1772795255190366700,7.63436669921875,0.03266308319568634,0.004667283991561271,-0.004880776045192033
1772795255200410600,7.64441064453125,0.01949438954293728,0.010521156552340835,-0.003100897757941857
1772795255210455600,7.65445556640625,0.23613223038613795,-0.06304608806360047,-0.0793142136029899
1772795255220500700,7.664500732421875,0.9561696749776601,-0.08827819470805115,-0.5795819490663707
1772795255230544600,7.674544677734375,-0.7577391064763068,0.11075153612969442,0.10813021118277683
1772795255240589600,7.684589599609375,-0.001681084954738617,-0.04486089512282051,-0.10477044329294002
1772795255250633700,7.6946337890625,0.032335166415572165,-0.16246548461820928,-0.19002444960791617
1772795255260678700,7.7046787109375,-0.4682119705110788,-0.09149195998962968,-0.039476859430340114
1772795255270723600,7.7147236328125,-0.19726853898465632,-0.1154036910507828,0.02115005236205179
1772795255280767700,7.724767822265625,-0.49228725810348983,0.2126408070962876,-0.25022461475506425
1772795255290812700,7.734812744140625,-0.39437107375264163,0.3257472540553659,-0.20090431993743404
1772795255300856600,7.744856689453125,1.512911577335,0.02288525582393631,0.8164470237717032
1772795255310901800,7.75490185546875,0.8431628890007734,-0.17913864272795615,0.4069106026563793
1772795255320946700,7.76494677734375,-1.3813152417004109,0.2844286072498187,0.209587995396927
1772795255330990800,7.774990966796875,0.3697071726173162,-0.0404686880458612,0.0026065749023575333
1772795255341035500,7.785035400390625,0.4568173007935285,-0.07999720916477963,-0.033421418149163946
1772795255351079700,7.79507958984375,-0.3963046721637249,0.10813017465015873,-0.014039795665163547
1772795255361124900,7.805124755859375,0.2871159831702709,-0.056060594824119465,0.03357203300045803
1772795255371169500,7.81516943359375,-0.13233341773748397,0.05926781620047986,-0.003890705561917275
1772795255381213700,7.825213623046875,0.13807283817231655,-0.025825286764628252,-0.0016132347497623413
1772795255391258600,7.835258544921875,-0.05167582670152187,0.024778921800141688,-0.006242620716616511
1772795255401302500,7.845302490234375,0.08539630999565125,-0.0034678051163733467,0.00591168999550864
1772795255411347700,7.85534765625,0.002345686343312263,0.011852292133314768,-0.009625979544594883
1772795255421392600,7.865392578125,0.05307575662732124,-0.006935368204151746,0.009267740691453218
1772795255431436800,7.875436767578125,0.023746201768517494,-0.005842787194473203,-0.006633784591825679
1772795255441481500,7.8854814453125,0.021501053190231323,0.011989002898486796,-0.0045435069148428734
1772795255451524900,7.89552490234375,0.040354806742072105,0.005276041848427848,-0.0006954531845636665
1772795255461570000,7.905570068359375,0.017458499801158905,-0.0003620690698211547,-0.006765064554987475
1772795255471615000,7.915614990234375,0.03691080376803875,0.005029347353160847,0.007095410754205659
1772795255481659100,7.9256591796875,0.03197393188774585,-0.008729159710678504,-0.003763261523656547
1772795255491704000,7.9357041015625,0.01476736102104187,-0.0015100175455270799,0.006271353620756417
1772795255501748000,7.945748046875,0.019407880303263663,-0.017380405621737007,-0.0072200417808722704
1772795255511793200,7.955793212890625,0.022850714233517644,-0.001792687536473386,0.02147541642547585
1772795255521838000,7.965838134765625,0.036916064465045924,0.008101584130554692,-0.013266665001353248
1772795255531882000,7.975882080078125,0.04484744198620319,0.0031786117698065935,-0.0026157445895019916
1772795255541927200,7.98592724609375,0.02330021156668663,0.006908312375511741,0.003560532892635092
1772795255551970000,7.995969970703125,0.023301380610466,0.00698804253123817,0.0036652719087433066
1772795255562014200,8.00601416015625,0.018812252497673033,0.005923468339914689,0.009219334972463548
1772795255572059100,8.01605908203125,0.03527414247691631,-0.001541251792362891,-0.0037038777529262005
1772795255582104300,8.026104248046876,0.031235096219182013,0.006259708848735317,-0.004055814729444682
1772795255592148000,8.03614794921875,0.02210895595550537,0.007819269190990599,0.0038518896551802753
1772795255602193200,8.046193115234376,0.038569092369079586,0.006903571126668248,0.004774393061269074
1772795255612237000,8.056237060546875,0.026000118175148964,0.005945854843303095,0.01501137151052244
1772795255622282000,8.066281982421875,0.031239772394299505,0.004777788311464246,0.012014253787463531
1772795255632327200,8.0763271484375,0.009093407037854193,0.009042186023981776,0.014400610067881642
1772795255642371000,8.08637109375,0.023160510835051534,0.011426547851780195,0.023629105594335124
1772795255652416000,8.096416015625,0.020016367590427398,0.0009917247258883434,0.00884565195501782
1772795255662460200,8.106460205078125,0.026152093866467475,0.00760216611638898,-0.008000552033539861
1772795255672505000,8.116505126953125,0.02764846990406513,0.009685639593249652,0.0022974267547950147
1772795255682550300,8.12655029296875,0.025852234137058255,0.014071521960699464,-0.0008897701802663505
1772795255692594200,8.13659423828125,0.023157003703713416,0.0037597486840968484,0.020118942048912868
1772795255702639000,8.14663916015625,0.019116203880310056,0.015576792549161472,0.009427963621309026
1772795255712683300,8.156683349609375,0.03198679136931896,-0.002340860612789402,0.007444361189194023
1772795255722728000,8.16672802734375,0.02225976260304451,-0.009062133975111646,0.0009945365958381443
1772795255732773000,8.176773193359375,0.024801848301291465,0.010158574884221888,0.0025406974587589503
1772795255742817300,8.1868173828125,0.0327343948662281,0.018076928527024572,0.019712160479463635
1772795255752862000,8.196862060546875,0.03228665109872818,0.0005405126429570373,-0.0011344017242547124
1772795255762906000,8.206906005859375,0.04260989219248294,0.00701120991933858,0.013116543340403585
1772795255772951000,8.216950927734375,0.02465337974131107,0.005809058454807382,0.029109637630963695
1772795255782996200,8.226996337890625,0.02719838804900646,-0.0045080463007499925,0.01693272236138582
1772795255793040100,8.2370400390625,0.03363338953256607,0.006838512242044089,0.003792487618140876
1772795255803085000,8.2470849609375,0.02375847672820091,-0.000752779712236952,0.015846415828866884
1772795255813129200,8.257129150390625,0.018221300867199898,0.015680990425864,0.007725032160943374
1772795255823174000,8.267173828125,0.03482932131886482,0.005805477116588736,0.02613938964852132
1772795255833219000,8.277218994140625,0.041562428966164584,0.005820321917627006,0.013222433133982121
1772795255843263200,8.28726318359375,0.027646131816506384,0.00032314128194120713,-0.0004262991206720471
1772795255853308200,8.29730810546875,0.02076046395599842,-0.0021375885590736287,0.011999439810821785
1772795255863353000,8.30735302734375,0.025697335836291312,-0.007456529975956073,0.0005242430698126554
1772795255873397000,8.31739697265625,0.023303718698024747,0.008040054068510653,0.0246532153445296
1772795255883442200,8.327442138671875,0.03647182782888412,0.005865300420380663,0.01610952374446206
1772795255893486000,8.337486083984375,0.020011691415309906,0.004985758231539511,0.008323308581346646
1772795255903531000,8.347531005859375,0.017465514063835143,0.00954668207206414,0.010255208225687965
1772795255913576200,8.357576171875,0.017315876460075378,0.015281479989062062,-0.007568846085388213
1772795255923622100,8.3676220703125,0.035271804389357564,0.011074656541034346,0.006293967311363667
1772795255933667000,8.3776669921875,0.02718962022066116,0.011046326637337915,0.012762122145853936
1772795255943711000,8.3877109375,0.02165185983777046,0.027249257436429614,0.002929340583318844
1772795255953756200,8.397756103515626,0.023296119913458823,0.01713889419166371,0.0052115697689820075
1772795255963800000,8.407800048828125,0.030628947019577024,-0.001957685964502161,0.008387277195649221
1772795255973845000,8.417844970703126,0.030179449686408042,0.006224150053231278,-0.0014084968247450888
1772795255983890200,8.42789013671875,0.027484803774952885,0.00713443786514108,0.005870508601749315
1772795255993934000,8.43793408203125,0.022096096473932264,0.010545750995835988,0.010101506368163973
1772795256003979300,8.447979248046876,0.029129648372530934,0.022657943024218547,0.008494272100925446
1772795256014023200,8.458023193359375,0.026734862190484997,0.014097775213385465,-0.003230360223352909
1772795256024068000,8.468068115234376,0.028977088159322737,0.015941022751672425,0.01005774029167369
1772795256034113300,8.47811328125,0.03017418898940086,0.016137159528414484,0.010045036073727533
1772795256044157000,8.488156982421875,0.017307693153619765,-0.0003243297336739488,0.01140667981575243
1772795256054202000,8.4982021484375,0.014314941078424452,0.002580399281485006,0.01606060656881891
1772795256064246300,8.508246337890625,0.02179740578830242,0.009071431526419474,0.014882785827945917
1772795256074291000,8.518291015625,0.026735446712374687,0.010717928083322475,0.006499161894107237
1772795256084336000,8.528336181640626,0.028829788643121718,0.013157613994664278,0.00037099787001498044
1772795256094380000,8.538380126953125,0.067595280367136,-0.008612336389487609,0.002688663695240393
1772795256104425200,8.54842529296875,-0.03266775937080383,0.006735933216981357,0.005418033860204741
1772795256114470000,8.558469970703126,0.06594985124766826,-0.009911680601199622,-0.007591012251423671
1772795256124514000,8.56851416015625,0.002951251021027565,0.00530996580927167,-0.0022833434305153787
1772795256134559200,8.578559326171876,0.03437397876679897,0.002991883283870993,0.022908143509179354
1772795256144603100,8.58860302734375,0.003097381493449211,-0.0023060210532043126,0.008050729584507643
1772795256154648000,8.59864794921875,0.031525603598356246,0.02181804671753198,-0.00849899394181557
1772795256164693000,8.60869287109375,0.035417350339889526,0.010093420101475202,0.004923848001938313
