time,seconds_elapsed,z,y,x
1772795247636896300,0.080896240234375,-0.0007252106443047523,0.0005379966460168362,0.0012857383117079735
1772795247646940400,0.0909404296875,0.0008222155156545341,0.0002983780577778816,-0.001786856446415186
1772795247656985600,0.100985595703125,0.00008691672701388597,-0.0007855286821722984,0.0006203748052939773
1772795247667029500,0.111029541015625,0.0009952711407095194,0.0015114429406821728,-0.0005330198328010738
1772795247677074400,0.121074462890625,0.0002812776365317404,0.0007622959092259407,-0.0020195962861180305
1772795247687118600,0.13111865234375,0.002360190963372588,-0.0012228195555508137,-0.0013809906085953116
1772795247697162500,0.14116259765625,0.0015423342119902372,0.0008507175371050835,0.0001644417643547058
1772795247707207400,0.15120751953125,0.0010311240330338478,-0.002015390433371067,-0.002108772052451968
1772795247717251600,0.16125146484375,0.002640738617628813,0.0003881128504872322,0.0009394822409376502
1772795247727296300,0.171296142578125,0.0018241563811898232,-0.0008085854351520538,-0.0013225324219092727
1772795247737340400,0.18134033203125,-0.0009902722667902708,0.0021318108774721622,-0.00016991631127893925
1772795247747384300,0.19138427734375,0.0025511495769023895,0.00017065368592739105,0.0015206789830699563
1772795247757429200,0.20142919921875,-0.0014084383146837354,0.00097759161144495,-0.00045059272088110447
1772795247767473400,0.211473388671875,0.001718152780085802,0.0005705580115318298,0.0002515064552426338
1772795247777517300,0.221517333984375,0.0006896398845128715,-0.0028153848834335804,0.001938352594152093
1772795247787562500,0.2315625,-0.0008438580553047359,0.0007295436225831509,-0.00022278190590441227
1772795247797606400,0.2416064453125,0.0019993328023701906,-0.0005860580131411552,-0.0027876724489033222
1772795247807651600,0.251651611328125,-0.0001008660183288157,-0.002780292183160782,0.0024284604005515575
1772795247817695500,0.261695556640625,-0.0015767898876219988,-0.00036720186471939087,0.003300645388662815
1772795247827739400,0.271739501953125,0.0012453917879611254,-0.00065956125035882,-0.003924575634300709
1772795247837784600,0.28178466796875,0.0001415115548297763,-0.001983418595045805,-0.0008166668121702969
1772795247847828500,0.291828369140625,0.002235338557511568,-0.000261946115642786,-0.0023674461990594864
1772795247857873400,0.301873291015625,0.0016603621188551188,0.0005164961330592632,0.0012094455305486917
1772795247867917600,0.31191748046875,-0.0022527300752699375,0.0018937652930617332,-0.004003806971013546
1772795247877961500,0.32196142578125,-0.0005975755047984421,0.0019736597314476967,-0.001754767494276166
1772795247888006400,0.33200634765625,0.0004564561531879008,0.002344873733818531,-0.002859218278899789
1772795247898050300,0.34205029296875,0.0014679247979074717,-0.0011747600510716438,-0.001023767632432282
1772795247908095200,0.35209521484375,0.00012719008373096585,0.0001794472336769104,-0.001299629220739007
1772795247918139400,0.362139404296875,0.0006321253604255617,-0.001860267948359251,-0.0004924250533804297
1772795247928183300,0.372183349609375,0.0013367780484259129,0.0006354316137731075,-0.00016862968914210796
1772795247938228500,0.382228515625,-0.0006182484794408083,0.009595105424523354,-0.0007952714804559946
1772795247948272400,0.3922724609375,-0.000051448296289891005,-0.028637975454330444,-0.005200226791203022
1772795247958316300,0.40231640625,0.001551508205011487,0.04349188134074211,-0.006075873970985413
1772795247968361500,0.412361572265625,0.00028098380425944924,-0.030977074056863785,-0.005418049171566963
1772795247978405400,0.4224052734375,0.0018085730262100697,0.015661800280213356,0.0006305219139903784
1772795247988450600,0.432450439453125,0.0011731528211385012,-0.018379414454102516,-0.0012250131694599986
1772795247998494500,0.442494384765625,-0.0005163567257113755,0.015214763581752777,0.00036622548941522837
1772795248008538400,0.452538330078125,-0.0012426405446603894,-0.010349083691835403,0.0007578871445730329
1772795248018583600,0.46258349609375,0.0009289009612984955,0.003608010709285736,0.0036082682199776173
1772795248028627500,0.47262744140625,-0.0014392613666132092,-0.009040467441082,-0.0007906542159616947
1772795248038672400,0.48267236328125,-0.00021873466903343797,0.0014606425538659096,-0.0006055645062588155
1772795248048716300,0.49271630859375,-0.00028614228358492255,-0.0019168341532349586,0.0002626916393637657
1772795248058760400,0.502760498046875,0.00012957712169736624,0.00036309799179434776,-0.0008675538701936603
1772795248068805400,0.512805419921875,-0.0014154101954773068,-0.0007327212952077389,0.0005563091253861785
1772795248078849300,0.522849365234375,0.001742832362651825,-0.0005092821083962917,0.0006780157564207911
1772795248088894500,0.53289453125,0.0002143102465197444,0.0002457238733768463,0.0008921338012441993
1772795248098938400,0.5429384765625,0.0011584007879719138,0.0021821088157594204,0.00003140012267976999
1772795248108982300,0.552982177734375,-0.00009487185161560774,-0.0008302950300276279,0.0014221920864656568
1772795248119027500,0.56302734375,-0.0010749150533229113,-0.0015213852748274803,-0.0022495079319924116
1772795248129071400,0.5730712890625,-0.0004449911939445883,-0.001487205270677805,-0.00031503464560955763
1772795248139116500,0.583116455078125,-0.00016935402527451515,-0.00003844546154141426,-0.0016042710049077868
1772795248149160400,0.593160400390625,0.00030315533513203263,-0.0002018958330154419,0.0006680957740172744
1772795248159204600,0.60320458984375,-0.00033467175671830773,0.0003134254366159439,-0.0013599013909697533
1772795248169249500,0.61324951171875,-0.0011050098109990358,0.0005812263116240501,0.0019003018969669938
1772795248179293400,0.62329345703125,-0.0008216494461521506,0.0014227856881916523,-0.0010526112746447325
1772795248189338400,0.63333837890625,-0.0006698358920402825,0.0008150623179972172,0.0008528546895831823
1772795248199382300,0.64338232421875,-0.0013923514634370804,-0.0017650080844759941,0.0008962641004472971
1772795248209427500,0.653427490234375,0.0008840770460665226,0.00032962532714009285,-0.00297023868188262
1772795248219471400,0.663471435546875,-0.000008348259143531322,-0.0015817251987755299,0.0005363454110920429
1772795248229515300,0.673515380859375,0.0028906601946800947,-0.001801441889256239,0.0011821393854916096
1772795248239560400,0.683560546875,-0.0002926161396317184,-0.0012890496291220188,0.001341662835329771
1772795248249604400,0.693604248046875,0.00016240059630945325,-0.0008422844111919403,0.0016325642354786396
1772795248259649500,0.7036494140625,0.00013923109509050846,0.0006347047165036201,-0.000790912308730185
1772795248269693400,0.713693359375,0.001104598748497665,0.0008006761781871319,0.0022869715467095375
1772795248279737600,0.723737548828125,0.0018148638773709536,-0.00006405217573046684,-0.00348862586542964
1772795248289782500,0.733782470703125,-0.0011005441192537546,0.00019768532365560532,0.0006842518923804164
1772795248299826400,0.743826416015625,0.000933045637793839,-0.0011485428549349308,0.00048105267342180014
1772795248309871400,0.753871337890625,0.0003919457085430622,-0.0010801390744745731,-0.00021514412946999073
1772795248319915500,0.76391552734375,0.0014793144073337317,0.00307598989456892,-0.003343026852235198
1772795248329959400,0.77395947265625,0.000674309441819787,0.0019807228818535805,0.001575755188241601
1772795248340004400,0.78400439453125,0.0013371702516451478,-0.0009729890152812004,0.0017089133616536856
1772795248350048300,0.79404833984375,-0.00015658605843782425,-0.0011478965170681477,0.00029804441146552563
1772795248360093400,0.804093505859375,-0.00023727986263111234,0.0018231263384222984,0.0018695758190006018
1772795248370137300,0.814137451171875,-0.0016329227946698666,-0.00004210649058222771,-0.0025799397844821215
1772795248380181200,0.82418115234375,-0.00006565253715962172,-0.00044051511213183403,-0.003751997137442231
1772795248390226400,0.834226318359375,0.0001226956956088543,0.00002970779314637184,-0.0004198190290480852
1772795248400270300,0.844270263671875,0.0007916818140074611,0.0003889682702720165,-0.0012448662891983986
1772795248410315500,0.8543154296875,0.00019081280333921313,-0.001888992264866829,0.000012013828381896019
1772795248420359400,0.864359375,0.00004726840415969491,0.000252721831202507,0.0013007174711674452
1772795248430404400,0.874404296875,-0.00004544580588117242,-0.00069067208096385,0.00022388843353837729
1772795248440448500,0.884448486328125,0.0006941140163689852,0.0011173482052981853,-0.000996638322249055
1772795248450492000,0.894491943359375,0.0014112034114077687,-0.0007505416870117188,-0.0010183787671849132
1772795248460536800,0.904536865234375,0.00021544401533901691,-0.0019106147810816765,0.0002439594827592373
1772795248470581000,0.9145810546875,-0.0011416100896894932,0.00016184616833925247,-0.0034657155629247427
1772795248480626000,0.9246259765625,-0.000769566569942981,0.0010401569306850433,0.0009857581462711096
1772795248490670000,0.934670166015625,0.0014102382119745016,-0.0002879002131521702,-0.000725899008102715
1772795248500714000,0.9447138671875,-0.00041562499245628715,-0.0014586257748305798,0.0006293837213888764
1772795248510759000,0.954759033203125,0.0010128723224624991,0.0004904400557279587,-0.0020030024461448193
1772795248520803000,0.964802978515625,0.0023713507689535618,0.0032121906988322735,-0.0012463985476642847
1772795248530848000,0.974847900390625,0.001528826542198658,0.0004017455503344536,-0.001534712384454906
1772795248540892000,0.984891845703125,0.00014158606063574553,0.0003223833627998829,-0.0005930186598561704
1772795248550936800,0.994936767578125,-0.00009911780944094062,-0.001786612905561924,0.00032529234886169434
1772795248560981000,1.00498095703125,0.0006945041823200881,-0.0007698182016611099,-0.0009719334775581956
1772795248571025000,1.01502490234375,0.0020807874388992786,0.00021964218467473984,-0.0010372302494943142
1772795248581069800,1.02506982421875,0.0010259092086926103,-0.0002866247668862343,0.0001151195028796792
1772795248591114000,1.035114013671875,0.0012210822897031903,-0.00028031738474965096,-0.0017267944058403373
1772795248601159000,1.045158935546875,-0.0006591093260794878,0.0013553965836763382,0.0004250396741554141
1772795248611203000,1.055203125,0.001702208537608385,-0.0008264929056167603,-0.0014808739069849253
1772795248621248000,1.065248046875,0.00017222261521965265,-0.0005444642156362534,-0.001025207107886672
1772795248631292000,1.0752919921875,0.0005344346282072365,-0.001707973424345255,0.00032050185836851597
1772795248641336000,1.085336181640625,-0.0004770339874085039,0.0008001918904483318,-0.0029200324788689613
1772795248651381000,1.095381103515625,0.0012166278902441263,-0.000013398472219705582,-0.00005325186066329479
1772795248661425000,1.1054248046875,-0.0009336082730442286,0.0007301559671759605,0.0015752710169181228
1772795248671469800,1.1154697265625,0.0034732664935290813,-0.0006146966479718685,0.0012300123926252127
1772795248681514000,1.125513916015625,-0.00020376022439450026,0.0017672344110906124,0.000008686678484082222
1772795248691559200,1.13555908203125,0.0012317014625295997,-0.000609750859439373,-0.0006086952635087073
1772795248701602800,1.145602783203125,-0.00026366341626271605,0.0019676564261317253,-0.0004893856239505112
1772795248711647000,1.15564697265625,0.0006247837445698678,-0.0008636955171823502,0.001700946711935103
1772795248721692000,1.16569189453125,-0.0018964307382702827,-0.00019657379016280174,-0.0013169473968446255
1772795248731736000,1.175736083984375,0.00026655709370970726,0.0007896744646131992,0.0008012898033484817
1772795248741781000,1.185781005859375,0.0015078565338626504,0.0005968613550066948,-0.0013968833955004811
1772795248751825000,1.195824951171875,-0.0019379316363483667,0.00026160338893532753,0.0023455540649592876
1772795248761869800,1.205869873046875,0.0006759610841982067,-0.00013760430738329887,-0.00040762173011898994
1772795248771914000,1.2159140625,-0.0009436870459467173,0.0021372493356466293,-0.0020098912063986063
1772795248781958000,1.2259580078125,0.001133312238380313,-0.0019994392059743404,-0.0005339672788977623
1772795248792002800,1.2360029296875,0.0014370785793289542,0.001051020808517933,-0.0004467180115170777
1772795248802047000,1.246046875,0.0006879314314574003,-0.000027293339371681213,0.001941072172485292
1772795248812092200,1.256092041015625,0.0016784127801656723,0.0010037501342594624,-0.0017401943914592266
1772795248822135800,1.2661357421875,0.0011883911211043596,-0.00009906524792313576,-0.00015055353287607431
1772795248832180000,1.276179931640625,-0.00011701160110533237,-0.0020446954295039177,0.0010934327729046345
1772795248842225200,1.28622509765625,-0.0005255405558273196,-0.0007535950280725956,0.0019946463871747255
1772795248852269000,1.29626904296875,0.000536033883690834,-0.000784686766564846,0.0003642759984359145
1772795248862314000,1.30631396484375,0.000741363619454205,-0.0013058674521744251,0.0005666762590408325
1772795248872358000,1.31635791015625,-0.0001507237902842462,0.0014192243106663227,-0.00017919763922691345
1772795248882402800,1.32640283203125,0.0007526203989982605,-0.001588017214089632,0.0013838117010891438
1772795248892447000,1.336447021484375,0.0011259755119681358,-0.00083116814494133,-0.0004586449358612299
1772795248902492200,1.3464921875,-0.00038030845462344587,0.0009385026060044765,-0.003910900559276342
1772795248912535800,1.356535888671875,0.0027337304782122374,0.00020269770175218582,-0.0028957414906471968
1772795248922580000,1.366580078125,0.00046338571701198816,0.0009334692731499672,0.0015629228437319398
1772795248932625200,1.376625244140625,0.00009994354331865907,0.0017112265340983868,-0.0013991673476994038
1772795248942668800,1.386668701171875,0.0013572219759225845,-0.00047709327191114426,-0.00015760166570544243
1772795248952714000,1.3967138671875,-0.000009062117896974087,0.0005590342916548252,-0.00016341498121619225
1772795248962758100,1.406758056640625,0.0025371862575411797,-0.0010958537459373474,0.0005990481004118919
1772795248972802800,1.416802734375,-0.0020715005230158567,-0.0007806969806551933,-0.0017777003813534975
1772795248982847000,1.426846923828125,-0.0007199464016593993,-0.0007785661146044731,0.00045322964433580637
1772795248992891100,1.43689111328125,-0.0006494898698292673,-0.0020607449114322662,0.0021446258760988712
1772795249002935800,1.446935791015625,-0.00027078838320448995,-0.0007094568572938442,0.003327335696667433
1772795249012980000,1.45697998046875,0.000008911301847547293,-0.00019802898168563843,-0.0005861840327270329
1772795249023025200,1.467025146484375,0.0019463610369712114,0.0032363836653530598,-0.0015776788350194693
1772795249033068800,1.47706884765625,0.00042410590685904026,0.0009277956560254097,-0.0012320878449827433
1772795249043114000,1.487114013671875,-0.0010728569468483329,-0.0006701010279357433,-0.0027444970328360796
1772795249053158100,1.497158203125,0.00048137723933905363,-0.0005132029764354229,-0.00008350342977792025
1772795249063201800,1.507201904296875,0.000017720856703817844,-0.0018754098564386368,-0.002129077445715666
1772795249073247000,1.5172470703125,0.0003868456115014851,0.00014339853078126907,0.00023881637025624514
1772795249083291100,1.527291015625,-0.000397455325582996,-0.0006403699517250061,-0.0021433811634778976
1772795249093335800,1.537335693359375,-0.0023023360408842564,-0.0006163069047033787,0.0001346463104709983
1772795249103380000,1.5473798828125,0.0003280682722106576,-0.0011952780187129974,-0.0024592727422714233
1772795249113425000,1.5574248046875,0.0009532946278341115,-0.0006996393203735352,-0.0014961075503379107
1772795249123468800,1.56746875,-0.0008515297085978091,0.0017568604089319706,0.0005265632644295692
1772795249133514000,1.577513916015625,-0.00015284703113138676,-0.001229892484843731,-0.000011112191714346409
1772795249143558100,1.58755810546875,0.001511894864961505,-0.0007862099446356297,-0.0009003417217172682
1772795249153601800,1.597601806640625,0.00009732891339808702,-0.0020946566946804523,-0.0011783855734393
1772795249163647000,1.60764697265625,0.0038103079423308372,-0.0031210388988256454,-0.0012383067514747381
1772795249173691100,1.617691162109375,0.0012788731837645173,0.001058683730661869,-0.0010394016280770302
1772795249183735800,1.62773583984375,0.00035741948522627354,-0.002901969011873007,0.00209007877856493
1772795249193780000,1.637780029296875,-0.0034727929159998894,-0.0008714259602129459,0.0023975358344614506
1772795249203825000,1.647824951171875,0.0012183651560917497,-0.001128154806792736,0.0005620853044092655
1772795249213868800,1.657868896484375,0.0009754649363458157,-0.0003586285747587681,0.0033841347321867943
1772795249223914000,1.6679140625,0.0004449632251635194,-0.0031504204962402582,-0.000015656580217182636
1772795249233958000,1.6779580078125,0.00181887811049819,-0.0001949639990925789,0.0013523324159905314
1772795249244001800,1.688001708984375,0.00027957098791375756,-0.00027299486100673676,0.0019390267552807927
1772795249254047000,1.698046875,0.0006101017352193594,0.000004696659743785858,0.002852861536666751
1772795249264091100,1.708091064453125,0.0023616626858711243,0.0006782100535929203,-0.0005895404028706253
1772795249274136000,1.718135986328125,0.00012143375352025032,-0.0011012786999344826,0.0030315774492919445
1772795249284180000,1.728179931640625,0.00027030438650399446,-0.0001148441806435585,-0.00045716349268332124
1772795249294225000,1.738224853515625,0.001907652011141181,-0.0019817352294921875,-0.0005581261357292533
1772795249304269000,1.74826904296875,0.0004908504197373986,0.0008508027531206608,-0.0002654447453096509
1772795249314314000,1.75831396484375,-0.0029043275862932205,0.00046701356768608093,-0.001089144148863852
1772795249324358000,1.76835791015625,-0.0007314543472602963,0.00030828919261693954,-0.0012337537482380867
1772795249334401800,1.77840185546875,0.0013774667168036103,-0.00021985219791531563,0.001683796988800168
1772795249344447000,1.788447021484375,-0.0005549229099415243,-0.0003684568218886852,-0.0021919014398008585
1772795249354491000,1.798490966796875,0.0011495953658595681,-0.00004093768075108528,0.0011065318249166012
1772795249364536000,1.8085361328125,-0.001971629448235035,0.00023150350898504257,-0.002450119936838746
1772795249374580000,1.818580078125,0.0026423947419971228,-0.001969521399587393,-0.0010859257308766246
1772795249384625000,1.828625,-0.0005483384011313319,-0.0025468948297202587,0.0026851105503737926
1772795249394669000,1.8386689453125,-0.0008564931340515614,-0.0015377341769635677,-0.00002063671126961708
1772795249404714000,1.8487138671875,0.0009699027286842465,0.0010702991858124733,-0.00018069264478981495
1772795249414758000,1.8587578125,0.0017100090626627207,0.0019006412476301193,0.0004903092049062252
1772795249424803000,1.868802978515625,0.0011121293064206839,-0.0010900883935391903,-0.0003347381134517491
1772795249434847000,1.878846923828125,0.00005803583189845085,0.0019552409648895264,0.0025440100580453873
1772795249444891000,1.888890869140625,0.00040717620868235826,-0.0003659697249531746,-0.0004752154927700758
1772795249454935300,1.898935302734375,0.00033993052784353495,0.0006994670256972313,0.0023123109713196754
1772795249464979500,1.9089794921875,0.0009455333929508924,0.00034579914063215256,0.0009951116517186165
1772795249475024100,1.919024169921875,0.0010725947795435786,-0.0018337857909500599,0.00146161497104913
1772795249485068300,1.929068359375,0.00015300523955374956,0.0013889055699110031,-0.0008801025105640292
1772795249495113500,1.939113525390625,-0.0009843180887401104,-0.0006635976023972034,-0.000026257475838065147
1772795249505157000,1.9491572265625,-0.0010652781929820776,0.000317511148750782,-0.0020558524411171675
1772795249515202300,1.959202392578125,0.0014150033239275217,-0.001159213948994875,0.0023321204353123903
1772795249525246500,1.96924658203125,-0.0006191191496327519,-0.001192769967019558,0.00023434858303517103
1772795249535290400,1.979290283203125,-0.0008893446065485477,-0.0004709092900156975,0.0017474042251706123
1772795249545335300,1.989335205078125,-0.0003500544698908925,0.0013959663920104504,0.0021378234960138798
1772795249555379500,1.99937939453125,-0.0007701817085035145,-0.0018740296363830566,0.0021339883096516132
1772795249565424400,2.00942431640625,0.0025254799984395504,-0.000237251166254282,0.0011350365821272135
1772795249575468300,2.01946826171875,-0.0011928336462005973,0.00045558949932456017,0.002567518735304475
1772795249585513500,2.029513427734375,0.0009235804900527,0.00013787439092993736,-0.0006154914735816419
1772795249595557400,2.039557373046875,-0.0003487041685730219,-0.0016424129717051983,0.0008989892667159438
1772795249605602300,2.049602294921875,0.0007202887209132314,-0.00047834543511271477,0.0010891390265896916
1772795249615646500,2.059646484375,0.003487254958599806,-0.00021513085812330246,-0.0009509962983429432
1772795249625691400,2.06969140625,-0.0010190799366682768,-0.0001533455215394497,0.00005035230424255133
1772795249635735300,2.0797353515625,-0.00342384772375226,0.00004413211718201637,0.00020543404389172792
1772795249645780200,2.0897802734375,-0.0008336573373526335,-0.000065589789301157,-0.0014622374437749386
1772795249655824400,2.099824462890625,0.0006739661330357194,-0.0007122955285012722,-0.000046514091081917286
1772795249665868300,2.109868408203125,0.00121192482765764,-0.0013820803724229336,-0.0023986180312931538
1772795249675913200,2.119913330078125,-0.0002078296965919435,0.0014064610004425049,0.001503889448940754
1772795249685957400,2.129957275390625,0.0009269432630389929,-0.00015255343168973923,-0.0008799060015007854
1772795249696002300,2.140002197265625,-0.00112246279604733,0.0016804239712655544,0.00024002115242183208
1772795249706046500,2.15004638671875,0.0006525340722873807,-0.0006932509131729603,-0.0006646545953117311
1772795249716091400,2.16009130859375,0.00026447372511029243,-0.0003978782333433628,-0.0004091438604518771
1772795249726135300,2.17013525390625,-0.0016692475182935596,-0.0001576608046889305,-0.0007207337184809148
1772795249736180200,2.18018017578125,-0.0008590136421844363,-0.0030539464205503464,0.0002848454751074314
1772795249746224400,2.190224365234375,-0.0008278546738438308,0.0001248023472726345,0.0018052440136671066
1772795249756269600,2.20026953125,-0.0003740334650501609,-0.0014950488694012165,0.0006979207973927259
1772795249766313200,2.210313232421875,-0.00007735734106972814,-0.0006148740649223328,0.0007509177085012197
1772795249776358400,2.2203583984375,-0.00012789817992597818,0.0015418683178722858,0.00164323509670794
1772795249786402300,2.23040234375,0.00077118503395468,0.00018578674644231796,0.0010775798000395298
1772795249796446200,2.2404462890625,0.0016336900880560279,-0.00036553898826241493,0.0012113273842260242
1772795249806491400,2.250491455078125,0.002618793398141861,-0.00030481908470392227,-0.00022784469183534384
1772795249816535300,2.260535400390625,0.001762243453413248,-0.0002754935994744301,-0.0005855170311406255
1772795249826580200,2.270580322265625,0.0008229466620832682,-0.001950622070580721,-0.00004436273593455553
1772795249836624400,2.280624267578125,0.0008344765519723296,0.00010785460472106934,-0.0007352642132900655
1772795249846669300,2.29066943359375,0.00015190837439149618,-0.005043231416493654,0.0014543868601322174
1772795249856713200,2.300713134765625,0.0008078021928668022,-0.0003896960988640785,0.0017580485437065363
1772795249866758400,2.31075830078125,0.0003417490515857935,-0.00008343299850821495,-0.0019895515870302916
1772795249876802600,2.320802490234375,-0.0015480858273804188,0.0016238135285675526,-0.0027087328489869833
1772795249886847200,2.33084716796875,-0.0013036075979471207,0.0006712009198963642,0.0012702960520982742
1772795249896891400,2.340891357421875,-0.0014085941947996616,-0.0007422813214361668,-0.0006026545306667686
1772795249906936300,2.350936279296875,-0.001446144888177514,-0.0013468191027641296,0.0007640797412022948
1772795249916980200,2.360980224609375,-0.00015389005420729518,-0.003027839818969369,0.001195505610667169
1772795249927025400,2.371025390625,-0.00002632464747875929,-0.0008664182387292385,0.0007022883510217071
1772795249937069300,2.3810693359375,0.000450383173301816,0.00031615234911441803,0.002330678515136242
1772795249947113200,2.39111328125,-0.0020769566763192415,-0.0007057026959955692,-0.0018100041197612882
1772795249957158400,2.401158447265625,-0.0004485879326239228,0.0012199180200695992,0.0013811042299494147
1772795249967202300,2.411202392578125,-0.0009079831652343273,-0.0007691970095038414,-0.001229858840815723
1772795249977247200,2.421247314453125,0.000742561649531126,0.0005039307288825512,0.0018600407056510448
1772795249987291400,2.43129150390625,-0.003236201126128435,0.0012006140314042568,-0.0008728951215744019
1772795249997336300,2.44133642578125,-0.00014522194396704435,-0.0007186564616858959,-0.0026370473206043243
1772795250007380200,2.451380126953125,0.0005831526359543204,-0.000664594117552042,-0.00017042760737240314
1772795250017425400,2.46142529296875,-0.0003187570837326348,0.0010958882048726082,0.0034464469645172358
1772795250027469300,2.47146923828125,-0.0011925402795895934,-0.0004791049286723137,-0.00036453630309551954
1772795250037514500,2.481514404296875,-0.0028240447863936424,0.001566519495099783,-0.0028512568678706884
1772795250047558400,2.491558349609375,0.003425062634050846,-0.0009799953550100327,0.0034215529449284077
1772795250057603300,2.501603271484375,-0.00025617179926484823,0.0021938197314739227,-0.00024140405002981424
1772795250067647500,2.5116474609375,0.0014242827892303467,-0.001558041200041771,0.00021985545754432678
1772795250077692200,2.521692138671875,0.000175791559740901,-0.0014843735843896866,-0.0015907712513580918
1772795250087736300,2.531736328125,-0.00023726478684693575,0.0010389718227088451,0.0016734652454033494
1772795250097781500,2.541781494140625,-0.0010887206299230456,0.00024253688752651215,-0.0023724762722849846
1772795250107825200,2.5518251953125,-0.00019150169100612402,-0.00031646061688661575,-0.000009986222721636295
1772795250117869300,2.561869384765625,-0.00029967701993882656,-0.0014575463719666004,0.001764182117767632
1772795250127914500,2.57191455078125,0.0008609285578131676,-0.00157499173656106,0.002061657141894102
1772795250137958400,2.58195849609375,-0.00021508423378691077,0.0017147478647530079,-0.0016729161143302917
1772795250148003300,2.59200341796875,-0.0002608906361274421,-0.00022962596267461777,-0.0036505796015262604
1772795250158047500,2.602047607421875,0.0006565147778019309,-0.0022707805037498474,0.002107738284394145
1772795250168092200,2.612092041015625,0.001058385707437992,-0.000717890914529562,-0.0006760638789273798
1772795250178136300,2.62213623046875,-0.001311353873461485,0.0003575771115720272,0.0007862541824579239
1772795250188181500,2.632181396484375,-0.002087931614369154,0.0014228415675461292,-0.0010635775979608297
1772795250198225200,2.64222509765625,0.0016639260575175285,0.000018002931028604507,-0.0019285206217318773
1772795250208270300,2.652270263671875,0.0009438074193894863,-0.0002051698975265026,0.0021351969335228205
1772795250218314500,2.662314453125,-0.0011915734503418207,-0.00039796531200408936,0.003208567388355732
1772795250228359200,2.672359130859375,0.00003827433101832867,0.0002830051816999912,0.0003627135884016752
1772795250238403300,2.6824033203125,-0.0004296055994927883,-0.0028383713215589523,0.0009759273380041122
1772795250248448300,2.6924482421875,-0.0006538437446579337,-0.0006194254383444786,0.0023405312094837427
1772795250258492200,2.7024921875,-0.00005948089528828859,0.0014449665322899818,0.0010432599810883403
1772795250268537300,2.712537353515625,0.0008521191775798798,0.0017869165167212486,0.0019817580468952656
1772795250278581500,2.72258154296875,0.0017637945711612701,-0.0011758175678551197,0.0017919167876243591
1772795250288626400,2.73262646484375,0.0015744438860565424,-0.0006394567899405956,0.0012238644994795322
1772795250298670300,2.74267041015625,-0.0006017375271767378,-0.0001336401328444481,0.001102573238313198
1772795250308715300,2.75271533203125,0.002045711036771536,0.001589957159012556,-0.0011576514225453138
1772795250318759400,2.762759521484375,-0.0019386225612834096,0.002261134795844555,-0.0024263986852020025
1772795250328804400,2.772804443359375,-0.00014738045865669847,0.0005090408958494663,0.003205388318747282
1772795250338848300,2.78284814453125,0.0006156262243166566,-0.0028986723627895117,0.000045757973566651344
1772795250348892400,2.792892333984375,0.0015344168059527874,0.0001767459325492382,-0.0024850438348948956
1772795250358937300,2.802937255859375,0.000027479836717247963,-0.00018948083743453026,0.0017865827539935708
1772795250368981200,2.812981201171875,-0.0007339179283007979,0.0003436841070652008,-0.0006848307093605399
1772795250379026400,2.8230263671875,-0.00032084365375339985,-0.0010385322384536266,-0.0005001929821446538
1772795250389070300,2.8330703125,-0.00033336051274091005,-0.0012398669496178627,-0.0009800945408642292
1772795250399115300,2.843115234375,0.0014871296007186174,0.00024771643802523613,0.000790631864219904
1772795250409159400,2.853159423828125,0.0011313313152641058,0.0012290910817682743,0.0017645498737692833
1772795250419204400,2.863204345703125,0.0008396292105317116,-0.0015621492639183998,0.00031793618109077215
1772795250429248300,2.873248291015625,0.0024010404013097286,0.000026426278054714203,-0.002913277130573988
1772795250439293400,2.88329345703125,-0.002359301084652543,0.0006166058592498302,-0.0023421202786266804
1772795250449337300,2.89333740234375,0.0006231730803847313,-0.002174386754631996,-0.0016726015601307154
1772795250459382800,2.9033828125,-0.002345814136788249,0.00154807697981596,0.0012319732923060656
1772795250469426700,2.9134267578125,0.0013061787467449903,0.000708914827555418,-0.000417854986153543
1772795250479471600,2.9234716796875,-0.0007293717935681343,-0.00044871168211102486,0.0002980033168569207
1772795250489515800,2.933515869140625,0.0001334924018010497,0.00005702255293726921,0.00019813468679785728
1772795250499561000,2.94356103515625,-0.0018186916131526232,0.0010101227089762688,-0.002154566813260317
1772795250509604600,2.9536044921875,-0.0018250831635668874,-0.0010397126898169518,0.001516068005003035
1772795250519649800,2.96364990234375,-0.0009981215698644519,0.0009922096505761147,0.00042695493903011084
1772795250529693700,2.973693603515625,0.0015369413886219263,-0.0003729267045855522,0.0003159011248499155
1772795250539738600,2.983738525390625,-0.0004476733156479895,-0.0014411089941859245,0.0014754143776372075
1772795250549782800,2.99378271484375,0.000585899455472827,-0.0015726694837212563,-0.0006524513592012227
1772795250559827700,3.00382763671875,-0.0008997581317089498,0.00005878973752260208,-0.0011925662402063608
1772795250569871600,3.01387158203125,0.0011570012429729104,0.00028435979038476944,0.0011970881605520844
1772795250579916800,3.023916748046875,0.00031915621366351843,0.0008163908496499062,-0.00013157818466424942
1772795250589960700,3.033960693359375,0.00014178967103362083,-0.0016947039403021336,-0.0001765855122357607
1772795250600005600,3.044005615234375,0.0019725579768419266,0.0001879911869764328,0.000058065750636160374
1772795250610049800,3.0540498046875,0.00017918518278747797,0.0007901322096586227,-0.0008548658806830645
1772795250620094700,3.0640947265625,0.0026355437003076077,-0.0010333433747291565,0.0034360866993665695
1772795250630138600,3.074138671875,-0.0003919379669241607,-0.001463976688683033,-0.0000031195813789963722
1772795250640183800,3.084183837890625,0.0006552527192980051,0.00004607252776622772,-0.0015463883755728602
1772795250650227700,3.094227783203125,-0.0010787314968183637,0.0007219826802611351,0.00017401366494596004
1772795250660272600,3.104272705078125,0.0023465389385819435,0.0017856652848422527,0.00003888062201440334
1772795250670316800,3.11431689453125,-0.002617060672491789,-0.0035976485814899206,0.0024844615254551172
1772795250680361700,3.12436181640625,0.00001318054273724556,0.0009064353071153164,0.001826306339353323
1772795250690405600,3.134405517578125,0.0016760583966970444,-0.00028639426454901695,-0.0012184857623651624
1772795250700450600,3.144450439453125,-0.00007576309144496918,0.0018466878682374954,-0.0005115527310408652
1772795250710494700,3.15449462890625,-0.0004941456718370318,0.0011654510162770748,0.0004927252884954214
1772795250720540000,3.164539794921875,0.0023378594778478146,-0.0016416963189840317,0.00166112941224128
1772795250730583600,3.17458349609375,-0.0013647332089021802,-0.0016555446200072765,-0.002590341027826071
1772795250740628700,3.184628662109375,0.00419408967718482,0.00021363794803619385,0.000272875651717186
1772795250750673000,3.1946728515625,-0.0008717753225937486,0.0007036593742668629,0.0009181596105918288
1772795250760717600,3.204717529296875,-0.0004809021484106779,0.0020511960610747337,-0.0025344789028167725
1772795250770761700,3.21476171875,-0.0017219351138919592,0.0023891506716609,0.0005720985354855657
1772795250780806700,3.224806640625,0.0005756383761763573,0.001140798907727003,-0.0014843001263216138
1772795250790850600,3.2348505859375,-0.0008592727826908231,0.0019328230991959572,-0.0004597820225171745
1772795250800895700,3.244895751953125,-0.0003227218403480947,0.00033217668533325195,0.0009823325090110302
1772795250810940000,3.25493994140625,0.0007316236151382327,0.000021385960280895233,-0.002927720546722412
1772795250820984600,3.264984619140625,0.0012048160424456,0.0007574483752250671,-0.0002896588994190097
1772795250831028700,3.27502880859375,-0.0009033423266373575,0.0002796775661408901,0.0019873438868671656
1772795250841073700,3.28507373046875,-0.0014175032265484333,0.000360813457518816,-0.0014632148668169975
1772795250851117600,3.29511767578125,0.0007686857134103775,-0.001534292008727789,0.0009602617938071489
1772795250861161700,3.30516162109375,-0.00017420999938622117,0.0005986993201076984,0.0011487648589536548
1772795250871206700,3.31520654296875,-0.00004850875120609999,-0.0012649805285036564,-0.0016214553033933043
1772795250881251800,3.325251953125,-0.00035621289862319827,0.00018039625138044357,-0.0005595034454017878
1772795250891295700,3.335295654296875,-0.00049789302283898,0.0009377994574606419,-0.0003501789760775864
1772795250901340700,3.345340576171875,0.0011717944871634245,-0.00017059873789548874,-0.001272806548513472
1772795250911384800,3.355384765625,0.00021838280372321606,0.0006925319321453571,-0.00020754209253937006
1772795250921428700,3.3654287109375,-0.000022367225028574467,-0.0013024634681642056,0.0015879209386184812
1772795250931473700,3.3754736328125,0.0024799390230327845,0.0011649555526673794,-0.0019420990720391273
1772795250941517800,3.385517822265625,0.0000025293556973338127,0.0018270001746714115,-0.0030178744345903397
1772795250951562800,3.395562744140625,-0.0014379745116457343,-0.0005157827399671078,-0.002629585564136505
1772795250961607700,3.405607666015625,0.0007466903189197183,0.0011566909961402416,-0.0025043196510523558
1772795250971651800,3.41565185546875,-0.0019628098234534264,-0.0009061936289072037,0.0004256900865584612
1772795250981696500,3.425696533203125,-0.0016067747492343187,0.00012981612235307693,-0.00034506560768932104
1772795250991740700,3.43574072265625,-0.0018792161718010902,-0.001250233966857195,-0.00014612753875553608
1772795251001785900,3.445785888671875,-0.00048109370982274413,0.0009651957079768181,-0.0030480981804430485
1772795251011829500,3.45582958984375,-0.0006818960537202656,-0.0025690854527056217,0.0009037667186930776
1772795251021874700,3.465874755859375,-0.002074143383651972,-0.0011170036159455776,-0.0006325612193904817
1772795251031918800,3.4759189453125,-0.0007484217640012503,0.000799140427261591,-0.0013569410657510161
1772795251041963800,3.4859638671875,0.0018720451043918729,0.001732426229864359,-0.0006363894790410995
1772795251052007700,3.496007568359375,-0.000692046363838017,-0.0012798751704394817,-0.0028611943125724792
1772795251062052600,3.506052490234375,0.0014786961255595088,0.0014027850702404976,0.0033956270199269056
1772795251072096800,3.5160966796875,-0.00045768823474645615,0.0005316645838320255,-0.0009621032513678074
1772795251082141700,3.5261416015625,0.0018055435502901673,-0.0006683282554149628,0.003212269861251116
1772795251092185900,3.536185791015625,0.0006633137818425894,-0.00003502890467643738,-0.00037500791950151324
1772795251102230800,3.546230712890625,-0.0014559219125658274,-0.000010401010513305664,-0.00126355211250484
1772795251112274700,3.556274658203125,-0.0010340771405026317,0.0012098592706024647,0.00021130649838596582
1772795251122319600,3.566319580078125,0.0014401060761883855,0.00030419323593378067,0.001217324286699295
1772795251132363800,3.57636376953125,-0.00044115079799667,0.0005888850428164005,-0.0004327702336013317
1772795251142408700,3.58640869140625,0.0011140650603920221,-0.0016945605166256428,-0.0008478016825392842
1772795251152452600,3.59645263671875,-0.0004204483702778816,-0.0012628622353076935,0.000005208770744502544
1772795251162497800,3.606497802734375,-0.000693300215061754,-0.0006075440905988216,-0.0004926547990180552
1772795251172541700,3.616541748046875,-0.0013348556822165847,0.0017373696900904179,-0.002746754325926304
1772795251182586600,3.626586669921875,0.0018898812122642994,0.001628638245165348,-0.0020528207533061504
1772795251192630800,3.636630859375,0.0003657541237771511,-0.000477389432489872,-0.00003600900527089834
1772795251202675700,3.64667578125,-0.0007339381845667958,0.0013019433245062828,0.003378077642992139
1772795251212719600,3.6567197265625,0.0003678115317597985,-0.0010874453000724316,0.0018393031787127256
1772795251222764800,3.666764892578125,-0.00030700908973813057,-0.001539756078273058,-0.0015007678885012865
1772795251232808700,3.67680859375,-0.00008143938612192869,-0.0000933934934437275,-0.0032105175778269768
1772795251242853600,3.686853515625,0.00008619902655482292,-0.000558286439627409,0.0016518691554665565
1772795251252897800,3.696897705078125,-0.0008597557316534221,0.0008734287694096565,-0.0021058511920273304
1772795251262942700,3.706942626953125,0.003197699785232544,-0.0014862068928778172,0.0006995870498940349
1772795251272986600,3.716986572265625,-0.0002556210965849459,0.0018810941837728024,-0.0004319900763221085
1772795251283031800,3.72703173828125,0.00037310225889086723,-0.0011014961637556553,-0.0005173420649953187
1772795251293075700,3.73707568359375,-0.000350212212651968,0.0004705674946308136,0.004510173108428717
1772795251303120600,3.74712060546875,-0.00036143139004707336,0.0008917953819036484,0.00004809803795069456
1772795251313164800,3.757164794921875,0.0005893170600757003,0.0009991209954023361,0.000525602838024497
1772795251323209700,3.767209716796875,-0.0006250322330743074,-0.000881098210811615,-0.0025331247597932816
1772795251333253600,3.777253662109375,0.0009957675356417894,0.0007769856601953506,0.0020499094389379025
1772795251343298600,3.787298583984375,0.00003117608139291406,-0.000024629756808280945,0.00022229203023016453
1772795251353342700,3.7973427734375,-0.0023331784177571535,0.0011018873192369938,-0.000499158282764256
1772795251363388000,3.807387939453125,-0.0007220833795145154,0.0014080055989325047,0.0017536013619974256
1772795251373431800,3.817431884765625,0.00017859775107353926,0.0003696391358971596,-0.002624635584652424
1772795251383476700,3.827476806640625,0.00267241382971406,0.0013951822184026241,0.002435666974633932
1772795251393521000,3.83752099609375,0.0016990285366773605,-0.0001111016608774662,-0.0021202024072408676
1772795251403565600,3.847565673828125,-0.00039273157017305493,-0.0006689312867820263,-0.0006674891337752342
1772795251413609700,3.857609619140625,0.002325823064893484,-0.0023733540438115597,0.000808434677310288
1772795251423655000,3.867655029296875,0.00008188921492546797,0.0004056333564221859,-0.0007851558038964868
1772795251433698600,3.877698486328125,-0.001863017212599516,-0.0002359221689403057,0.0011469676392152905
1772795251443743700,3.88774365234375,-0.000037751044146716595,-0.0015388289466500282,0.0005440111272037029
1772795251453788000,3.897787841796875,-0.000199671252630651,-0.00022668950259685516,-0.0007130008889362216
1772795251463832800,3.907832763671875,-0.000259519147220999,0.0020980951376259327,-0.0004996111383661628
1772795251473877000,3.917876953125,0.0008723242790438235,0.00022109923884272575,-0.0018575569847598672
1772795251483921700,3.927921630859375,-0.00028737238608300686,-0.0006440686993300915,0.0007768117357045412
1772795251493965800,3.9379658203125,-0.0012178808683529496,-0.001573511864989996,0.0009682930540293455
1772795251504011000,3.948010986328125,0.001264994964003563,0.0020520929247140884,0.0019075407180935144
1772795251514055700,3.9580556640625,0.0004074572934769094,0.0011181221343576908,-0.00046107469825074077
1772795251524099800,3.968099853515625,-0.00028161739464849234,-0.0016716565005481243,-0.0009869722416624427
1772795251534144800,3.978144775390625,0.0002843043766915798,0.0002436889335513115,-0.0010777859715744853
1772795251544188700,3.988188720703125,-0.0011641285382211208,0.0001744171604514122,0.0010097004706040025
1772795251554233900,3.99823388671875,-0.00020192842930555344,0.0011328887194395065,0.0006746748695150018
1772795251564277800,4.00827783203125,0.000019353581592440605,0.000248677097260952,-0.0015465952455997467
1772795251574323000,4.018322998046875,0.00039192981785163283,-0.00044214678928256035,0.0019647825974971056
1772795251584366800,4.028366943359375,0.0015341808320954442,0.0011772923171520233,-0.00027827767189592123
1772795251594411800,4.038411865234375,0.001078514032997191,0.0003636968322098255,0.0012354630744084716
1772795251604456000,4.0484560546875,-0.0014909630408510566,0.0017186794430017471,-0.0005658926093019545
1772795251614500900,4.0585009765625,0.001619609072804451,0.0020401235669851303,0.0013076412724331021
1772795251624544800,4.068544677734375,0.0021180338226258755,0.00017614848911762238,-0.0005451920442283154
1772795251634590000,4.07858984375,0.00002106075407937169,0.00026536453515291214,-0.0005643668118864298
1772795251644633900,4.0886337890625,0.0002847581636160612,0.0004693465307354927,0.0008571187499910593
1772795251654678800,4.0986787109375,-0.0005602628225460649,0.0004246053285896778,-0.0034212495665997267
1772795251664723000,4.108722900390625,0.0000970188993960619,0.00008335290476679802,0.0023145931772887707
1772795251674767600,4.118767578125,0.0003830424975603819,-0.000482835341244936,-0.0032258471474051476
1772795251684811800,4.128811767578125,0.001981216249987483,-0.00000505475327372551,0.0018537231953814626
1772795251694857000,4.13885693359375,0.00003231508890166879,-0.00029134470969438553,-0.0007774799596518278
1772795251704900900,4.14890087890625,-0.00043171283323317766,0.0008229254744946957,0.0007439414039254189
1772795251714945800,4.15894580078125,0.0020261185709387064,-0.0003446042537689209,0.0023194674868136644
1772795251724990000,4.168989990234375,0.0034632545430213213,-0.0015017706900835037,0.000696155009791255
1772795251735035000,4.179034912109375,-0.000465174118289724,0.0021566133946180344,-0.0001491323346272111
1772795251745079800,4.189079833984375,-0.0006694303592666984,0.00011148815974593163,-0.0010962735395878553
1772795251755124000,4.1991240234375,0.001033927546814084,-0.00023525534197688103,0.00010188261512666941
1772795251765169000,4.2091689453125,-0.0001524758990854025,0.0004431959241628647,0.0012649501441046596
1772795251775212800,4.219212890625,0.00017029920127242804,0.0009278911165893078,-0.001863731537014246
1772795251785257700,4.2292578125,-0.0006442934973165393,0.0003589140251278877,-0.00014090444892644882
1772795251795302000,4.239302001953125,-0.0014293934218585491,0.002468403894454241,-0.0011430520098656416
1772795251805346800,4.249346923828125,-0.0009835860691964626,0.0019975341856479645,-0.0019255781080573797
1772795251815390700,4.259390625,-0.0021124999038875103,0.00034344475716352463,0.0005639448063448071
1772795251825436000,4.269435791015625,0.0009158378234133124,-0.00043560750782489777,0.00148863741196692
1772795251835479800,4.279479736328125,-0.0014485166175290942,-0.0008699693717062473,-0.0006669252179563046
1772795251845524700,4.289524658203125,-0.0011857845820486546,0.0026733987033367157,-0.0007114452891983092
1772795251855569000,4.29956884765625,0.001573782879859209,-0.0009674085304141045,-0.0005655040731653571
1772795251865613800,4.30961376953125,0.0032429269049316645,0.0003771241754293442,0.0010480366181582212
1772795251875657700,4.31965771484375,0.0009978821035474539,0.0011185482144355774,-0.003296644426882267
1772795251885703000,4.329702880859375,-0.00010408496018499136,0.0009649833664298058,-0.00033926067408174276
1772795251895747000,4.3397470703125,-0.0023656412959098816,0.001932509709149599,0.00033691595308482647
1772795251905791700,4.349791748046875,-0.0012964782072231174,0.001037116628140211,0.0023288170341402292
1772795251915836000,4.3598359375,-0.00026716641150414944,0.0014810655266046524,-0.0005002589896321297
1772795251925883000,4.3698828125,0.0005893327761441469,-0.0009509525261819363,0.0001899063354358077
1772795251935927000,4.379927001953125,-0.00013637857045978308,-0.0010020849294960499,0.0006181426579132676
1772795251945971700,4.3899716796875,-0.0011987934121862054,0.0005065291188657284,0.0040381429716944695
1772795251956015900,4.400015869140625,0.0017439995426684618,-0.0008143987506628036,-0.000153406523168087
1772795251966060800,4.410060791015625,0.0012780955294147134,0.0003055185079574585,-0.000023306231014430523
1772795251976104700,4.420104736328125,0.001651204307563603,0.00034067220985889435,-0.0005167899653315544
1772795251986150000,4.43014990234375,-0.0006524035707116127,-0.00018550874665379524,0.0006549201207235456
1772795251996193800,4.44019384765625,0.00031858496367931366,0.000844868365675211,0.0012056617997586727
1772795252006239000,4.450239013671875,-0.0009620003984309733,-0.0005961633287370205,-0.00014908204320818186
1772795252016283000,4.460282958984375,0.0006111288676038384,-0.0026617110706865788,0.0011313658906146884
1772795252026327800,4.470327880859375,-0.000009871029760688543,-0.00008950941264629364,0.0002319172490388155
1772795252036373000,4.480373046875,0.0005677686422131956,0.0017195758409798145,-0.0002618328435346484
1772795252046416600,4.490416748046875,-0.003625797340646386,-0.0006528259254992008,-0.0010325551265850663
1772795252056461800,4.5004619140625,-0.002506470773369074,-0.00020674662664532661,-0.0017140579875558615
1772795252066506000,4.510506103515625,0.0009047130006365478,-0.00029807211831212044,-0.0008522973512299359
1772795252076550700,4.520550537109375,-0.0010143609251827002,-0.001483711414039135,0.0024750560987740755
1772795252086594800,4.5305947265625,-0.0031446083448827267,-0.002917687641456723,-0.00019248249009251595
1772795252096639700,4.5406396484375,-0.0011514986399561167,0.003109312616288662,-0.001554955611936748
1772795252106683600,4.55068359375,0.00038875045720487833,0.0010982123203575611,-0.0025042351335287094
1772795252116728800,4.560728759765625,0.0001812902046367526,0.0007767691276967525,0.0013645387953147292
1772795252126773000,4.57077294921875,0.0016589966835454106,0.00025822315365076065,-0.0012434726813808084
1772795252136818000,4.58081787109375,0.0004547152202576399,-0.000383865088224411,-0.001924443058669567
1772795252146861800,4.59086181640625,-0.0011315906886011362,-0.0015937057323753834,0.00023209222126752138
1772795252156906800,4.60090673828125,0.0014170544454827905,0.0014532171189785004,0.00019986799452453852
1772795252166952000,4.610951904296875,0.0010283358860760927,-0.0008896728977560997,0.0012800558470189571
1772795252176995800,4.620995849609375,-0.0003165605594404042,-0.0007173665799200535,-0.0002842849353328347
1772795252187040800,4.631040771484375,-0.0011150558711960912,0.002641769126057625,-0.0007641803240403533
1772795252197085000,4.6410849609375,-0.001094016944989562,0.0004902016371488571,0.0011346535757184029
1772795252207129900,4.6511298828125,0.0014710843097418547,0.000858002807945013,0.002354145050048828
1772795252217173800,4.661173828125,0.0001901038340292871,0.0026393914595246315,0.0002944560255855322
1772795252227219000,4.671218994140625,-0.0016768884379416704,-0.0002390202134847641,0.0013086616527289152
1772795252237262800,4.681262939453125,0.00125178974121809,0.0014885729178786278,0.002602159045636654
1772795252247307800,4.691307861328125,-0.001308305887505412,-0.00016806134954094887,0.00007577438373118639
1772795252257352000,4.70135205078125,-0.0006169492844492197,-0.0010093539021909237,-0.00017110072076320648
1772795252267396900,4.71139697265625,-0.0005679241148754954,-0.0002752351574599743,0.0007725501200184226
1772795252277440800,4.721440673828125,0.000986829400062561,0.001298427116125822,0.000910235452465713
1772795252287486000,4.73148583984375,0.00033405644353479147,-0.000737946480512619,0.0000030782539397478104
1772795252297529900,4.74152978515625,-0.00021135888528078794,0.0007941704243421555,0.0010909796692430973
1772795252307574800,4.75157470703125,0.0003353217034600675,0.0007154112681746483,0.00011863559484481812
1772795252317619700,4.76161962890625,-0.001300125615671277,-0.000230276957154274,0.001591363805346191
1772795252327663900,4.771663818359375,-0.0008578866836614907,0.00023759715259075165,0.000002603977918624878
1772795252337709000,4.781708984375,-0.0024467287585139275,-0.000681459903717041,-0.0007113895262591541
1772795252347752700,4.791752685546875,-0.000040598795749247074,0.0011343690566718578,0.002341701416298747
1772795252357798000,4.8017978515625,0.00048297870671376586,0.0008115940727293491,0.0011408820282667875
1772795252367841800,4.811841796875,-0.0002899589599110186,-0.0008423007093369961,0.003431969089433551
1772795252377886700,4.82188671875,0.0012698546051979065,-0.0003743832930922508,-0.0004394682473503053
1772795252387931000,4.831930908203125,0.001025271718390286,-0.0004691598005592823,-0.0003454414545558393
1772795252397975800,4.841975830078125,-0.0000362642458640039,-0.00024572061374783516,0.00044045737013220787
1772795252408019700,4.852019775390625,0.0014225488994270563,-0.0031676182989031076,-0.00010902248322963715
1772795252418065000,4.86206494140625,0.0008856556378304958,-0.0016594701446592808,0.00011441670358181
1772795252428109800,4.87210986328125,0.00003265909617766738,-0.0009057167917490005,0.000879300176165998
1772795252438153700,4.88215380859375,-0.00003338727401569486,0.002042402047663927,-0.00031965505331754684
1772795252448198700,4.89219873046875,0.0010061240755021572,0.0004545217379927635,-0.0006958741578273475
1772795252458242600,4.90224267578125,0.00033207808155566454,0.0009597232565283775,-0.0009059975855052471
1772795252468287500,4.91228759765625,-0.0013672563945874572,0.0010336041450500488,0.002196992514654994
1772795252478331600,4.92233154296875,-0.0005288933170959353,-0.0011728247627615929,-0.0007865469087846577
1772795252488376600,4.93237646484375,0.000744518474675715,0.0031052064150571823,-0.0027482775039970875
1772795252498420500,4.94242041015625,-0.00034285016590729356,-0.0008921981789171696,0.0020363577641546726
1772795252508465400,4.95246533203125,0.000997580005787313,-0.0010478654876351357,-0.001429494470357895
1772795252518509600,4.962509521484375,-0.00020483735715970397,-0.00033493712544441223,0.0018019850831478834
1772795252528554500,4.972554443359375,-0.00006130430847406387,-0.00007107574492692947,0.0005669081583619118
1772795252538599400,4.982599365234375,-0.000975034839939326,-0.0019968077540397644,0.0008390833390876651
1772795252548643600,4.9926435546875,-0.0009640868520364165,0.000913434661924839,-0.0004211635095998645
1772795252558688800,5.002688720703125,-0.0003249282017350197,-0.0009851325303316116,0.0034148534759879112
1772795252568732400,5.012732421875,0.00029874639585614204,0.0005005793645977974,0.00016451929695904255
1772795252578777600,5.022777587890625,0.0013576190685853362,0.0003591654822230339,0.00046519015450030565
1772795252588821800,5.03282177734375,-0.00024314800975844264,0.0020119892433285713,0.0003853245871141553
1772795252598866400,5.042866455078125,0.00043835490942001343,0.001618906855583191,0.0007602976402267814
1772795252608910600,5.05291064453125,0.00015004369197413325,0.0006085564382374287,0.001324414974078536
1772795252618955500,5.06295556640625,-0.0017123047728091478,0.0005832565948367119,0.0019830146338790655
1772795252628999400,5.07299951171875,-0.0012204486411064863,-0.00017849495634436607,0.0000776657834649086
1772795252639044600,5.083044677734375,-0.000324295018799603,-0.00010605715215206146,0.003182379063218832
1772795252649089500,5.093089599609375,0.0008421295788139105,0.0002873111516237259,0.0018435699166730046
1772795252659133400,5.103133544921875,-0.00047879829071462154,0.0014276765286922455,0.001467531663365662
1772795252669178400,5.113178466796875,-0.0012742574326694012,0.0007377252914011478,0.0006281986134126782
1772795252679222500,5.123222412109375,-0.00016691506607457995,-0.000026335474103689194,0.0019997265189886093
1772795252689267700,5.133267822265625,-0.000034872733522206545,-0.000256397295743227,0.0020541083067655563
1772795252699311600,5.1433115234375,0.0004626057343557477,0.0004674498923122883,0.0005659337621182203
1772795252709356500,5.1533564453125,0.0015023383311927319,-0.000734302680939436,0.002009619027376175
1772795252719400700,5.163400634765625,0.002678656717762351,-0.0006895614787936211,0.0020740674808621407
1772795252729445400,5.1734453125,-0.0013984594261273742,-0.0016107885167002678,0.0006429391214624047
1772795252739489500,5.183489501953125,-0.0005244099884293973,0.002661187667399645,0.0004088472342118621
1772795252749534700,5.19353466796875,0.0019662061240524054,0.0005629626102745533,0.0009697122732177377
1772795252759579600,5.20357958984375,0.0007563320104964077,-0.0019452027045190334,-0.00068064866354689
1772795252769623600,5.21362353515625,0.0019690836779773235,-0.0009534051641821861,0.0034616398625075817
1772795252779668500,5.22366845703125,-0.001748156500980258,0.0017619533464312553,-0.0004609299940057099
1772795252789712400,5.23371240234375,-0.00019092712318524718,0.0011209947988390923,0.00006333761848509312
1772795252799757600,5.243757568359375,-0.0007334130350500345,-0.0005000713281333447,-0.0009987310040742159
1772795252809801500,5.253801513671875,-0.0006137230666354299,-0.00019522523507475853,-0.000342457031365484
1772795252819846700,5.2638466796875,-0.001405214541591704,0.001319314818829298,0.000692713656462729
1772795252829890600,5.273890625,0.001715090242214501,-0.0021400926634669304,0.00011548446491360664
1772795252839935500,5.283935546875,-0.000014632823877036572,0.0009358581155538559,-0.002615054603666067
1772795252849980700,5.293980712890625,0.00035498931538313627,-0.0008138925768435001,0.0007493192097172141
1772795252860024600,5.304024658203125,0.00010225537698715925,-0.0006695492193102837,-0.0004986380808986723
1772795252870069500,5.314069580078125,0.0005381959490478039,0.000219705980271101,0.00023976562079042196
1772795252880113700,5.32411376953125,0.00005962583236396313,-0.0019960440695285797,0.0022219563834369183
1772795252890158600,5.33415869140625,0.0011344715021550655,-0.0019992096349596977,0.0009008812485262752
1772795252900202500,5.344202392578125,0.0006135570001788437,0.0019167023710906506,0.0012787837767973542
1772795252910247700,5.35424755859375,0.00001955160405486822,-0.000011202879250049591,-0.00019983667880296707
1772795252920291600,5.36429150390625,-0.001265956205315888,0.001964596565812826,0.0005929863546043634
1772795252930336500,5.37433642578125,0.001292898552492261,-0.0020833672024309635,-0.0010624383576214314
1772795252940381400,5.38438134765625,0.0014345787931233644,-0.00003406498581171036,-0.0003516406868584454
1772795252950425600,5.394425537109375,-0.0007523593958467245,-0.00009349221363663673,0.0002176737179979682
1772795252960470500,5.404470458984375,0.0019374332623556256,0.00033074943348765373,-0.002702482510358095
1772795252970514400,5.414514404296875,0.0005096965469419956,0.0026217829436063766,0.0003983903443440795
1772795252980559600,5.4245595703125,0.0006601652130484581,-0.00009357556700706482,0.0011139815906062722
1772795252990603500,5.434603515625,-0.0004931485746055841,-0.0015568328090012074,-0.0005861239042133093
1772795253000648400,5.4446484375,-0.0003101893817074597,0.001514590810984373,0.00011508644092828035
1772795253010692600,5.454692626953125,-0.0010358510771766305,-0.002383485436439514,0.0008515235967934132
1772795253020737500,5.464737548828125,0.001396414008922875,-0.00011340714991092682,0.003177794860675931
1772795253030782500,5.474782470703125,0.00028406933415681124,-0.0004310896620154381,-0.00023403239902108908
1772795253040826600,5.48482666015625,-0.0008562962175346911,0.0018224772065877914,-0.0005216538556851447
1772795253050871600,5.49487158203125,0.00035776797449216247,0.0017616492696106434,-0.0006765161524526775
1772795253060915500,5.50491552734375,-0.00033332238672301173,-0.0008064373396337032,-0.001960159745067358
1772795253070960600,5.514960693359375,0.002759714610874653,-0.0004206625744700432,-0.0012385505251586437
1772795253081004500,5.525004638671875,-0.00110426580067724,-0.0005905725993216038,0.0009215394966304302
1772795253091049500,5.535049560546875,-0.002054109238088131,0.00041906535625457764,-0.00011662475299090147
1772795253101093600,5.54509375,0.0013928202679380774,0.0009477026760578156,-0.003801374463364482
1772795253111138600,5.555138671875,0.00025995710166171193,0.000057656317949295044,0.00047592748887836933
1772795253121183700,5.565183837890625,0.0011406643316149712,0.0006989454850554466,0.000051419599913060665
1772795253131227400,5.575227294921875,0.0003587946412153542,0.0000939350575208664,-0.002122354693710804
1772795253141272600,5.5852724609375,0.00024321343516930938,0.00034613627940416336,-0.00019609020091593266
1772795253151316700,5.595316650390625,-0.0013682856224477291,-0.001130448654294014,-0.0019013072596862912
1772795253161361400,5.605361328125,0.001395809231325984,-0.0007381653413176537,-0.001686390140093863
1772795253171405600,5.615405517578125,-0.0013341655721887946,0.0007365276105701923,0.00015466543845832348
1772795253181450500,5.625450439453125,-0.001183430664241314,-0.0018954742699861526,-0.0007920883363112807
1772795253191495700,5.63549560546875,-0.0000033415271900594234,-0.004174384288489819,0.00008048932068049908
1772795253201539600,5.64553955078125,-0.0006347770104184747,0.002040634863078594,-0.002657240256667137
1772795253211584500,5.65558447265625,0.0010318856220692396,-0.0023084012791514397,-0.0023980336263775826
1772795253221628700,5.665628662109375,-0.0008309955010190606,-0.0007611047476530075,0.0012470349902287126
1772795253231673600,5.675673583984375,0.0017137655522674322,-0.0017652320675551891,0.00024260045029222965
1772795253241717500,5.685717529296875,0.002678362652659416,-0.00232822448015213,-0.0001568737206980586
1772795253251762700,5.6957626953125,0.00037124677328392863,-0.0008779242634773254,-0.001373650273308158
1772795253261806600,5.705806640625,-0.0006170522538013756,0.00042942119762301445,-0.00249297684058547
1772795253271851500,5.7158515625,0.0008428663131780922,-0.0008032545447349548,-0.0005823905230499804
1772795253281896700,5.725896728515625,0.002734509762376547,0.00163300521671772,-0.000017267768271267414
1772795253291940400,5.7359404296875,-0.00041458389023318887,-0.0009538540616631508,-0.000058361911214888096
1772795253301985500,5.745985595703125,-0.0012928943615406752,-0.0013067228719592094,0.0026625897735357285
1772795253312029700,5.75602978515625,-0.001364361960440874,-0.0021381345577538013,0.000748861231841147
1772795253322074600,5.76607470703125,0.0001784073538146913,-0.0004776539281010628,-0.0008495681104250252
1772795253332118500,5.776118408203125,-0.001475794706493616,-0.0005415212363004684,-0.0008129958296194673
1772795253342163500,5.78616357421875,-0.0002960143028758466,0.00028805341571569443,0.0009260484948754311
1772795253352207600,5.79620751953125,-0.0013794711558148265,-0.0005032955668866634,-0.000980561482720077
1772795253362252500,5.80625244140625,-0.0007797272992320359,0.0016573276370763779,-0.0003669691504910588
1772795253372297500,5.81629736328125,0.0005509452312253416,-0.002060767263174057,0.0009863972663879395
1772795253382341600,5.826341552734375,0.001296097645536065,0.001459931954741478,0.0008292705751955509
1772795253392386600,5.836386474609375,0.00003806926542893052,0.001052443403750658,-0.0021805684082210064
1772795253402430500,5.846430419921875,-0.0018477151170372963,0.00010861875489354134,0.0004999032244086266
1772795253412475600,5.8564755859375,-0.00030047964537516236,-0.001673328224569559,0.0013690001796931028
1772795253422519600,5.86651953125,0.0012343000853434205,0.0023557678796350956,-0.0013759199064224958
1772795253432564500,5.876564453125,0.0016386322677135468,0.0013883518986403942,-0.0012563839554786682
1772795253442609700,5.886609619140625,0.0009296987554989755,0.0016544018872082233,-0.0017232360551133752
1772795253452653300,5.8966533203125,-0.0023208351340144873,-0.00399281270802021,-0.0018372858176007867
1772795253462698500,5.906698486328125,-0.0009525030036456883,0.00012177089229226112,-0.002374445553869009
1772795253472742400,5.916742431640625,-0.0014007195131853223,-0.0019923183135688305,0.0020335742738097906
1772795253482787300,5.926787353515625,-0.0014105731388553977,-0.0007121367380023003,-0.0004945645923726261
1772795253492831500,5.93683154296875,-0.0012210182612761855,-0.00020674243569374084,0.00009842065628618002
1772795253502876400,5.94687646484375,-0.0007376545108854771,0.0009602545760571957,-0.00040544936200603843
1772795253512921300,5.95692138671875,-0.00009406148456037045,0.002335988450795412,-0.0009030294604599476
1772795253522965500,5.966965576171875,0.0015954480040818453,0.001404948066920042,0.0008056545630097389
1772795253533010400,5.977010498046875,0.0008827678393572569,-0.001501103863120079,0.000950636574998498
1772795253543054300,5.987054443359375,0.0007317665731534362,-0.0002739191986620426,0.0009762030094861984
1772795253553099500,5.997099609375,-0.000259438413195312,-0.0010300562717020512,-0.0005339125054888427
1772795253563143400,6.007143310546875,0.00033204967621713877,-0.000014592893421649933,0.0015465489123016596
1772795253573188400,6.017188232421875,-0.0024414483923465014,-0.0010907649993896484,-0.0004806495853699744
1772795253583233300,6.0272333984375,-0.00007096875924617052,-0.00022310717031359673,-0.0024599109310656786
1772795253593277400,6.03727734375,-0.000864660192746669,0.0006578182801604271,0.001709182746708393
1772795253603322600,6.047322509765625,0.0025907913222908974,-0.0026559531688690186,-0.0006732810870744288
1772795253613366300,6.0573662109375,0.0006411196663975716,-0.0013757199048995972,0.0034721523988991976
1772795253623411500,6.067411376953125,0.0006555006839334965,-0.0007157889194786549,-0.0002908941241912544
1772795253633455600,6.07745556640625,0.0021472088992595673,-0.003061511553823948,0.0008185697952285409
1772795253643500300,6.087500244140625,0.00007207400631159544,0.0019598789513111115,-0.0017766808159649372
1772795253653545500,6.09754541015625,-0.000047741865273565054,-0.0012460057623684406,0.0000633349409326911
1772795253663589400,6.10758935546875,0.00017303426284343004,-0.00006063282489776611,-0.00009778619278222322
1772795253673634600,6.117634521484375,-0.002564242808148265,0.0017963359132409096,-0.0017793963197618723
1772795253683678500,6.127678466796875,0.00272159930318594,0.0011300137266516685,0.0021186722442507744
1772795253693723400,6.137723388671875,-0.001239505596458912,0.0008850740268826485,-0.00038989161839708686
1772795253703767600,6.147767578125,0.0006878240965306759,-0.0016515864990651608,-0.000009325915016233921
1772795253713812200,6.157812255859375,0.0014784266240894794,0.000387352891266346,-0.000506998912896961
1772795253723857400,6.167857421875,-0.00015941751189529896,-0.0017136149108409882,-0.000664924387820065
1772795253733901600,6.177901611328125,0.0024575707502663136,0.0001264498569071293,0.00004874297883361578
1772795253743946200,6.1879462890625,-0.00105753552634269,-0.0009883497841656208,-0.0013387638609856367
1772795253753990400,6.197990478515625,-0.0009629695559851825,-0.00157539127394557,0.0013474177103489637
1772795253764035600,6.20803564453125,0.0012908636126667261,-0.002620948012918234,0.0003937396686524153
1772795253774079200,6.218079345703125,0.0013318664859980345,0.0014511276967823505,-0.0013545118272304535
1772795253784124400,6.22812451171875,0.000527325551956892,-0.0005347910337150097,0.0031536873430013657
1772795253794169300,6.23816943359375,-0.0008322829962708056,0.0019112671725451946,-0.0013779646251350641
1772795253804213500,6.248213623046875,0.0006279281806200743,0.002098753582686186,0.002210112288594246
1772795253814258400,6.258258544921875,-0.00033996143611148,-0.0006390633061528206,-0.00019976531621068716
1772795253824302300,6.26830224609375,0.0031381268054246902,-0.0019743721932172775,0.0008588411146774888
1772795253834347500,6.278347412109375,0.0022323252633213997,-0.0020168903283774853,0.00010384258348494768
1772795253844391400,6.288391357421875,0.0004528010031208396,0.000596736092120409,0.0006644380046054721
1772795253854436400,6.298436279296875,0.0006427994230762124,0.0012502730824053288,0.00033206597436219454
1772795253864481500,6.3084814453125,0.0008481291588395834,-0.000865341629832983,0.0009906657505780458
1772795253874525200,6.318525146484375,0.0011985331075266004,0.0006246324628591537,0.0017272557597607374
1772795253884570400,6.3285703125,-0.000509884674102068,0.000526894349604845,-0.0009060779120773077
1772795253894614500,6.338614501953125,-0.00033831415930762887,-0.0009756791405379772,-0.00039530894719064236
1772795253904659500,6.348659423828125,-0.0023772302083671093,-0.0007168198935687542,-0.00025203090626746416
1772795253914703400,6.358703369140625,0.0018865573219954967,-0.0016861837357282639,-0.0011350427521392703
1772795253924748500,6.36874853515625,-0.0005326581303961575,0.0016784542240202427,-0.0015861822757869959
1772795253934793500,6.37879345703125,0.002039418090134859,0.000006591435521841049,0.0015330275055021048
1772795253944837400,6.38883740234375,0.0022428836673498154,0.0010654646903276443,-0.002035874407738447
1772795253954882300,6.39888232421875,-0.0021896404214203358,-0.0015033301897346973,0.0009058825671672821
1772795253964926500,6.408926513671875,0.00019868230447173119,-0.002071116119623184,0.0005538125988095999
1772795253974971600,6.4189716796875,0.0002955308882519603,-0.0010450072586536407,0.002457116963341832
1772795253985015300,6.429015380859375,0.001315255300141871,0.0013550333678722382,-0.0013458769535645843
1772795253995060500,6.439060546875,-0.0014263654593378305,-0.00036697182804346085,-0.0007588064763695002
1772795254005105400,6.44910546875,0.00024237134493887424,-0.00036004791036248207,0.000012444914318621159
1772795254015149300,6.4591494140625,0.00043872371315956116,-0.0027399053797125816,0.0008730827830731869
1772795254025194500,6.469194580078125,-0.0015810176264494658,0.0005059554241597652,0.002403068821877241
1772795254035238400,6.47923828125,-0.0007939708302728832,-0.0008472944609820843,0.00040930823888629675
1772795254045283300,6.489283447265625,0.001181828323751688,-0.00006618909537792206,-0.0010849914979189634
1772795254055327500,6.499327392578125,0.00041708536446094513,-0.001884381752461195,0.0008321779314428568
1772795254065372400,6.509372314453125,-0.0017387433908879757,0.00047437986359000206,0.0012074173428118229
1772795254075417600,6.51941748046875,-0.0006681457161903381,-0.0012023067101836205,-0.0005979450070299208
1772795254085461500,6.52946142578125,0.00149753678124398,-0.0009996402077376842,0.0005221805768087506
1772795254095506400,6.53950634765625,0.0013967423001304269,-0.0008145235478878021,0.0005998759297654033
1772795254105550600,6.549550537109375,0.000923498417250812,-0.0006635221652686596,0.000002262648195028305
1772795254115595300,6.55959521484375,0.0012805107980966568,-0.0016872328706085682,0.0008973836665973067
1772795254125640400,6.569640380859375,-0.00034135422902181745,-0.004138939082622528,0.0010960554936900735
1772795254135684600,6.5796845703125,-0.0009673789609223604,-0.00016244081780314445,0.000970382010564208
1772795254145729500,6.5897294921875,-0.00020491593750193715,0.0006610085256397724,0.00026837270706892014
1772795254155773400,6.5997734375,-0.00004544144030660391,-0.0022059506736695766,0.0022970850113779306
1772795254165818400,6.609818359375,-0.00036981451557949185,0.001374935731291771,0.001167904818430543
1772795254175862300,6.6198623046875,-0.0011565899476408958,-0.0020425166003406048,0.0038634296506643295
1772795254185907500,6.629907470703125,0.0010967105627059937,0.00013754703104496002,0.0024788519367575645
1772795254195952400,6.639952392578125,0.00041882041841745377,0.0006692563183605671,0.0010960957733914256
1772795254205996500,6.64999658203125,0.001623634365387261,-0.0007960149087011814,0.0011743925279006362
1772795254216041200,6.660041259765625,-0.0024989601224660873,-0.0007505067624151707,0.002093970775604248
1772795254226085400,6.67008544921875,-0.000004376983270049095,-0.001969169359654188,0.0005970080383121967
1772795254236130600,6.680130615234375,-0.0008716436568647623,-0.0007380559109151363,0.00007033906877040863
1772795254246175500,6.690175537109375,-0.0007038644980639219,0.00005929451435804367,-0.0009834738448262215
1772795254256219400,6.700219482421875,-0.0001499820500612259,0.001383177936077118,0.00015927234198898077
1772795254266264300,6.710264404296875,-0.0011356179602444172,-0.0003918190486729145,-0.0036407923325896263
1772795254276308500,6.72030859375,0.0012272803578525782,-0.00029182108119130135,-0.0004542895476333797
1772795254286353400,6.730353515625,0.0004445774247869849,0.000010713934898376465,-0.0017650973750278354
1772795254296397600,6.7403974609375,0.00045475049410015345,-0.003032296197488904,-0.00000810530036687851
1772795254306442500,6.7504423828125,0.00003184052184224129,-0.0001299832947552204,-0.0016254429938271642
1772795254316487400,6.7604873046875,0.001193419098854065,0.0015101847238838673,0.00042866310104727745
1772795254326531300,6.77053125,0.00052416673861444,0.000007895287126302719,-0.00108720816206187
1772795254336576500,6.780576416015625,0.000041679712012410164,-0.00022038165479898453,-0.0009773834608495235
1772795254346620400,6.790620361328125,-0.0006834990344941616,-0.0010030847042798996,-0.0028724889270961285
1772795254356665300,6.800665283203125,0.000035970588214695454,0.00032384414225816727,-0.00030168122611939907
1772795254366709500,6.81070947265625,-0.00017734855646267533,0.0032093790359795094,-0.004129176493734121
1772795254376754400,6.82075439453125,0.0022711860947310925,-0.0020490731112658978,-0.0015906316693872213
1772795254386799400,6.83079931640625,-0.00044124352280050516,-0.0013457322493195534,-0.001583973760716617
1772795254396843500,6.840843505859375,0.001091319601982832,-0.0007735597901046276,0.0005768925184383988
1772795254406888400,6.850888427734375,-0.0024829087778925896,0.0007524318061769009,0.0013108598068356514
1772795254416932400,6.860932373046875,0.0004596633370965719,-0.0017073401249945164,-0.00022693141363561153
1772795254426977300,6.870977294921875,0.001343033742159605,-0.0010631214827299118,0.0017592540243640542
1772795254437022500,6.8810224609375,-0.00029394414741545916,-0.0014332802966237068,-0.0007299205171875656
1772795254447066400,6.89106640625,-0.00223751924932003,-0.0009001153521239758,-0.002819170244038105
1772795254457111600,6.901111572265625,0.00117314828094095,0.000436149537563324,-0.0006211165455169976
1772795254467155700,6.91115576171875,0.001269022119231522,0.0005930098704993725,0.0014502902049571276
1772795254477200600,6.92120068359375,-0.0025168671272695065,-0.00009244726970791817,-0.002297505270689726
1772795254487244500,6.93124462890625,-0.002405813429504633,-0.0007012458518147469,0.0023329330142587423
1772795254497289700,6.941289794921875,0.0012870997888967395,0.0005467417649924755,0.0022500823251903057
1772795254507334700,6.951334716796875,0.0005872211186215281,0.002126262988895178,-0.003107132390141487
1772795254517378600,6.961378662109375,-0.0002591352676972747,0.0011055395007133484,0.001082380535081029
1772795254527423700,6.971423828125,0.0012703181710094213,0.0010048719123005867,0.0021367259323596954
1772795254537467600,6.981467529296875,0.000483748153783381,-0.00006706127896904945,0.00006071222014725208
1772795254547512800,6.991512939453125,0.0009884173050522804,-0.0006409725174307823,0.0018532860558480024
1772795254557557500,7.0015576171875,0.0010234944056719542,-0.002392943948507309,0.001299214200116694
1772795254567601700,7.0116015625,-0.0015648318221792579,0.0003844667226076126,0.001145283575169742
1772795254577646800,7.021646728515625,0.0008629848016425967,-0.00032498501241207123,-0.0017741546034812927
1772795254587690500,7.0316904296875,0.0012749758316203952,0.000656922347843647,-0.000013006152585148811
1772795254597735700,7.041735595703125,0.0011814885074272752,-0.0022370959632098675,-0.0004370029200799763
1772795254607780600,7.051780517578125,0.00008373346645385027,-0.0007158983498811722,0.0011361264623701572
1772795254617824500,7.061824462890625,0.00149815552867949,-0.00018147332593798637,0.001023697666823864
1772795254627869700,7.07186962890625,0.0006571293342858553,0.0008052275516092777,-0.0007534297183156013
1772795254637913600,7.08191357421875,0.0005469962488859892,-0.0006291340105235577,-0.0000939610181376338
1772795254647958800,7.091958740234375,-0.0003110742545686662,0.0007024463266134262,-0.000007141963578760624
1772795254658002700,7.102002685546875,-0.0015413861256092787,0.0009629749692976475,-0.0034831685479730368
1772795254668047600,7.112047607421875,0.00039286783430725336,0.0008332789875566959,0.0005089098121970892
1772795254678092800,7.1220927734375,0.00017629575449973345,-0.0014612744562327862,0.001701121567748487
1772795254688136700,7.13213671875,0.0005968088516965508,-0.0012024152092635632,-0.0018118541920557618
1772795254698181600,7.142181640625,0.001163325970992446,-0.0013515152968466282,-0.0023209862411022186
1772795254708225800,7.152225830078125,0.0004029935225844383,-0.0018540536984801292,0.00038798118475824594
1772795254718270700,7.162270751953125,-0.0006021567387506366,-0.0018137558363378048,0.0032511926256120205
1772795254728315600,7.172315673828125,0.0006705679697915912,-0.0017836620099842548,-0.00009906396735459566
1772795254738359800,7.18235986328125,0.000041141174733638763,-0.00009826431050896645,0.00015407707542181015
1772795254748404700,7.19240478515625,0.0010550066363066435,0.0007848399691283703,-0.0023977640084922314
1772795254758448600,7.20244873046875,-0.0014068521559238434,-0.0016515422612428665,-0.000026390887796878815
1772795254768493600,7.21249365234375,0.001700524240732193,-0.001518650446087122,0.001047129393555224
1772795254778538800,7.222538818359375,-0.0009144955547526479,-0.0019489428959786892,0.0022615403868258
1772795254788582700,7.232582763671875,0.0002442457480356097,0.002488149795681238,0.00015311595052480698
1772795254798627600,7.242627685546875,-0.0017615342512726784,0.00021634763106703758,-0.001350129721686244
1772795254808671700,7.252671630859375,0.0011410450097173452,-0.0014087134040892124,0.0007577622309327126
1772795254818716700,7.262716552734375,0.00027197960298508406,-0.0014619426801800728,0.0005111548816785216
1772795254828760600,7.272760498046875,0.00014095206279307604,-0.0007396936416625977,0.0030880295671522617
1772795254838805800,7.2828056640625,0.0025550532154738903,-0.0010219425894320011,0.0005313332658261061
1772795254848850700,7.2928505859375,0.0006468984065577388,0.001696879044175148,-0.0011866718996316195
1772795254858894600,7.30289453125,-0.0006127489032223821,-0.000157930888235569,0.0021838005632162094
1772795254868939500,7.312939453125,0.0005571777001023293,0.0016194628551602364,-0.0015488859498873353
1772795254878983700,7.322983642578125,0.0008717856835573912,0.0008526099845767021,0.0021590725518763065
1772795254889028900,7.33302880859375,-0.0003340936382301152,-0.00008322484791278839,0.0004956619814038277
1772795254899073500,7.343073486328125,0.0020683216862380505,-0.0014523337595164776,0.0006173449801281095
1772795254909117700,7.35311767578125,0.0009194340091198683,-0.00043394090607762337,-0.0000018399441614747047
1772795254919162600,7.36316259765625,0.00004129169974476099,-0.0000856136903166771,0.0007792512187734246
1772795254929206500,7.37320654296875,-0.0004055867902934551,-0.0006057294085621834,0.00042505073361098766
1772795254939251700,7.383251708984375,-0.001116024563089013,-0.0017501977272331715,-0.000232205493375659
1772795254949296600,7.393296630859375,-0.001529347151517868,0.0019657104276120663,0.0005813902243971825
1772795254959340500,7.403340576171875,-0.0015414642402902246,-0.0004206928424537182,0.001405773451551795
1772795254969385700,7.4133857421875,-0.0016178969526663423,0.0020376713946461678,-0.001373501494526863
1772795254979429600,7.4234296875,0.000040371320210397243,-0.0016417242586612701,-0.001572528388351202
1772795254989474800,7.433474853515625,-0.0034576908219605684,0.0010683084838092327,-0.000409259635489434
1772795254999519500,7.44351953125,-0.0004356088466010988,0.000814520288258791,0.0008821598021313548
1772795255009563600,7.453563720703125,-0.0002164306933991611,0.00031331321224570274,0.0009705767733976245
1772795255019608800,7.46360888671875,-0.0005202125175856054,0.0008891010656952858,0.0006140075856819749
1772795255029652500,7.473652587890625,0.00027953472454100847,-0.001001476775854826,0.000703756115399301
1772795255039697700,7.48369775390625,0.00006262154784053564,-0.0009997598826885223,0.0018661655485630035
1772795255049742600,7.49374267578125,0.0004719493445008993,0.0002734973095357418,-0.001970650628209114
1772795255059786500,7.503786376953125,0.0005234418204054236,0.0020550834015011787,0.0008971499046310782
1772795255069831700,7.513831787109375,0.00015938770957291126,-0.0016025020740926266,0.0011565418681129813
1772795255079875600,7.52387548828125,0.00007566227577626705,0.0017782971262931824,-0.00018913461826741695
1772795255089920800,7.533920654296875,-0.0014945375733077526,-0.0019597159698605537,0.0015962484758347273
1772795255099965700,7.543965576171875,-0.0004927263944409788,-0.0006386367604136467,-0.00031275057699531317
1772795255110009600,7.554009521484375,-0.0006354718352667987,-0.0031175073236227036,-0.0008331322460435331
1772795255120054800,7.5640546875,0.0009111381368711591,-0.00041639572009444237,-0.00017415243200957775
1772795255130098700,7.5740986328125,-0.00013974530156701803,0.0009516701102256775,0.0031689137686043978
1772795255140143600,7.5841435546875,-0.00007652048952877522,0.0009363149292767048,-0.0026111300103366375
1772795255150188800,7.594188720703125,0.0023394993040710688,-0.00022828532382845879,-0.0005197496502660215
1772795255160232700,7.604232666015625,-0.001472986419685185,-0.0001104394905269146,0.001438856590539217
1772795255170277600,7.614277587890625,-0.0009893564274534583,-0.0007733004167675972,0.0021962595637887716
1772795255180321800,7.62432177734375,0.0010037459433078766,0.000860738568007946,-0.0015755530912429094
1772795255190366700,7.63436669921875,-0.00015632703434675932,-0.00009027635678648949,0.002236495725810528
1772795255200410600,7.64441064453125,0.00023144972510635853,0.0007841326296329498,-0.002963992301374674
1772795255210455600,7.65445556640625,-0.14036375284194946,-0.2908240258693695,-0.19528576731681824
1772795255220500700,7.664500732421875,-0.18964943289756775,-0.3650352358818054,-0.1679585874080658
1772795255230544600,7.674544677734375,-0.21533562242984772,-0.17005378007888794,-0.1146618202328682
1772795255240589600,7.684589599609375,-0.29950129985809326,-0.2346547544002533,-0.1058676689863205
1772795255250633700,7.6946337890625,-0.395301878452301,-0.10429702699184418,-0.03348109498620033
1772795255260678700,7.7046787109375,-0.44394275546073914,0.13984414935112,0.054380759596824646
1772795255270723600,7.7147236328125,-0.42292001843452454,0.2810172438621521,0.1563263088464737
1772795255280767700,7.724767822265625,-0.3390229046344757,0.46006467938423157,0.2626189887523651
1772795255290812700,7.734812744140625,-0.22722846269607544,0.39859864115715027,0.2846430540084839
1772795255300856600,7.744856689453125,-0.11374049633741379,-0.27186524868011475,-0.1278611272573471
1772795255310901800,7.75490185546875,-0.026218898594379425,0.042172305285930634,-0.08100520074367523
1772795255320946700,7.76494677734375,0.0051115830428898335,0.14380134642124176,0.09645704925060272
1772795255330990800,7.774990966796875,0.006842903792858124,-0.09746479243040085,-0.024612654000520706
1772795255341035500,7.785035400390625,0.00033149507362395525,0.03356507793068886,-0.024005677551031113
1772795255351079700,7.79507958984375,0.0020958390086889267,-0.00513411546126008,0.005288827698677778
1772795255361124900,7.805124755859375,0.000036416808143258095,0.004117173608392477,0.002330588409677148
1772795255371169500,7.81516943359375,0.0004579952219501138,-0.006951723247766495,-0.003936895169317722
1772795255381213700,7.825213623046875,-0.0009420980932191014,0.0011081108823418617,-0.002392270602285862
1772795255391258600,7.835258544921875,0.00099535146728158,-0.0001385151408612728,0.0019329693168401718
1772795255401302500,7.845302490234375,-0.00014974805526435375,0.0000682612881064415,0.004040716681629419
1772795255411347700,7.85534765625,-0.0009907743660733104,-0.0004787519574165344,0.0012491914676502347
1772795255421392600,7.865392578125,0.0006217994960024953,-0.0006177118048071861,0.00009304122067987919
1772795255431436800,7.875436767578125,0.0019264821894466877,0.0014579561538994312,0.0013260848354548216
1772795255441481500,7.8854814453125,-0.00009647500701248646,0.0011107311584055424,0.0012370944023132324
1772795255451524900,7.89552490234375,0.0006119258468970656,0.0010438854806125164,0.001732975011691451
1772795255461570000,7.905570068359375,0.003101961687207222,0.0021198526956140995,0.0016447837697342038
1772795255471615000,7.915614990234375,-0.001589729217812419,-0.0006042947061359882,-0.000034339260309934616
1772795255481659100,7.9256591796875,-0.00028320238925516605,-0.00025750044733285904,0.000570424017496407
1772795255491704000,7.9357041015625,0.0011623614700511098,-0.002982180565595627,0.001787222339771688
1772795255501748000,7.945748046875,0.0036311117000877857,-0.0020114583894610405,-0.0004418435273692012
1772795255511793200,7.955793212890625,0.0008305317023769021,0.0006804647855460644,-0.000028787297196686268
1772795255521838000,7.965838134765625,0.00037389888893812895,-0.0008998410776257515,0.0019112625159323215
1772795255531882000,7.975882080078125,-0.0007382371695712209,-0.00016347737982869148,-0.0029226411134004593
1772795255541927200,7.98592724609375,-0.0009448585333302617,-0.0019175359047949314,0.0024279968347400427
1772795255551970000,7.995969970703125,0.0011680934112519026,-0.0016267187893390656,0.0012338354717940092
1772795255562014200,8.00601416015625,-0.0012190747074782848,-0.0004696696996688843,-0.0011957174865528941
1772795255572059100,8.01605908203125,-0.00004568591248244047,-0.0008531650528311729,0.00010070938151329756
1772795255582104300,8.026104248046876,-0.0022948449477553368,-0.0001697605475783348,-0.0009602706413716078
1772795255592148000,8.03614794921875,-0.0011305108200758696,-0.0007426068186759949,0.0008104651933535933
1772795255602193200,8.046193115234376,0.0006562636699527502,-0.0008399635553359985,-0.0017990448977798223
1772795255612237000,8.056237060546875,0.0008567997720092535,-0.0010982905514538288,0.002263341099023819
1772795255622282000,8.066281982421875,-0.0011329574044793844,0.00026193028315901756,-0.0007575724739581347
1772795255632327200,8.0763271484375,-0.0019862342160195112,-0.00029733357951045036,0.0019894782453775406
1772795255642371000,8.08637109375,-0.002137145958840847,0.0005710297264158726,0.0001924264943227172
1772795255652416000,8.096416015625,-0.00019064143998548388,0.0012413477525115013,-0.0001343433978036046
1772795255662460200,8.106460205078125,-0.0011849863221868873,-0.0003945687785744667,0.002027240116149187
1772795255672505000,8.116505126953125,0.000016365665942430496,0.0010299566201865673,-0.0027411498595029116
1772795255682550300,8.12655029296875,0.0010545928962528706,-0.0003848937340080738,0.0025196413043886423
1772795255692594200,8.13659423828125,0.00027295516338199377,0.000940294936299324,-0.00008679437451064587
1772795255702639000,8.14663916015625,-0.0007216360536403954,-0.0015984824858605862,-0.00010230438783764839
1772795255712683300,8.156683349609375,-0.0012745083076879382,-0.00036543887108564377,0.0013581732055172324
1772795255722728000,8.16672802734375,-0.00013728870544582605,0.0008827913552522659,0.002375734969973564
1772795255732773000,8.176773193359375,-0.0007042756769806147,0.0016593695618212223,-0.0008826426928862929
1772795255742817300,8.1868173828125,0.00029747618827968836,-0.001742357388138771,0.000003793626092374325
1772795255752862000,8.196862060546875,0.0005424870178103447,0.0021559777669608593,0.0020349863916635513
1772795255762906000,8.206906005859375,-0.00018878711853176355,0.0021264739334583282,0.0011861647944897413
1772795255772951000,8.216950927734375,-0.001222626306116581,-0.0006072609685361385,-0.0024919267743825912
1772795255782996200,8.226996337890625,0.0020780260674655437,-0.0019542439840734005,0.0012047979980707169
1772795255793040100,8.2370400390625,-0.0005502476706169546,-0.0008969688788056374,-0.0014293346321210265
1772795255803085000,8.2470849609375,-0.0007096716435626149,-0.0009459573775529861,0.0005519937258213758
1772795255813129200,8.257129150390625,-0.00002364127431064844,0.0006122579798102379,-0.0001944903051480651
1772795255823174000,8.267173828125,-0.0009799327235668898,0.00029827794060111046,-0.0007971955346874893
1772795255833219000,8.277218994140625,-0.002369570080190897,-0.0007763076573610306,0.001890200306661427
1772795255843263200,8.28726318359375,-0.0004414516151882708,-0.0009425962343811989,-0.000871118507348001
1772795255853308200,8.29730810546875,-0.0010976544581353664,0.0026212455704808235,-0.0007534067844972014
1772795255863353000,8.30735302734375,-0.0007635172223672271,-0.0010160058736801147,0.0007405772339552641
1772795255873397000,8.31739697265625,-0.0019536837935447693,0.0012117289006710052,-0.001719917170703411
1772795255883442200,8.327442138671875,0.000593413133174181,-0.00030759768560528755,-0.0017721469048410654
1772795255893486000,8.337486083984375,-0.00010326982010155916,-0.00005752686411142349,0.003055098932236433
1772795255903531000,8.347531005859375,0.00003299431409686804,-0.0012974003329873085,0.00020679878070950508
1772795255913576200,8.357576171875,0.0007437920430675149,0.0010198159143328667,0.0011218608124181628
1772795255923622100,8.3676220703125,-0.0010028061224147677,0.0017209961079061031,0.00010234781075268984
1772795255933667000,8.3776669921875,0.0001703163143247366,0.0017060828395187855,-0.001396479201503098
1772795255943711000,8.3877109375,-0.00248583871871233,0.0019116210751235485,-0.0015438238624483347
1772795255953756200,8.397756103515626,0.00005108851473778486,-0.00022316910326480865,-0.0005930753541179001
1772795255963800000,8.407800048828125,0.0007822407642379403,0.0005808970890939236,0.00016601220704615116
1772795255973845000,8.417844970703126,0.00036066235043108463,0.00008475035429000854,-0.00003319222014397383
1772795255983890200,8.42789013671875,0.003639473579823971,-0.000516942236572504,0.001257194671779871
1772795255993934000,8.43793408203125,-0.002321745967492461,0.0007038512267172337,0.00020125135779380798
1772795256003979300,8.447979248046876,-0.0002916919765993953,-0.00023442506790161133,0.0007117604836821556
1772795256014023200,8.458023193359375,-0.0008658695151098073,0.002565888687968254,-0.001860853168182075
1772795256024068000,8.468068115234376,-0.0004513880121521652,0.00010839756578207016,-0.0015012455405667424
1772795256034113300,8.47811328125,0.0023795522283762693,-0.001198682002723217,-0.0015859340783208609
1772795256044157000,8.488156982421875,-0.0025113755837082863,-0.0007620090618729591,-0.0003282054094597697
1772795256054202000,8.4982021484375,-0.001038115005940199,0.000004448462277650833,0.0034582768566906452
1772795256064246300,8.508246337890625,0.0017258598236367106,0.00008175056427717209,-0.0013801007298752666
1772795256074291000,8.518291015625,-0.0005447514122352004,-0.00032784370705485344,0.0004609425086528063
1772795256084336000,8.528336181640626,-0.004554893355816603,-0.0018335627391934395,0.005504185333848
1772795256094380000,8.538380126953125,-0.0013633612543344498,0.000008812174201011658,-0.0021236403845250607
1772795256104425200,8.54842529296875,0.00041488721035420895,0.0004233759827911854,0.0005145425675436854
1772795256114470000,8.558469970703126,-0.0015140403993427753,-0.0023527033627033234,0.0015734153566882014
1772795256124514000,8.56851416015625,-0.0023263711482286453,0.00003321235999464989,-0.0018778154626488686
1772795256134559200,8.578559326171876,-0.0019074559677392244,0.0015586712397634983,-0.002893544966354966
1772795256144603100,8.58860302734375,0.002018351573497057,0.0012885183095932007,-0.001436170656234026
1772795256154648000,8.59864794921875,-0.0006988715031184256,0.0024379389360547066,0.00009754381608217955
1772795256164693000,8.60869287109375,-0.00004477775655686855,-0.001231711357831955,-0.002842736430466175
