time,seconds_elapsed,z,y,x
1772649232602583600,0.06858349609375,-0.9638993924468755,-0.34281105545051394,0.49851362180504943
1772649232612627700,0.078627685546875,-0.8659650879174471,-0.29408706429190934,0.4586270536292344
1772649232622672600,0.088672607421875,-0.7325111417174339,-0.2051703250851482,0.49844603646155444
1772649232632716500,0.098716552734375,-0.6413987921625376,-0.1537386093378067,0.476131182670407
1772649232642760700,0.1087607421875,-0.5061936183810234,-0.0752878806963563,0.4632095225812867
1772649232652804600,0.1188046875,-0.37334582138061523,-0.0029641835678368804,0.44342382194157687
1772649232662848800,0.128848876953125,-0.20076281084120273,0.134323787837103,0.39754933846257623
1772649232672892700,0.138892578125,-0.014572715231776237,0.28154169016927477,0.3487591501999646
1772649232682936600,0.1489365234375,0.17647066562771796,0.5168390771664678,0.21926022523604333
1772649232692980500,0.15898046875,0.3419026353687048,0.7376952663570642,0.012599004006013274
1772649232703024600,0.169024658203125,0.4691711709320545,0.8083620631240308,-0.44389308342114087
1772649232713068800,0.17906884765625,0.45950376339852805,0.27864932972863315,-0.4448491785695776
1772649232723113500,0.189113525390625,0.4871487261712551,-0.06577347176745534,-0.3479374950861558
1772649232733157600,0.19915771484375,0.5496931528896093,-0.2520526338998228,-0.4551968599848449
1772649232743201800,0.209201904296875,0.4563876772046089,-0.28866708506979044,-0.5784590825162828
1772649232753245700,0.21924560546875,0.24473697712421416,-0.28585933417268095,-0.6906748642459511
1772649232763289600,0.22928955078125,0.10315642309188842,-0.14404920916818081,-0.7095502451077104
1772649232773333500,0.23933349609375,-0.009540566283464431,0.14496559336073694,-0.9143344204194843
1772649232783377700,0.249377685546875,-0.08191548214256764,0.2051272165957838,-0.948549555362761
1772649232793421800,0.259421875,0.017327566897869108,0.21098193397335707,-1.008188250702247
1772649232803465700,0.2694658203125,0.2379857492983341,0.13712649723291395,-0.9869988207444548
1772649232813510700,0.2795107421875,0.44316988371312616,0.06340900765843689,-0.857001371673867
1772649232823554800,0.289554931640625,0.620554741576314,-0.01999152541011572,-0.696231037068367
1772649232833598700,0.2995986328125,0.7172457680463791,-0.09928469622507691,-0.5680103153467178
1772649232843642600,0.309642578125,0.7297036830812692,-0.15270985081195831,-0.6166157216269522
1772649232853686500,0.3196865234375,0.6805588361620902,-0.30191826937422156,-0.7798238778386265
1772649232863730700,0.329730712890625,0.588498976624012,-0.5394171119384468,-0.7413149181589483
1772649232873774600,0.339774658203125,0.5424626171141863,-0.5238400419697166,-0.5280939730871469
1772649232883818800,0.34981884765625,0.4883838209241628,-0.40607101002708074,-0.44538346810936924
1772649232893862700,0.359862548828125,0.3775993871718645,-0.24784641438163815,-0.4443238395212218
1772649232903906600,0.369906494140625,0.3653343643605709,-0.07527735930234193,-0.36094270527288314
1772649232913951700,0.37995166015625,0.36518472675681113,-0.015653642336279153,-0.5121395211733878
1772649232923995600,0.38999560546875,0.3413368181794882,-0.2712524244103581,-0.3944341290514916
1772649232934039600,0.40003955078125,0.3600046937704086,-0.5813257239937782,-0.07310773734541144
1772649232944083700,0.410083740234375,0.4912035545200109,-0.6404546431802213,0.10478602445456199
1772649232954127600,0.420127685546875,0.46728199618458743,-0.47426842100583017,0.2792431309033185
1772649232964171800,0.430171875,-0.044243046352267265,-0.25162352176755665,0.1699124396232888
1772649232974215700,0.440215576171875,-0.6575193213582039,-0.06819288093410432,0.43831440650597214
1772649232984259600,0.450259521484375,-0.9470505489766597,0.33112017926536497,0.6853969238430261
1772649232994303700,0.4603037109375,-0.8807306953728199,0.5985989303559065,0.45343708377070724
1772649233004348700,0.4703486328125,-0.4064250841617584,0.6608862405080348,0.48902109591439363
1772649233014392600,0.480392578125,0.06242869138419628,0.9099594932708889,1.0331707162674515
1772649233024436700,0.490436767578125,0.3589496317595243,0.6052583882451057,0.8795384899135679
1772649233034480600,0.500480712890625,0.48227439813315864,0.15687369249314068,0.7383641785945743
1772649233044524500,0.510524658203125,0.41627544704675673,-0.2891994383808225,0.8269106231842189
1772649233054568400,0.520568359375,0.006153846454620361,-0.7509946006521582,0.7410804518159478
1772649233064612600,0.530612548828125,-0.42427346006333827,-1.1184459571667016,0.7700796787418425
1772649233074656800,0.54065673828125,-0.5510293699294329,-1.377668701891601,0.827886920870468
1772649233084700700,0.55070068359375,-0.40091479630768295,-1.227083442018181,0.43406719739027316
1772649233094744600,0.56074462890625,-0.14477028998434543,-0.6293992884196341,-0.17427142028408124
1772649233104789800,0.570789794921875,0.018386136040091514,-0.5778662311896682,-0.304241488157399
1772649233114833700,0.580833740234375,0.038403672674298284,-0.47505723329596217,-0.2556025997326709
1772649233124877600,0.590877685546875,0.07082067215442657,-0.2643877262726426,-0.2951582554536871
1772649233134921500,0.60092138671875,0.17771745081841944,-0.23451062053367494,-0.06786022404679097
1772649233144965600,0.610965576171875,0.19699673630595205,-0.1302274584341794,0.2510685912985354
1772649233155009800,0.621009765625,0.1651490611463785,-0.24157471370100975,0.541505645182915
1772649233165053700,0.6310537109375,0.25609482196271416,-0.2540331401925534,0.15059558033803477
1772649233175097600,0.64109765625,0.05810615200996399,-0.23738880631849169,-0.22926026225741952
1772649233185141500,0.6511416015625,0.03374737130105495,-0.39813502939604223,-0.13217155997296795
1772649233195186700,0.661186767578125,-0.08778642000257969,-0.2915403754837811,0.24963892382159827
1772649233205230600,0.671230712890625,-0.16907295659184454,-0.34250936909019947,0.2414458083580248
1772649233215274500,0.6812744140625,-0.4571154069572687,-0.38519459154121577,-0.021576493046618996
1772649233225318700,0.691318603515625,-0.6953191829204559,-0.3827376999083906,-0.09985266883876175
1772649233235362600,0.701362548828125,-0.6408072560101747,-0.46154111444503065,-0.024787545781303197
1772649233245406000,0.711406005859375,-0.4417033182919025,-0.679667367215082,-0.05752254343573004
1772649233255449900,0.721449951171875,-0.3278016293019056,-0.7436098241630941,-0.2544969217794016
1772649233265493800,0.73149365234375,-0.28615678274929524,-0.7103246635463089,-0.46740971421748395
1772649233275538000,0.741537841796875,-0.22111235590875147,-0.7156807106867432,-0.26443713663863017
1772649233285581800,0.751581787109375,-0.17445932580530643,-0.6655405691199004,-0.17189634344950316
1772649233295626800,0.761626708984375,-0.33685295076370236,-0.6291453867238015,-0.07017399001503363
1772649233305671000,0.7716708984375,-0.5911474453061819,-0.5806846496112644,0.08240602387217805
1772649233315714800,0.78171484375,-0.8055038972139358,-0.48499710109531874,0.2253661408957094
1772649233325759000,0.791759033203125,-0.7354711605668067,-0.43874965611808,0.20296097847260533
1772649233335803000,0.801802978515625,-0.5575666627436876,-0.31006789275594054,0.13733096116329543
1772649233345846800,0.8118466796875,-0.44072716673612594,-0.23482100165709852,0.09332406165446154
1772649233355891000,0.821890869140625,-0.4495686448395252,-0.20853943619206547,0.17078027196638285
1772649233365934800,0.831934814453125,-0.53493982039392,-0.11333536034412682,0.29058891997784375
1772649233375979000,0.84197900390625,-0.5626408972680569,-0.03648417585380375,0.22030695780999957
1772649233386024000,0.85202392578125,-0.4161445141434669,-0.08936338699571787,0.13070123169207945
1772649233396067800,0.86206787109375,-0.0874760388791561,-0.24670813106670975,0.1076304449670948
1772649233406112000,0.872112060546875,0.14334464109539985,-0.24045155488997697,-0.00769388810400851
1772649233416156000,0.882156005859375,0.16649930671155452,-0.39608774147741493,0.0433429100416135
1772649233426199800,0.89219970703125,0.12264262932837008,-0.4996421509109437,0.06984115046462976
1772649233436243700,0.90224365234375,-0.00021685762107372282,-0.6172326114162803,0.052620112681156024
1772649233446288000,0.912287841796875,0.11279694261848926,-0.4162954669214785,-0.6070195526987314
1772649233456332000,0.92233203125,0.5614426273941994,-0.4314404290832579,-0.41269309504795815
1772649233466376000,0.9323759765625,0.7629080335468054,-0.7956877288594841,0.6404019631449133
1772649233476420900,0.9424208984375,0.7634224128097296,-0.802635063779354,0.6640181818582117
1772649233486465000,0.952465087890625,0.517815082591772,-0.37116906186342236,0.1010173104376532
1772649233496509000,0.962509033203125,0.12017711599767207,-0.20741262411922215,-0.12221600141413509
1772649233506552800,0.972552734375,0.03866320039331913,-0.19218729019761085,-0.12086708928951993
1772649233516596700,0.9825966796875,0.19275486095249653,-0.2726717166237533,0.11724917278699576
1772649233526641000,0.992640869140625,0.41018005278110503,-0.1699265046812594,0.35684469536952673
1772649233536685000,1.00268505859375,0.5611567961901426,0.03539060846343636,0.43296190302949394
1772649233546729000,1.01272900390625,0.7217991935670376,0.09419694463200867,0.46566740059480066
1772649233556772900,1.02277294921875,0.8575807059317827,0.08048632612228393,0.44606385158896444
1772649233566816800,1.032816650390625,0.8534118958145379,0.028834757079184054,0.41163251661174
1772649233576862000,1.042862060546875,-0.13110884437859058,-0.03152012370564043,0.14375362375508993
1772649233586905900,1.05290576171875,-0.12918459831774234,-0.06959741396978497,0.18547767302375287
1772649233596949800,1.06294970703125,-0.5316290884107351,-0.007370528768002986,0.006537804270908236
1772649233606994000,1.072993896484375,-0.6720937901556492,0.03967639602385461,-0.08340393060203641
1772649233617037800,1.083037841796875,-0.5855109007239342,0.017133870956674218,-0.09077771077305077
1772649233627082000,1.09308203125,-0.32283377776145933,-0.007017331416159868,-0.03530300324521959
1772649233637126000,1.1031259765625,0.00367079746723175,-0.04640205101706087,0.06406447589248418
1772649233647169800,1.113169677734375,0.2546633278548717,-0.09935089332908391,0.12428265162035822
1772649233657214000,1.1232138671875,0.3195850050985813,-0.1146287611555308,0.19544176194891333
1772649233667259000,1.1332587890625,0.3750450265139341,-0.10692030567005276,0.17978921559117733
1772649233677302800,1.143302734375,0.3344412134468555,-0.1261707303892821,0.10255991850346326
1772649233687347000,1.153346923828125,0.13513503115475178,-0.09730893917270005,-0.007578764691203832
1772649233697390800,1.163390869140625,-0.09813713362514973,-0.05362995644398033,-0.11742774422429501
1772649233707435000,1.17343505859375,-0.12386369555592536,-0.004368643538281322,-0.10922317578494548
1772649233717479000,1.18347900390625,-0.2915735471010208,-0.1476182267613709,0.08940722613744437
1772649233727522800,1.193522705078125,-0.3757786014854908,0.058791796186566346,0.01940671125948429
1772649233737567000,1.20356689453125,-0.5166477923780679,0.2523266285356134,0.10859927173294126
1772649233747611000,1.21361083984375,-0.48796121159791944,0.48460722499489783,0.10960530697032808
1772649233757654800,1.22365478515625,-0.264933377456665,0.5411030191987752,0.2556928900983184
1772649233767700000,1.233699951171875,-0.25701485941708085,0.1886030019700527,0.5953301378183067
1772649233777744000,1.243743896484375,0.10014964249134063,0.30369580044075845,0.4500261793486774
1772649233787788000,1.2537880859375,0.20305296760499475,0.3526475359406322,0.3407240931086242
1772649233797831700,1.263831787109375,0.03175473617911339,0.30581703037843105,0.2328827270708978
1772649233807875800,1.273875732421875,-0.13140052080154419,0.25556882532723246,0.09068016868270933
1772649233817920000,1.283919921875,-0.275263632813096,0.22142872838154434,-0.025318419521301982
1772649233827964000,1.2939638671875,-0.30855799964964387,0.20859270074926314,-0.12933986194469033
1772649233838007800,1.3040078125,-0.1627700570553541,0.181135880959779,-0.2697109671220183
1772649233848051700,1.3140517578125,0.09385667982697486,0.1712795997906476,-0.36776641381308434
1772649233858097000,1.324096923828125,0.4060241021454334,0.32584749955944714,-0.45072965144291516
1772649233868141000,1.33414111328125,0.3932055371046066,0.05734627355337143,-0.2738558849070221
1772649233878184700,1.344184814453125,0.3139075439840555,0.0141363696411252,-0.18684275083187968
1772649233888228900,1.354228759765625,0.34613106671869753,0.17301292638927698,-0.4333929879231378
1772649233898273000,1.36427294921875,0.2834410940498113,0.14957827478796243,-0.4297662122607231
1772649233908317000,1.37431689453125,0.23302198941111563,0.08693086261916905,-0.3059789429418742
1772649233918360800,1.38436083984375,0.21316344273090362,0.08134568289797753,-0.21715130679067224
1772649233928404700,1.39440478515625,0.27232231866419315,0.07240279024671763,-0.20636435717530546
1772649233938449000,1.404448974609375,0.32033786929249763,0.0033285964334383604,-0.23558478910382835
1772649233948493000,1.4144931640625,0.37273791861534117,-0.12496500786133109,-0.19730788461435586
1772649233958537700,1.424537841796875,0.3574830663383007,-0.2737598771866411,-0.16043438064940274
1772649233968582000,1.434581787109375,0.24128537536561487,-0.34534550583157686,-0.13048961650170385
1772649233978625800,1.444625732421875,0.06025485447645187,-0.3294366466252133,-0.13207337856180965
1772649233988670000,1.454669921875,-0.1328688397884369,-0.2547352971125394,-0.12674363490641116
1772649233998713900,1.4647138671875,-0.2538420745998621,-0.23171463313959537,-0.15024378949198872
1772649234008757800,1.4747578125,-0.3000800941616297,-0.25012473457716405,-0.14117555342800914
1772649234018802000,1.484802001953125,-0.27565643152296543,-0.25095537671502677,-0.07817446898333728
1772649234028845800,1.494845703125,-0.19523849446177483,-0.27851649712920185,-0.014610782219842076
1772649234038890000,1.504889892578125,-0.044481531283259386,-0.24642387076523153,0.06104330144040286
1772649234048934000,1.514933837890625,0.08556640586555003,-0.24241310075391082,0.14245580249689518
1772649234058978800,1.524978759765625,0.093205522441864,-0.2363001708315685,0.1471335485169664
1772649234069023000,1.53502294921875,-0.028626959547400473,-0.2535156739233993,0.15597853375170379
1772649234079067000,1.54506689453125,-0.2746890477955341,-0.26613186652623116,0.21755323865506795
1772649234089110800,1.55511083984375,-0.49484454137086864,-0.25358373419092967,0.26633359964340925
1772649234099155000,1.565155029296875,-0.635377632176876,-0.278834002113156,0.1949527728555724
1772649234109198800,1.57519873046875,-0.595837648949027,-0.3537999208461493,0.0784514227611944
1772649234119243000,1.585242919921875,-0.47860652327537534,-0.38265897211637345,0.058280924054980275
1772649234129287000,1.595286865234375,-0.38496144037246705,-0.45105698370113967,0.13259594113118947
1772649234139330800,1.605330810546875,-0.29927929917275903,-0.3888647314213216,0.2175048329360783
1772649234149375000,1.615375,-0.13876198948025703,-0.22088183508850634,0.33151681390013543
1772649234159419600,1.625419677734375,-0.05455050535500049,-0.061692157270573075,0.44335561554357406
1772649234169463800,1.6354638671875,-0.036706805628538126,0.05274553829226643,0.5017378810811788
1772649234179508000,1.645508056640625,-0.027171500042080878,0.1030307143529877,0.5302559734266251
1772649234189551900,1.6555517578125,0.037304771521687506,0.06890946823824197,0.5020066150199621
1772649234199596000,1.665595947265625,0.0975888520926237,-0.00862926012482494,0.4324033192986622
1772649234209639700,1.6756396484375,0.1415431446313858,-0.03150342829916626,0.3736558006452396
1772649234219683800,1.685683837890625,0.19149463175833223,-0.03605528291724622,0.3103911698935553
1772649234229728000,1.69572802734375,0.23166589862704276,-0.06591631430424749,0.211964442204684
1772649234239772000,1.70577197265625,0.2924631894171238,-0.09439867774918675,0.14774148781485855
1772649234249817300,1.7158173828125,0.2600099495798349,-0.08264328496046364,0.14439170246291905
1772649234259861200,1.725861328125,0.12334990081489085,-0.06292948051318525,0.15467618244886397
1772649234269905400,1.735905517578125,0.06731821699142455,0.004138049652799964,0.11878003561608493
1772649234279949300,1.74594921875,0.08871230267584324,0.0561059546360746,0.07738821397647261
1772649234289993200,1.7559931640625,0.09932254401743411,-0.02534304250590503,0.036779322875477374
1772649234300037400,1.766037353515625,0.1482616392314434,-0.09285016966555266,0.021609847326949237
1772649234310081300,1.776081298828125,0.16479074922800063,-0.15768533766958862,0.0060228039534762495
1772649234320125400,1.78612548828125,0.1966203042089939,-0.18863288565166295,-0.019055888527818022
1772649234330169000,1.796169189453125,0.20754443380534648,-0.20941424626521765,-0.01719466123320162
1772649234340213200,1.806213134765625,0.172059863448143,-0.21540756839588282,-0.040400509047321974
1772649234350258400,1.816258544921875,0.16208967357575893,-0.20276110851895063,-0.05141896586362272
1772649234360302300,1.82630224609375,0.1467670167595148,-0.17770371455401182,0.02382617166955024
1772649234370346200,1.83634619140625,0.10037819055020808,-0.14596848679296673,0.0703098365554586
1772649234380390400,1.846390380859375,-0.000848141261935234,-0.08539106756495311,0.10093556870464235
1772649234390434300,1.856434326171875,-0.10192951164543627,-0.010152378038875759,0.10119480416271835
1772649234400478500,1.866478515625,-0.1755494591295719,0.0073977455684915185,0.04811378683838993
1772649234410522000,1.876522216796875,-0.17923077799081802,0.0010868636549450457,0.009517185407876967
1772649234420566300,1.886566162109375,-0.154187522149086,-0.0007111074114218354,-0.045642318690940736
1772649234430610400,1.8966103515625,-0.1318921037107706,-0.020272388178110123,-0.05392181553002447
1772649234440654300,1.906654296875,-0.10977262636125087,-0.030995405711792406,-0.058409336207620795
1772649234450699300,1.91669921875,-0.05761632266640663,-0.03782234738869592,-0.10331376907806843
1772649234460743200,1.9267431640625,-0.02909808419048786,0.012676380091160535,-0.07069854361210018
1772649234470787300,1.936787353515625,-0.0424245987534523,0.10510306364763528,-0.02360840073302388
1772649234480831500,1.94683154296875,-0.01006429789662361,0.12889184418255462,-0.018337145799212157
1772649234490875100,1.956875244140625,0.021608605217933653,0.106073022924643,-0.0497574623921886
1772649234500919300,1.966919189453125,0.028683073648810384,0.05323028960190713,-0.09757979200333357
1772649234510963200,1.976963134765625,0.05111585473120212,-0.010977174957841633,-0.1482137084364891
1772649234521007400,1.98700732421875,-0.0005903671085834502,-0.01909954500645399,-0.17295535098314285
1772649234531051500,1.997051513671875,-0.05183306308984756,-0.02593677061535418,-0.2059222759636119
1772649234541096200,2.00709619140625,-0.04662731114029884,-0.024023794867191462,-0.21216113382056354
1772649234551140400,2.017140380859375,0.004806523498892784,-0.014610161165334283,-0.2000888936350122
1772649234561184500,2.0271845703125,-0.004843932899832725,-0.012656022289721295,-0.13300404700804502
1772649234571228200,2.037228271484375,-0.0545937599748373,0.031307869194447994,-0.056703518670424814
1772649234581272300,2.047272216796875,-0.12836802123785018,0.060824598922114816,-0.02582801301125437
1772649234591316200,2.057316162109375,-0.205887314248085,0.05303188095297664,0.013017594744265079
1772649234601360400,2.0673603515625,-0.20059914471209048,0.07203238603174686,0.03546078762281686
1772649234611404500,2.077404541015625,-0.17820435755252836,0.09465707295704633,0.08742551426831632
1772649234621448200,2.0874482421875,-0.13921499394476414,0.12648470997558905,0.15493169157989323
1772649234631492400,2.097492431640625,-0.12136311091184615,0.16116790082203222,0.19815777944196014
1772649234641537300,2.107537353515625,-0.07805237697362899,0.16387684925347565,0.19479506154321133
1772649234651581200,2.117581298828125,-0.06483107635080813,0.12008768414855002,0.19685615879148244
1772649234661625300,2.127625244140625,-0.050448330733180044,0.04356302819885313,0.22665391568392515
1772649234671669200,2.137669189453125,0.009136077135801314,0.008471749741863458,0.22441278569363057
1772649234681713400,2.14771337890625,0.09629588967263698,-0.019986703104525803,0.20550496386699377
1772649234691757300,2.15775732421875,0.10394494312107562,-0.05387762932842597,0.1498433919975534
1772649234701801200,2.16780126953125,0.0784703101247549,-0.022930793732404708,0.12765585438050328
1772649234711845400,2.177845458984375,0.04378302762508392,0.061184098150581116,0.08004552355222404
1772649234721889300,2.18788916015625,0.03998305082023144,0.1303788678699173,0.07175671089552342
1772649234731933400,2.197933349609375,0.021408698731660843,0.1265558024504222,0.06831201380174606
1772649234741978400,2.207978271484375,-0.08255611813366413,0.1720992090778425,0.10259553780611604
1772649234752022300,2.218022216796875,-0.18268121070563792,0.20431500516375525,0.1616622054113075
1772649234762066400,2.22806640625,-0.2468131988763809,0.2601291189800948,0.13685849394649266
1772649234772110300,2.2381103515625,-0.28209026396274567,0.3180182672385126,0.13694734127372502
1772649234782154200,2.248154296875,-0.4245154521256685,0.14633157535116187,0.21402901005167513
1772649234792198400,2.258198486328125,-0.471378325587511,0.072056177899288,0.29028069427888836
1772649234802242300,2.2682421875,-0.42466216711997984,0.07541402782667428,0.2599453233784064
1772649234812286500,2.278286376953125,-0.4597422483295202,-0.012614028045209124,0.21954788307100534
1772649234822330000,2.288330078125,-0.4078676841855049,-0.012706738696806132,0.19279603321310132
1772649234832374300,2.298374267578125,-0.3613379882007837,-0.050323370912950485,0.24339962757322936
1772649234842419500,2.30841943359375,-0.20582886205911635,-0.057732204131036996,0.21513271524356678
1772649234852463400,2.31846337890625,-0.022957097217440603,-0.12956603538338093,0.16570706035532057
1772649234862507300,2.32850732421875,0.1388508368074894,-0.22823733068415894,0.15008962184358388
1772649234872551200,2.33855126953125,0.19288345576822757,-0.3064096807756461,0.21576288463957607
1772649234882595300,2.34859521484375,0.18342063089609145,-0.3127159230466932,0.2427755043255165
1772649234892639500,2.358639404296875,0.22779753276109693,-0.32056108358912166,0.23347996231168508
1772649234902683100,2.36868310546875,0.299288651522994,-0.2673488045679405,0.3048345404134132
1772649234912727300,2.378727294921875,0.3987129023492336,-0.2500247813340276,0.32787747101709247
1772649234922771200,2.388771240234375,0.5584370158374309,-0.2512298645411618,0.29552714356500653
1772649234932815400,2.3988154296875,0.6901642843753099,-0.27458343199659135,0.2836731127073988
1772649234942860300,2.4088603515625,0.7187310381680727,-0.28735229441048576,0.29416056791953743
1772649234952904200,2.418904296875,0.6298819573700427,-0.2964358741740696,0.25953701657215134
1772649234962948400,2.4289482421875,0.5341816955029964,-0.21204654926387592,0.2052865718759596
1772649234972992500,2.438992431640625,0.4973170689642429,-0.09417005662508308,0.23879030714686958
1772649234983036200,2.4490361328125,0.4839888008356094,-0.0554105927830562,0.2255619922613725
1772649234993080300,2.459080322265625,0.47952656072974204,-0.059485495805460954,0.18198796774446963
1772649235003124200,2.469124267578125,0.45535190441608425,-0.06488666072925553,0.15642602179087697
1772649235013168400,2.47916845703125,0.3235562468171119,-0.05756680270256474,0.11160353158283978
1772649235023212300,2.48921240234375,0.22293314159512517,-0.061428190838452426,0.05599292271565646
1772649235033256200,2.499256103515625,0.09772504569292068,-0.03522391012702137,-0.0016375380739569662
1772649235043301400,2.50930126953125,-0.07172492751777172,-0.0868495044786483,-0.09361874288525432
1772649235053345300,2.51934521484375,-0.12659575086832045,-0.16504295215709133,-0.23862196484263984
1772649235063389200,2.52938916015625,-0.05527180536687374,-0.25028447344982996,-0.41984216308500616
1772649235073433300,2.539433349609375,0.020997779843211172,-0.3164705263398587,-0.4806202011853456
1772649235083477200,2.549477294921875,0.08292904309928417,-0.35543347686473276,-0.4862750120766461
1772649235093521400,2.559521484375,0.08626374047994613,-0.39866058764010665,-0.45338875111695376
1772649235103565300,2.5695654296875,0.06965864263772964,-0.33811120719648896,-0.397973445626162
1772649235113609200,2.579609130859375,0.04217676147222519,-0.20173300758022814,-0.2426708749072626
1772649235123653400,2.5896533203125,0.026441432201862333,-0.05861599209508858,-0.13654354624580592
1772649235133697300,2.599697265625,0.014050152662396431,0.03125091484282166,-0.11691555691845715
1772649235143742200,2.6097421875,0.01991349173784256,0.030100804092781618,-0.1673390089387074
1772649235153786400,2.619786376953125,0.009722937113046646,-0.05610452986396849,-0.19415128374695778
1772649235163830300,2.629830322265625,-0.032525136029720306,-0.1475108665299136,-0.22813370591290294
1772649235173874400,2.63987451171875,-0.11990414427518845,-0.22208662603469564,-0.27272808645348995
1772649235183918300,2.64991845703125,-0.14590776958167553,-0.24983636435614898,-0.27861382002383467
1772649235193962200,2.659962158203125,-0.10020984824597835,-0.186993630544655,-0.2915954301392659
1772649235204006100,2.670006103515625,-0.019842180067300794,-0.1292257523120381,-0.24498627571016549
1772649235214050300,2.68005029296875,0.0489689058303833,-0.09262236139220185,-0.15136143187768755
1772649235224094500,2.690094482421875,0.112965284922719,-0.07365366709064691,-0.11959752601142971
1772649235234138400,2.700138427734375,-0.01563011533021927,-0.09408254273841157,-0.0742657711070031
1772649235244183300,2.710183349609375,-0.12476853544116019,-0.08336338852909393,-0.02518229898624122
1772649235254227700,2.720227783203125,-0.2290758821338415,-0.09500846194429323,-0.01863594608269632
1772649235264271600,2.730271728515625,-0.23330489800572393,-0.11827025946304201,-0.005510981973819435
1772649235274315500,2.7403154296875,-0.1867033058285713,-0.1449138997061178,-0.008741232599318027
1772649235284359400,2.750359375,-0.1552291401565075,-0.1717115249345079,0.005708879166096448
1772649235294403600,2.760403564453125,-0.0650941112011671,-0.17916344837564974,0.05885123475622386
1772649235304447700,2.77044775390625,0.02262742687165737,-0.09993915067897177,0.10158358428459614
1772649235314491400,2.780491455078125,0.10834873103797435,-0.05245634608734399,0.16799696139078588
1772649235324535600,2.79053564453125,0.15002747986018658,0.13985236939969473,0.09342453548740595
1772649235334579500,2.800579345703125,0.09073299484848976,0.09600629560891538,0.1090848998254165
1772649235344624600,2.810624755859375,0.035710195806622505,-0.0590417614927981,0.21968955656401812
1772649235354668500,2.82066845703125,0.0022118308305740355,-0.09798658270593733,0.25872882372811434
1772649235364712400,2.83071240234375,-0.05730301893353462,-0.15710381145458668,0.21798224118947981
1772649235374756600,2.840756591796875,-0.06493745933473109,-0.13337943792538717,0.1282790277801454
1772649235384800800,2.85080078125,-0.0732721569597721,-0.09550288526457734,0.11303586594089865
1772649235394844400,2.860844482421875,-0.18135960671305656,-0.13290162781318648,0.12122238726690411
1772649235404888600,2.870888671875,-0.13839198712408543,-0.12694404371618292,0.084506229288131
1772649235414932500,2.880932373046875,-0.017569558960199357,-0.11103752259737812,0.02845014167577028
1772649235424976600,2.8909765625,0.05778466497063636,-0.14406896418142132,0.002018354085087776
1772649235435020500,2.9010205078125,0.1349941613793373,-0.2245619301070459,-0.02089643836058676
1772649235445065500,2.9110654296875,0.20973171471655366,-0.3001396240628324,0.007109978135675192
1772649235455109600,2.921109619140625,0.20491233173608778,-0.24921720954449847,-0.010878902215138077
1772649235465153500,2.931153564453125,0.19463526787161825,-0.2556165369264781,0.0006024959377944469
1772649235475197400,2.941197509765625,0.18330431104004383,-0.30407584926690906,0.04341865129210055
1772649235485241600,2.95124169921875,0.2031207721441984,-0.3307869287230074,0.06763093620240689
1772649235495285500,2.961285400390625,0.21796704362034797,-0.30126060918308795,0.038194121576845645
1772649235505329700,2.97132958984375,0.030805472630262374,-0.2777154829446226,-0.005034779296815395
1772649235515373600,2.98137353515625,-0.16613748766183853,-0.2244484232625924,-0.04624101523645222
1772649235525417500,2.99141748046875,-0.1894189945280552,-0.09322637343364767,-0.07718954959921538
1772649235535461600,3.001461669921875,-0.11541969233751297,-0.21681787358522414,0.07216251521743834
1772649235545506600,3.011506591796875,-0.028235914403200148,-0.16271483800308778,-0.03155599873661995
1772649235555550500,3.021550537109375,0.004563362392783165,-0.3217494165908545,-0.16525317910797893
1772649235565594600,3.0315947265625,0.12404781995117664,-0.2898416087418794,-0.10269019381962716
1772649235575638500,3.041638427734375,0.1711222903370857,-0.09340072535355574,0.252847729800269
1772649235585682700,3.0516826171875,0.0072761284828186034,-0.2427407800720073,0.2872390980932861
1772649235595726600,3.0617265625,-0.10081541292369366,-0.25842498194333163,0.02134111338816583
1772649235605770500,3.0717705078125,0.11045125627517699,0.08899031589962542,-0.009359218367189169
1772649235615814400,3.081814453125,0.25118074643611904,-0.0077209679071791465,0.11344320463277399
1772649235625858600,3.091858642578125,0.2786240491569042,-0.39442996433302757,0.07253573244400321
1772649235635902700,3.10190283203125,0.4108557600855827,-0.3159530783370137,0.09895970205441117
1772649235645947400,3.111947509765625,0.46615328441560266,-0.17514489691667257,0.2073225346829742
1772649235655991600,3.121991455078125,0.35505203979909417,-0.03564043677235022,0.3032750177454203
1772649235666035700,3.13203564453125,0.2295774019151926,0.06735105981510132,0.37601124119758605
1772649235676079600,3.14207958984375,0.1359966164201498,0.13118547154506668,0.39457010345607996
1772649235686123500,3.15212353515625,0.08820669124126433,0.16334767428021876,0.3770431415285915
1772649235696167400,3.16216748046875,-0.016204115825891492,0.13990212682555428,0.33382162024378775
1772649235706211600,3.172211669921875,-0.11869359944164752,0.06617245818951632,0.24387743768543005
1772649235716255700,3.182255859375,-0.12827508225739,0.008753233564365654,0.08062441941872239
1772649235726299600,3.192299560546875,-0.11356441985964774,-0.012377783020364585,0.004301131260022521
1772649235736343600,3.202343505859375,-0.16596096205115318,-0.038501059501012784,-0.09510543777905404
1772649235746388700,3.212388671875,-0.2822106754720211,-0.048569293787237254,-0.17383702918849883
1772649235756432600,3.2224326171875,-0.36529286330640315,-0.01492954872076516,-0.22926811677031217
1772649235766476500,3.2324765625,-0.3408580947518349,-0.010393316363502526,-0.26675094827264545
1772649235776520400,3.2425205078125,-0.28300094906687734,-0.03188508912709076,-0.3178215756226331
1772649235786564600,3.252564697265625,-0.18796236597895621,-0.06986675526334438,-0.3732863462783396
1772649235796608500,3.2626083984375,-0.06964636767804622,-0.07491285510519519,-0.4131009086638689
1772649235806652700,3.272652587890625,0.023803484913706777,-0.12145535577256232,-0.40845286366231737
1772649235816696600,3.282696533203125,0.036972763088345524,-0.18318139704642816,-0.37328656547404826
1772649235826740500,3.292740478515625,0.046482934233546255,-0.18981444185273721,-0.35389395580515265
1772649235836784600,3.30278466796875,0.13119243100881575,-0.2104141622890718,-0.31502602661997076
1772649235846828500,3.31282861328125,0.21443653140664098,-0.21513863352769985,-0.23697964099571106
1772649235856873500,3.32287353515625,0.2561076814442873,-0.23236613758457822,-0.13823752721473573
1772649235866917600,3.332917724609375,0.31544717464148997,-0.2112223916657269,-0.05794497009888291
1772649235876961500,3.34296142578125,0.3401069841235876,-0.2045573808185756,0.017341449292749167
1772649235887005400,3.35300537109375,0.373594243183732,-0.21922515392266212,0.1279204966660589
1772649235897049600,3.363049560546875,0.36778935629725457,-0.22507192545579746,0.1694264462046325
1772649235907093500,3.373093505859375,0.165946349003911,-0.21904113912526516,0.2507340986471623
1772649235917137700,3.3831376953125,-0.06864800429046154,-0.13735660706120542,0.31549481317549943
1772649235927181600,3.393181640625,-0.21690555186867713,-0.04316632049884647,0.370532298329845
1772649235937225500,3.4032255859375,-0.28056816896200176,0.03933645087922923,0.42717765707224603
1772649235947269400,3.413269287109375,-0.27805998553335665,0.04395738411156926,0.4399048905678093
1772649235957314600,3.423314453125,-0.23018822728991506,-0.010211850857862737,0.3787294141151011
1772649235967358500,3.4333583984375,-0.19996143133044242,-0.06765289687246549,0.34613194350153204
1772649235977402400,3.44340234375,-0.15828794320523737,-0.105449886057619,0.2909940667126328
1772649235987446500,3.453446533203125,-0.04908873281776905,-0.12722655045199208,0.23808606786765157
1772649235997490700,3.46349072265625,0.08753156845867634,-0.16179516587490214,0.17139277784153817
1772649236007534600,3.47353466796875,0.18880232393443583,-0.17009665535008534,0.16634886539019644
1772649236017578500,3.48357861328125,0.20170564464926719,-0.20695119888624175,0.15770926653444767
1772649236027622400,3.493622314453125,0.15146598823070526,-0.31122703619580716,0.030220439283922314
1772649236037666600,3.50366650390625,0.05921031385958194,-0.34180933106206357,-0.15285262028351426
1772649236047710700,3.513710693359375,0.13118132509291172,-0.06965460121685173,0.09250504602231084
1772649236057755400,3.52375537109375,0.13150398117601872,-0.20814829971631987,0.29384229575060306
1772649236067799600,3.533799560546875,-0.018365093252062797,-0.2688552088092081,0.020700550462305546
1772649236077843700,3.54384375,0.023631050956249237,-0.27118067434839904,-0.14626374341249465
1772649236087887600,3.5538876953125,0.10633563764989376,-0.3358860054276883,-0.16798815702982245
1772649236097931500,3.563931640625,0.15833645852208136,-0.39973512153644114,-0.13584697881639002
1772649236107975400,3.573975341796875,0.11562661308646201,-0.44005913128145036,-0.13189473405927418
1772649236118019600,3.58401953125,0.028894670572876927,-0.38323753918930886,-0.1596558705575764
1772649236128063500,3.5940634765625,-0.07724982841908931,-0.3480776707418263,-0.13604140540994702
1772649236138107600,3.604107666015625,-0.20439736795127392,-0.33614947866946454,-0.06069960256926715
1772649236148151600,3.614151611328125,-0.22197569473981857,-0.28618465713690966,-0.011075447700545192
1772649236158196500,3.624196533203125,-0.191174313762784,-0.2800411859458312,0.031516470443829894
1772649236168240600,3.63424072265625,-0.1336135206758976,-0.4071740758981555,0.047634296225756406
1772649236178284500,3.644284423828125,-0.07063011801838874,-0.2666437250385061,0.11156506273597479
1772649236188328400,3.654328369140625,-0.049859132668375966,-0.2160284037079662,0.3306125950694084
1772649236198372600,3.66437255859375,-0.10251695614457129,-0.3886543400736525,0.28255357062555847
1772649236208416500,3.67441650390625,-0.04682721762657165,-0.3395575700799003,0.14507482588887213
1772649236218460700,3.684460693359375,0.11137363181710243,-0.20566828293623401,0.30097711606658994
1772649236228504600,3.694504638671875,0.07281096918880939,-0.3172927294429391,0.4227534839544445
1772649236238548500,3.704548583984375,0.038083939200639724,-0.2793276308489963,0.3592727262340486
1772649236248591600,3.714591552734375,0.05885317098498344,-0.23412152988454327,0.32173195399940013
1772649236258636800,3.72463671875,0.03399111692905426,-0.26116452644243837,0.2940921057932079
1772649236268680700,3.7346806640625,0.01726443853378296,-0.3052553413750604,0.23299619738273322
1772649236278724600,3.744724609375,-0.020773323437571524,-0.2383337772847153,0.14436857731565833
1772649236288768800,3.754768798828125,-0.002649637725949287,-0.10851239716708659,0.20597959564141927
1772649236298813000,3.76481298828125,0.03502104449868202,-0.07614789505917578,0.2769252824150026
1772649236308856800,3.77485693359375,-0.0003407762616872787,-0.040005335717275735,0.20558255914784967
1772649236318900700,3.784900634765625,0.014394436055421829,0.005008663041447289,0.1212999094825238
1772649236328944600,3.794944580078125,0.0708580815553665,-0.010147802328458055,0.10233224722743034
1772649236338988800,3.80498876953125,0.12948153543770313,-0.11410960525278932,0.06308715529292822
1772649236349033000,3.815032958984375,0.19176058921813963,-0.15235762157449498,0.012694061878323554
1772649236359077600,3.82507763671875,0.2526630939483642,-0.1975409444515593,-0.04923237907215953
1772649236369121800,3.835121826171875,0.25426234583854673,-0.1862555255284533,-0.016381956610828637
1772649236379165700,3.845165771484375,0.14880524458885191,-0.17566990717146544,-0.057508916769176716
1772649236389209900,3.8552099609375,0.16659516830146312,-0.21333297234522178,0.017589140443503855
1772649236399253800,3.865253662109375,0.21470424243211744,-0.06996478141087573,-0.06827602917291224
1772649236409297700,3.875297607421875,0.21192776345610617,-0.029465682243730404,-0.037142858958244325
1772649236419341800,3.885341796875,0.21129940242469308,-0.0657753851633286,0.1413980370722711
1772649236429385700,3.8953857421875,0.10495733503401279,-0.09553635827591642,0.1742274898108095
1772649236439429600,3.9054296875,-0.09213526286184787,-0.10545479056159965,0.09005728754401207
1772649236449473800,3.915473876953125,-0.14402034839987754,-0.10430793121457099,0.014633651638776063
1772649236459517700,3.925517578125,-0.12309855640232563,-0.12469378970451653,0.0023790771562606093
1772649236469563000,3.93556298828125,-0.13628303214609622,-0.15595314358212053,-0.01661145451776683
1772649236479606800,3.945606689453125,-0.21135493200421332,-0.17229624775359406,-0.002360299390554428
1772649236489650700,3.955650634765625,-0.2583364634096622,-0.18492118991846218,0.010001900184899567
1772649236499694800,3.96569482421875,-0.30120120714604853,-0.18674002110976726,0.0860710674520582
1772649236509738800,3.97573876953125,-0.2545107676416635,-0.054636133245262314,0.05515022481381893
1772649236519782700,3.98578271484375,-0.20012451293766498,-0.07202514800678472,0.07991385999657213
1772649236529826800,3.995826904296875,0.06493687481284141,0.14658618943304755,0.13722601208463311
1772649236539870700,4.00587060546875,0.23034604820013044,-0.010707711508340434,0.45518297758996484
1772649236549915000,4.015914794921875,-0.18979542662501334,-0.4933227020984515,0.35882848959788677
1772649236559958800,4.025958740234375,-0.18651216717064378,-0.031218147367669733,0.03483144021071494
1772649236570003700,4.036003662109375,-0.03672258771955967,0.13767635880117304,0.08516162445694207
1772649236580048000,4.0460478515625,-0.1562695891201496,-0.14500773373572154,0.21226649389117955
1772649236590091800,4.056091796875,-0.2208189259201288,-0.17339827244505285,0.16621603279076516
1772649236600135700,4.0661357421875,-0.1353998195707798,0.014524784436821937,0.09245631150975823
1772649236610179600,4.0761796875,0.20761223834455012,-0.0003794095053337514,0.160564436769858
1772649236620223700,4.0862236328125,-0.19218962828516958,-0.45676158855091775,0.3629929158009588
1772649236630268000,4.096267822265625,0.05465513477325439,-0.05129475039548706,0.03678885788880289
1772649236640311800,4.106311767578125,0.24167349790036677,0.08815941803343594,-0.06948445511460304
1772649236650355700,4.116355712890625,0.504237808138132,-0.014953905702242627,-0.047637291900441046
1772649236660399600,4.126399658203125,0.28676468551456924,-0.3750861987745389,0.2897272616472095
1772649236670443800,4.13644384765625,0.3847276316165924,-0.10728991530057974,0.1529102687548846
1772649236680488700,4.14648876953125,0.324878435331583,-0.057314727637637404,0.06267367912121116
1772649236690532600,4.15653271484375,0.22482290086448192,-0.10395022208439185,0.01248955228216946
1772649236700576800,4.16657666015625,0.14587503635585308,-0.11636957694087177,0.02900741023235023
1772649236710621000,4.176620849609375,0.05135375514030456,-0.10484759104922413,0.0441737805083394
1772649236720664800,4.186664794921875,-0.033845570978522296,-0.05657146695570554,0.027872341787815093
1772649236730708700,4.196708740234375,-0.0741921944141388,-0.0569278837445192,0.03834470902867615
1772649236740752600,4.206752685546875,-0.12604162411689757,-0.0689157518485561,0.05519289491176605
1772649236750796800,4.216796875,-0.1552981137394905,-0.06969613423706032,0.04258651131689548
1772649236760840700,4.2268408203125,-0.21326164240837095,-0.06362629910435061,0.02325776066444814
1772649236770884900,4.236884765625,-0.23267244532108305,-0.07870419194586574,0.008376490940153598
1772649236780929800,4.2469296875,-0.23092180226147174,-0.07177178060049191,0.02635674959309399
1772649236790973700,4.2569736328125,-0.16633973223567008,-0.06135721709462814,0.012318433498963713
1772649236801017900,4.267017822265625,-0.13110241463780403,-0.0747858905575471,-0.019659443911537528
1772649236811061800,4.277061767578125,-0.1472504163622856,-0.10407667974196373,-0.06061521222144365
1772649236821105700,4.287105712890625,-0.14744038597643375,-0.13066473560659214,-0.07845956953503191
1772649236831149800,4.29714990234375,-0.10943769531846045,-0.1487146071633324,-0.09081460871733725
1772649236841193700,4.30719384765625,-0.0628852029800415,-0.1364603706075344,-0.11776903194263577
1772649236851238000,4.31723779296875,0.022936638951301574,-0.11766161691225133,-0.11300262125842273
1772649236861281800,4.32728173828125,0.12703998750448225,-0.11370978314708918,-0.08142397229857742
1772649236871325700,4.33732568359375,0.12340835300385951,-0.0933135128609836,0.0002218260571360588
1772649236881371000,4.347370849609375,0.04546060544848442,-0.05003586834161542,0.03873706934712827
1772649236891414800,4.357414794921875,-0.03737374510467052,0.014344788227416574,0.03750241298563778
1772649236901458700,4.367458740234375,-0.040130350336432453,0.019033651579834984,0.0545674564898014
1772649236911502800,4.3775029296875,0.0010877952367067335,-0.01649360485833604,0.09690481535121798
1772649236921546800,4.387546630859375,0.06283201148808003,-0.0459455576875247,0.0620798048812896
1772649236931591000,4.3975908203125,0.1301011286407709,-0.10083652877695858,0.04745703996270895
1772649236941634600,4.407634521484375,0.193169871494174,-0.11415514316125772,0.04929302321821451
1772649236951678700,4.4176787109375,0.18143091838359832,-0.15742416598275302,-0.029905235854908823
1772649236961723000,4.427722900390625,0.09136953918635844,-0.1574196176717989,-0.06005918577387929
1772649236971766800,4.437766845703125,0.07394260356724262,-0.12246601238613948,-0.024912761329859492
1772649236981811700,4.447811767578125,0.04285188425481319,-0.12114714833991601,-0.003124269500374794
1772649236991855900,4.45785595703125,0.05561842684745788,-0.12494836725378408,-0.004067395569384098
1772649237001899800,4.467899658203125,0.08408756548464298,-0.1567592905995436,-0.011640607302635907
1772649237011944000,4.47794384765625,0.1355126322954893,-0.1962301723802462,-0.047296077247336504
1772649237021987600,4.487987548828125,0.1425800864636898,-0.25193072455320503,-0.11831694814898074
1772649237032031700,4.49803173828125,0.1216489421159029,-0.25677080326182766,-0.15468670384287833
1772649237042076000,4.508075927734375,0.06197276431024074,-0.2537084748154506,-0.15885960561335086
1772649237052119800,4.518119873046875,0.08918985705971717,-0.20500866825003175,-0.09346497709564865
1772649237062163700,4.528163818359375,0.06026128421723842,-0.1296736330768559,0.01680215478427708
1772649237072207600,4.53820751953125,0.04808160160183906,-0.048777447512047364,0.10529957260042429
1772649237082251800,4.548251708984375,-0.018661445850133896,0.028353750362899152,0.1430357212767005
1772649237092297000,4.558296875,-0.12975626072585583,0.07371973176391329,0.1726451159901917
1772649237102340600,4.568340576171875,-0.21788579507768152,0.07256823734096252,0.16169680180065332
1772649237112384800,4.578384765625,-0.2596446233987808,0.07681152833336964,0.22116678950972854
1772649237122428700,4.5884287109375,-0.20821137328147887,0.03854295784740243,0.22404658272974193
1772649237132472800,4.598472900390625,-0.19841653997600078,-0.0007106279208092018,0.00781827253550291
1772649237142516700,4.608516845703125,-0.1841945378780365,0.013634769944672007,0.0051303486257791514
1772649237152560600,4.618560546875,-0.16767770284116268,-0.07845376084875315,0.007196414310112595
1772649237162604800,4.628604736328125,-0.08914718696177006,-0.08408449674472213,-0.05334193328283727
1772649237172648700,4.638648681640625,-0.05043547125160694,-0.08016989885056391,-0.1116921231817454
1772649237182692900,4.64869287109375,0.004477437674999237,-0.09748732794690877,-0.1069752507276833
1772649237192737800,4.65873779296875,0.09483692303597926,-0.06405318274691235,-0.10258702570609748
1772649237202781700,4.66878173828125,0.1548275736182928,-0.05205737793159205,-0.08231354154944419
1772649237212825900,4.678825927734375,0.16881225982904433,-0.028098734422214326,-0.0855641408432275
1772649237222869800,4.688869873046875,0.16326573161780833,-0.017740668610250577,-0.0835064776610583
1772649237232913700,4.69891357421875,0.20916239039599893,-0.009691738257184624,-0.10252608929909765
1772649237242957800,4.708957763671875,0.235986684435606,-0.02962210806459188,-0.08114069837778806
1772649237253002200,4.719002197265625,0.2300128707230091,-0.05899501800793223,-0.07733648378923536
1772649237263046100,4.729046142578125,0.17538579300045967,-0.08060778794432989,-0.09892331556677818
1772649237273090000,4.739090087890625,0.10066869792938232,-0.09050283022127113,-0.08455050682127475
1772649237283134200,4.74913427734375,0.013631634989380836,-0.07720179715943522,-0.07257613751962781
1772649237293178000,4.75917822265625,-0.021999065840244292,-0.07644285941775887,-0.03158756291866302
1772649237303223000,4.76922314453125,-0.10140110385715961,-0.07625827836478129,0.009941548299789427
1772649237313267200,4.77926708984375,-0.12982874144017695,-0.06742673713350668,0.006747866825014353
1772649237323311000,4.78931103515625,-0.034712416940927505,-0.0409922552622389,0.037784371732175345
1772649237333355300,4.799355224609375,0.07688274867236614,-0.05570507308444939,0.08068374839052557
1772649237343399200,4.809399169921875,0.16069968052208422,-0.06503489182721824,0.14134250749275087
1772649237353443000,4.819443115234375,0.17277707180678845,-0.07102795822955668,0.12590499212518333
1772649237363487200,4.8294873046875,0.13801613954901695,-0.08578575683780945,0.08055822231471538
1772649237373531100,4.83953125,0.1007347489029169,-0.09945945913693867,0.07222323242872954
1772649237383575300,4.8495751953125,0.07039338665306567,-0.10379448353340849,0.07102467029392719
1772649237393619200,4.859619140625,0.07253682842254638,-0.12179967569820582,0.06954509926065802
1772649237403664100,4.8696640625,0.026903789016604424,-0.11311803693217225,0.08388809738978743
1772649237413708300,4.879708251953125,0.02804009957015514,-0.11753467519748956,0.09012684564888476
1772649237423752200,4.889752197265625,0.029574469530582428,-0.1410692161098588,0.08511953888088464
1772649237433796000,4.899796142578125,0.040078912410140034,-0.15596691637914628,0.07554740841537713
1772649237443840300,4.90984033203125,0.04427928670942783,-0.1500668985551223,0.12652604663297534
1772649237453884200,4.91988427734375,0.03831014917194843,-0.14138328702771105,0.14578648128956556
1772649237463928300,4.92992822265625,0.0864741683602333,-0.10450695178485475,0.19251169984638689
1772649237473972000,4.939971923828125,0.11872341005802153,-0.13620582959088495,0.2148578255586326
1772649237484016000,4.95001611328125,0.1290729546368122,-0.14261313934992068,0.2454556467875838
1772649237494060300,4.960060302734375,0.0945961000174284,-0.10184740458624437,0.3259038328565657
1772649237504105200,4.970105224609375,0.04772445872724056,-0.07380094834053888,0.31328005973547696
1772649237514149000,4.980149169921875,-0.004200374299287796,-0.036896610845904794,0.23516689248532055
1772649237524193300,4.990193359375,-0.040460605204105375,-0.04454978334703483,0.16731632218286394
1772649237534237200,5.0002373046875,-0.05667115077078342,-0.056073203143943096,0.09493380753919482
1772649237544280300,5.0102802734375,-0.11748714626133441,-0.12075171928154303,-0.05789513960778713
1772649237554325000,5.020324951171875,-0.17491876001060008,-0.1761279531372711,-0.15527560964673756
1772649237564369200,5.030369140625,-0.12890168972313404,-0.21483053569290786,-0.22332228704318402
1772649237574413300,5.040413330078125,-0.05222118562459945,-0.21822419671919197,-0.22688334052562711
1772649237584457200,5.050457275390625,0.007476619490981102,-0.1658307598002255,-0.16064809646531938
1772649237594501400,5.06050146484375,0.004316694155335426,-0.03983739527184516,-0.18269114757776259
1772649237604545000,5.070544921875,0.054960255199670786,0.007143442013859748,-0.13448475055247544
1772649237614589200,5.080589111328125,0.14809095883965492,-0.01585684589133598,-0.09909472661092877
1772649237624633000,5.090633056640625,0.153376205766201,-0.11673024521311744,-0.06388181280195712
1772649237634677200,5.10067724609375,0.07657879728972912,-0.1625458929106593,-0.009584989947080612
1772649237644721200,5.11072119140625,0.040675124737620354,-0.14305545802363193,-0.047343350455164905
1772649237654765000,5.12076513671875,0.06266366918385029,-0.120909741121158,-0.00953603623881936
1772649237664810200,5.130810302734375,0.09377543128430843,-0.11787133240648545,0.06386807653754949
1772649237674854400,5.1408544921875,0.15196867705583572,-0.12305532918195239,0.08514116619080304
1772649237684898000,5.15089794921875,0.12588497225046158,-0.1492587331105489,0.07610606521144508
1772649237694942200,5.160942138671875,0.05804828434288501,-0.1738406824503094,0.06163213417902588
1772649237704986000,5.170986083984375,0.011377134060859679,-0.17203125840816647,-0.0307509659640491
1772649237715030300,5.1810302734375,0.0135591542750597,-0.19093732666913418,-0.10452800370603799
1772649237725074200,5.19107421875,0.025626024165749547,-0.19713095714487133,-0.09670067108124494
1772649237735118000,5.2011181640625,-0.002779401585459709,-0.18191506690504028,-0.0945535760499537
1772649237745162200,5.211162353515625,-0.1388935069054365,-0.19680459300102665,-0.09259615837186574
1772649237755206100,5.2212060546875,-0.2487742698162794,-0.17088418899858368,-0.1126959664620459
1772649237765251000,5.2312509765625,-0.2574485746592283,-0.12294890053225681,-0.08451309742033482
1772649237775295200,5.241295166015625,-0.2106979294002056,-0.10016357968514784,-0.021202362504601478
1772649237785339100,5.251339111328125,-0.11688742680251597,-0.07820027927802875,0.03300166750028729
1772649237795383300,5.26138330078125,0.022684710016846656,-0.07001640656683594,0.02761646733060479
1772649237805427200,5.27142724609375,0.12131401107311247,-0.1038036349542439,0.0236423030026257
1772649237815471000,5.28147119140625,0.15582242987453937,-0.1428328739146702,0.055311260594427585
1772649237825515300,5.291515380859375,0.19278525609076022,-0.09048104764772578,0.07391235455945133
1772649237835559200,5.30155908203125,0.1727607051938772,-0.14897238131668417,0.2262276530958712
1772649237845603300,5.311603271484375,0.18479250377118586,-0.15904142845366148,0.16038535387590527
1772649237855647000,5.32164697265625,0.10578209542036056,-0.11990648236274719,-0.030811317849159237
1772649237865691100,5.331691162109375,-0.041969840723276135,-0.2516424273974262,0.04713482227101922
1772649237875736300,5.341736328125,-0.09037234484255313,-0.2549728504617698,0.11731631973907351
1772649237885781200,5.35178125,-0.19892682758569716,-0.08467336601596324,0.04813377018049359
1772649237895825200,5.3618251953125,-0.1611585302054882,0.006786390470806509,0.10069076363071798
1772649237905869300,5.371869384765625,-0.05067512522637844,-0.009257456759456545,0.1530589565105736
1772649237915914200,5.381914306640625,0.028412440013885498,-0.02934011278543621,0.13395415080711245
1772649237925958100,5.391958251953125,0.09639701195955276,-0.035995826081279665,0.12257818579003214
1772649237936002300,5.402002197265625,0.11065817702412604,-0.05814785399353131,0.06098433779478073
1772649237946046200,5.412046142578125,0.11639876650273799,-0.08379442775696516,0.0115298404045403
1772649237956090000,5.422090087890625,0.0990875662177801,-0.11211487863846123,-0.011552782888710499
1772649237966134000,5.432134033203125,0.107056937661767,-0.14715685632731765,-0.00215367090255022
1772649237976178200,5.44217822265625,0.06909457901418209,-0.19548708066167308,-0.0072808046579360955
1772649237986222300,5.452222412109375,0.03746493051946163,-0.21191888602990655,-0.034287323396652934
1772649237996266200,5.462266357421875,0.07087912434339523,-0.22912067112363874,-0.04700447388961911
1772649238006310100,5.47231005859375,0.16951193253099917,-0.1866378759095445,0.006457651706784963
1772649238016354000,5.48235400390625,0.22816636607348917,-0.1274668346144259,0.1021571829214692
1772649238026399200,5.492399169921875,0.2811789943367243,-0.047342108346149325,0.13419205121621489
1772649238036443100,5.502443115234375,0.3289262494176626,-0.0009324585445225238,0.16710794012919067
1772649238046487000,5.512487060546875,0.3114198188215494,0.0280401543690823,0.23577537977248428
1772649238056531200,5.52253125,0.26677929758429525,0.06929395577749237,0.23981661798730491
1772649238066575400,5.532575439453125,0.20131635307073592,0.07759955517221241,0.2112805515937507
1772649238076619300,5.542619384765625,0.11531681648492813,-0.0008709558819420635,0.17378493367508052
1772649238086663200,5.5526630859375,0.08781389253139495,-0.06669597517354413,0.06806669727116822
1772649238096707000,5.56270703125,0.060977323532104485,-0.059784935409761965,0.010959493170678614
1772649238106751200,5.572751220703125,-0.00289221431016922,-0.07356648199753836,0.015791589502245188
1772649238116795400,5.58279541015625,-0.16583002914786338,-0.08069342953432351,-0.023054712373018264
1772649238126840000,5.592840087890625,-0.30330490142703054,-0.04530088484212756,-0.07801087591946125
1772649238136884200,5.60288427734375,-0.37545828348994253,-0.05264753954419866,-0.06957388696372509
1772649238146928000,5.61292822265625,-0.354832259568572,-0.07261668872572481,-0.0622654636465013
1772649238156972300,5.62297216796875,-0.28341420604288575,-0.10624598660506307,-0.08278554297536611
1772649238167016200,5.63301611328125,-0.17963468261659143,-0.14622574948966502,-0.12438289712443946
1772649238177060000,5.64306005859375,-0.03308510800004005,-0.1538952977368608,-0.1493869899995625
1772649238187104300,5.653104248046875,0.09236848709583281,-0.15906322016036137,-0.1435663210220635
1772649238197148200,5.663148193359375,0.14181436278820037,-0.1658968473063782,-0.13966931358352302
1772649238207192000,5.673192138671875,0.13103227201104165,-0.17345780234625563,-0.12105813661590217
1772649238217236200,5.683236328125,0.10461538972854614,-0.18123585246922447,-0.11714432417303323
1772649238227281200,5.69328125,0.11912789920568466,-0.18995558562278747,-0.09881517901718616
1772649238237325300,5.7033251953125,0.1377957747966051,-0.25215076051205393,-0.08139218892082571
1772649238247369000,5.713368896484375,0.13592179761826992,-0.23292336960854007,0.023827888702601194
1772649238257413000,5.7234130859375,0.10014321275055407,-0.031338282599020745,-0.052437020332366226
1772649238267457000,5.73345703125,0.029249475359916684,0.045564011024031785,0.07830737464800476
1772649238277501200,5.743501220703125,0.014486205992102623,0.07189590017050504,0.2357080136246979
1772649238287545000,5.753545166015625,-0.014629998376965521,0.054088002409785986,0.2743640536248684
1772649238297589000,5.763589111328125,-0.07188508651554584,-0.006197009742911905,0.25306305305138227
1772649238307633200,5.773633056640625,-0.06698328594863415,-0.033380675146821887,0.18562617811635135
1772649238317677000,5.783677001953125,-0.07124854217767715,-0.06998982908716425,0.08237360117360949
1772649238327721200,5.79372119140625,-0.02739186479449272,-0.138883971892111,-0.04112403754889965
1772649238337766100,5.80376611328125,0.06363280647695065,-0.1616277916850522,-0.09803761877343058
1772649238347810000,5.81381005859375,0.10058335773348807,-0.19139617635253817,0.0016710019521415233
1772649238357854200,5.823854248046875,0.11266542519330977,-0.24081499964119865,-0.06120192606821656
1772649238367898000,5.833898193359375,0.11337328120172023,-0.2540227831953205,0.0037272038295865055
1772649238377942000,5.84394189453125,0.054040802267193794,-0.191318489740137,-0.127778092520684
1772649238387986000,5.85398583984375,0.020256606087088583,-0.1790396028002724,-0.12606968116760253
1772649238398030000,5.864030029296875,0.07389934894740581,-0.19310992146786302,-0.04792378069162369
1772649238408074200,5.87407421875,0.04890168581306934,-0.1252555700394325,0.01658098631426692
1772649238418118000,5.884117919921875,-0.0796685799986124,-0.02794098657723516,0.039322833345830435
1772649238428162000,5.894162109375,-0.21077917794287204,-0.026220446394942698,0.026540216401219365
1772649238438207200,5.904207275390625,-0.21012042177319526,0.023218305436894297,0.050404345460981125
1772649238448251100,5.914251220703125,-0.21383272029459474,0.01779412496369332,0.1454195476733148
1772649238458295000,5.924294921875,-0.23419161771237848,-0.03320738267283886,0.11060162453129888
1772649238468339000,5.9343388671875,-0.16873393389582633,-0.04023938193516806,0.07087590947300196
1772649238478383000,5.944383056640625,-0.08360767301321029,-0.08301507741492241,0.08847995522469282
1772649238488427300,5.95442724609375,0.006477671581506729,-0.11682937647234648,0.10982567172273992
1772649238498471000,5.964470947265625,0.03818447696566581,-0.11594514098372309,0.09239142958000301
1772649238508515000,5.97451513671875,0.09529518819749355,-0.11713212227858602,0.08218509286418557
1772649238518559000,5.98455908203125,0.16722586742043494,-0.09433547631986439,0.10821619069948792
1772649238528603100,5.99460302734375,0.17165771238803862,-0.1138422504203394,0.13574687944278122
1772649238538647300,6.004647216796875,0.15224983208477497,-0.09664674893692135,0.1369255678333342
1772649238548692000,6.01469189453125,0.12265431976616382,-0.10718271946590394,0.1296124683409929
1772649238558736100,6.024736083984375,0.10941606800854206,-0.07255191639382391,0.16356880621761083
1772649238568780000,6.034780029296875,0.12197393628656863,-0.1113377202535048,0.16429010622948406
1772649238578824000,6.044823974609375,0.15507015020251272,-0.08119655675087124,0.17432912355437874
1772649238588868000,6.0548681640625,0.1052794065952301,-0.09373488007821142,0.18315379665344952
1772649238598912000,6.064912109375,0.06598842969238758,-0.037903979523852466,0.139419430475682
1772649238608956200,6.0749560546875,0.04166705838441848,-0.02578881351202726,0.1370208449013531
1772649238619000000,6.085,0.06919803938865661,-0.06104501847345382,0.18697087072357535
1772649238629044000,6.0950439453125,0.04898702600896358,-0.03242357535138726,0.04745031796097755
1772649238639088000,6.105088134765625,0.06268412744998932,-0.06930654126442969,-0.008694763109087943
1772649238649133000,6.115133056640625,0.1184808334738016,-0.107482177336514,0.0366634048782289
1772649238659177000,6.125177001953125,0.09839198516905308,-0.16021850940901786,0.041674364908039566
1772649238669221000,6.13522119140625,0.05415770664513111,-0.14218034655638037,-0.03147884184718132
1772649238679265000,6.14526513671875,0.0009387421548366546,-0.15006572951134292,-0.055277066063880914
1772649238689309200,6.15530908203125,-0.06206570329070091,-0.1574779054639861,-0.07585413627699017
1772649238699353000,6.16535302734375,-0.1395873343884945,-0.1637279057694599,-0.08800240084081888
1772649238709397000,6.17539697265625,-0.14044307443499565,-0.14748038919325918,-0.11856909627914428
1772649238719441200,6.185441162109375,-0.0857160434693098,-0.15963303767126052,-0.08719692967683076
1772649238729485000,6.195485107421875,-0.010148469048738479,-0.18359416083209215,-0.060033320680260654
1772649238739529200,6.205529296875,0.07030687741339206,-0.14083262174185365,-0.05376709989234805
1772649238749574000,6.215573974609375,0.11616145061552524,-0.10914532477576284,-0.05223492188900709
1772649238759618000,6.2256181640625,0.1045949314624071,-0.08754402608145027,-0.05714432124048471
1772649238769662200,6.235662109375,0.1275613810300827,-0.029493184455297885,-0.04458426100537181
1772649238779706000,6.2457060546875,0.08636135563552379,-0.02313946804702282,0.056809828589111565
1772649238789750000,6.25575,0.05438800826966762,-0.10920567666087298,0.09022095367312431
1772649238799794000,6.2657939453125,0.11402151597738265,-0.14826876309197395,0.04359700353369116
1772649238809838000,6.275838134765625,0.16167583207786082,-0.209637898953259,0.06816957312375306
1772649238819882200,6.28588232421875,0.14455927758216858,-0.23325035480689257,0.04884659462496638
1772649238829926000,6.29592578125,0.11111527314186095,-0.1660265746332705,0.06923588718101382
1772649238839970000,6.305969970703125,0.0849321996152401,-0.09722162621542811,0.09463497072309256
1772649238850014000,6.316013916015625,0.08153554291427136,-0.02306063065715134,0.1677365934215486
1772649238860059100,6.32605908203125,0.0637047026693821,0.01340261200647801,0.2241612220853567
1772649238870103000,6.33610302734375,-0.045188802769780156,-0.01981278957603499,0.19524141707122325
1772649238880147000,6.34614697265625,-0.17457213853001594,-0.05377460734536871,0.12005071313902735
1772649238890191000,6.356191162109375,-0.29683249054253097,-0.08022095318436623,0.04107449931874871
1772649238900235300,6.3662353515625,-0.301927767854929,-0.10297014327216893,0.01607669005393982
1772649238910279000,6.37627880859375,-0.2202402492493391,-0.13353892106972634,0.036796091347187754
1772649238920323000,6.386322998046875,-0.1363064130216837,-0.08835452048042788,0.03434007649719715
1772649238930367000,6.396366943359375,-0.044810617107152936,-0.057721079948823896,0.06001300854459404
1772649238940411100,6.4064111328125,0.011619710645079611,-0.004532419265247881,0.08766776205897331
1772649238950455000,6.416455078125,0.02377250525355339,-0.005113032164797186,0.13808321343585847
1772649238960500000,6.4265,-0.017476619979739188,-0.03427285647988319,0.11149828111007809
1772649238970544000,6.436544189453125,-0.024091654205322263,-0.039896358917467296,0.058211804341524835
1772649238980588000,6.446588134765625,0.011300561693310738,-0.0886061023550108,0.03148804806694388
1772649238990632000,6.4566318359375,0.032872926554083824,-0.1336303256802261,0.004616700015217066
1772649239000676000,6.466676025390625,0.06645195555090903,-0.17388086833022534,0.06942863327413797
1772649239010720000,6.476719970703125,0.08860241256058216,-0.10426109639815985,-0.04084785095602274
1772649239020764200,6.48676416015625,0.07179331657886505,-0.07315174545049667,-0.06262275265157223
1772649239030808000,6.49680810546875,0.06724748984277248,-0.08611801186632365,0.09962927187904715
1772649239040852000,6.50685205078125,0.08065525294840335,-0.10767711538672446,0.12546557779461145
1772649239050896100,6.516896240234375,0.10097323383390903,-0.05716960181221366,0.10858502401188015
1772649239060940000,6.52693994140625,0.13643559235930441,-0.06521616667825729,0.1316235159024596
1772649239070985000,6.53698486328125,0.14527473237514496,-0.06541464839242399,0.17202260017767548
1772649239081029000,6.547029052734375,0.13647826245725153,-0.0666474415903911,0.1770651243895292
1772649239091073000,6.557072998046875,0.07845803516507148,-0.07398549286089837,0.17370412352383136
1772649239101117200,6.5671171875,0.07076514257490635,-0.07687467496376484,0.203710846991837
1772649239111161000,6.5771611328125,0.12760054399669168,-0.06412574109304696,0.16120660713091492
1772649239121205000,6.587205078125,0.18026187460422516,-0.09086228378396481,0.12224690800905227
1772649239131249000,6.597248779296875,0.19204408233463763,-0.13634250724837182,0.10006006451174616
1772649239141293000,6.60729296875,0.16991759072244167,-0.1298943905549124,0.08599033036604523
1772649239151337200,6.617337158203125,0.1337403619259596,-0.1268120970327407,0.05021466810777783
1772649239161381000,6.627381103515625,0.0694990681618452,-0.12270097191948443,0.024586159723997116
1772649239171426000,6.637426025390625,0.015063713619112967,-0.12066592242792248,0.02484510292112827
1772649239181470200,6.64747021484375,-0.038834465306997294,-0.12108213854599743,-0.01027560255974531
1772649239191514000,6.65751416015625,-0.033895255339145655,-0.10939396577458828,-0.021295155354589222
1772649239201558000,6.66755810546875,-0.012926117068529128,-0.11173541433420031,0.022726357201486826
1772649239211602000,6.677601806640625,-0.0024859715968370438,-0.08660608764421195,0.040432840414345264
1772649239221646000,6.68764599609375,-0.007158055061101913,-0.08156802041176706,0.054022535958141084
1772649239231690200,6.697690185546875,0.009491466444730758,-0.0895430909441784,0.056175476208329196
1772649239241734100,6.707734130859375,0.024387422281503677,-0.11166870577353984,0.04579729005694389
1772649239251778300,6.7177783203125,0.048238253468275066,-0.09764639096613972,0.037937662597745656
1772649239261822200,6.727822265625,0.06870236482620239,-0.08082472776379436,0.04674523843154311
1772649239271867400,6.737867431640625,0.011651859349012373,-0.09092866355106234,0.04537658042684197
1772649239281911300,6.747911376953125,-0.04741524664759636,-0.0827739986680448,-0.00895092982724309
1772649239291955200,6.757955078125,-0.03223638221621513,-0.09161233496628701,-0.03718947457894683
1772649239301999400,6.767999267578125,-0.022859482061862946,-0.10622351904492824,-0.011962971124798058
1772649239312043300,6.778043212890625,-0.06243336755931377,-0.10674575282074511,0.00898380918353796
1772649239322087200,6.788087158203125,-0.051826633349061006,-0.09601360213253647,-0.007362491592019796
1772649239332131000,6.798131103515625,-0.007643792751431465,-0.07959251908771693,-0.03381006127372384
1772649239342175200,6.80817529296875,0.0408779538333416,-0.07397340056430549,0.020955255875736475
1772649239352219400,6.818219482421875,0.10735445930361748,-0.05074859232138842,0.06518778083398938
1772649239362263300,6.82826318359375,0.15324936451613902,-0.053537967311590905,0.08550926885083317
1772649239372307200,6.83830712890625,0.18019991528391838,-0.08159432389680296,0.13109832298457622
1772649239382352400,6.848352294921875,0.18211773160398007,-0.10640300379768014,0.1109784950196743
1772649239392396300,6.858396240234375,0.17230068646669386,-0.12455810756087303,0.10384498987793922
1772649239402440200,6.868440185546875,0.1585918945878744,-0.11257617600727826,0.09029401890933512
1772649239412484000,6.878484130859375,0.09186053757369518,-0.07343958594854921,0.09866934080570935
1772649239422528300,6.8885283203125,-0.02072422359883785,-0.050660731374844906,0.1041202996879816
1772649239432572400,6.898572509765625,-0.15397943235635755,-0.04043189056627452,0.07362754626870155
1772649239442616300,6.9086162109375,-0.2576683548897505,-0.042080899882316586,0.005398498042672872
1772649239452660200,6.91866015625,-0.3180167328685522,-0.09912413536850362,-0.042919396533071995
1772649239462704000,6.9287041015625,-0.3144868051767349,-0.13244480569008737,-0.10038359737768769
1772649239472748300,6.938748291015625,-0.23005437177717683,-0.14369560995753855,-0.14017799375802278
1772649239482793200,6.948793212890625,-0.10214052404761313,-0.17323741932753473,-0.12604235476925968
1772649239492837000,6.958837158203125,0.019564532169699667,-0.21479791206493973,-0.11169701855257153
1772649239502881300,6.96888134765625,0.0737035341143608,-0.23276483631227163,-0.09994871309176087
1772649239512925200,6.97892529296875,0.05988777472972869,-0.2317250449357554,-0.07932984956353903
1772649239522969300,6.98896923828125,0.05553191760778427,-0.182153752765432,-0.04613981988430023
1772649239533013200,6.99901318359375,0.04201017273366451,-0.1299842607954517,0.03228387461975216
1772649239543057200,7.00905712890625,0.06396247682273387,-0.051945145162194964,0.10295227882191538
1772649239553101300,7.019101318359375,0.026088380980491637,-0.017568682177364826,0.15068433633372186
1772649239563145200,7.029145263671875,-0.03982406086623668,-0.013106332473643123,0.19536285149380564
1772649239573189400,7.039189453125,-0.06697510264217853,-0.02149699806962162,0.1959903357423842
1772649239583233300,7.0492333984375,-0.025934651723504065,-0.029507614839449522,0.2176614848025143
1772649239593278200,7.0592783203125,0.04619710302948951,-0.05491689098197967,0.24765315683186054
1772649239603322400,7.069322265625,0.14309738833606242,-0.0092115900574252,0.2297637182675302
1772649239613366300,7.0793662109375,0.1566004285097122,0.03547193007133901,0.26173370463252066
1772649239623410200,7.08941015625,0.11278759026825427,0.0835314659718424,0.2716756913237274
1772649239633454300,7.099454345703125,0.0846311708420515,0.06295172887761145,0.22932956463396548
1772649239643498200,7.109498291015625,0.07238368368744849,0.010094693034887314,0.18312413216754794
1772649239653542400,7.11954248046875,0.062063365203142165,-0.07788545944150536,0.07321984225064515
1772649239663586300,7.12958642578125,0.05669686973392963,-0.13791085254363714,-0.013034984270483255
1772649239673630200,7.139630126953125,0.08246434819698334,-0.164908713051863,-0.062353288060426705
1772649239683674400,7.14967431640625,0.1171259117335081,-0.17171459367442876,-0.10542758289426564
1772649239693719000,7.159718994140625,0.18354630310237408,-0.13623396883998065,-0.12849749283641576
1772649239703763200,7.16976318359375,0.18294483007788656,-0.11000347597505897,-0.10322495828345417
1772649239713807400,7.179807373046875,0.12368190924823283,-0.08636153829861432,-0.05629062702059746
1772649239723851300,7.189851318359375,0.04715454988479614,-0.09717654496468603,-0.01089694932848215
1772649239733895400,7.1998955078125,-0.0139817636013031,-0.13560962639655916,-0.016612842757254838
1772649239743939000,7.20993896484375,-0.0658697717487812,-0.17560900729708373,-0.047239890080690385
1772649239753983200,7.219983154296875,-0.0490080687969923,-0.18696056852526963,-0.017539602213352917
1772649239764027400,7.23002734375,-0.012149871999025345,-0.16529774890206753,0.009130670308321714
1772649239774071300,7.2400712890625,-0.016542554000020027,-0.1238551469232887,0.05896174592599272
1772649239784115200,7.250115234375,-0.0555132129073143,-0.08129735024422406,0.11372194850891827
1772649239794160400,7.260160400390625,-0.08930091621875762,-0.039976146155409516,0.17046923325583338
1772649239804204300,7.270204345703125,-0.1272644439101219,-0.027828941037505862,0.1888581457749009
1772649239814248400,7.28024853515625,-0.11027531518638134,-0.02956106205973774,0.16720920854657886
1772649239824292000,7.2902919921875,-0.03210544931292534,-0.07689743478484451,0.15940832553729414
1772649239834336300,7.300336181640625,0.07493804434537887,-0.08483363461159169,0.16104732491597532
1772649239844380400,7.31038037109375,0.11692249811589717,-0.10673300293702631,0.12977628060057758
1772649239854424300,7.32042431640625,0.09638707508742808,-0.06384502445552498,0.09116817139536142
1772649239864468200,7.33046826171875,0.06711947954893112,-0.021622304949723184,0.10084215480014681
1772649239874512100,7.34051220703125,0.037564883762598034,-0.0268725901607424,0.12463336475417017
1772649239884556300,7.350556396484375,0.0296627323359251,-0.03608370529413223,0.11577113612368702
1772649239894601500,7.3606015625,0.04949205292165279,-0.07178706950116902,0.0663511255249381
1772649239904645000,7.37064501953125,0.08033025877773761,-0.13471907076500356,0.004967851540446281
1772649239914689300,7.380689208984375,0.08037351339757443,-0.159779460404627,0.008867050936073064
1772649239924733200,7.390733154296875,0.0775029263973236,-0.17287527148425577,-0.006434416961669922
1772649239934777300,7.40077734375,0.10227379503846168,-0.21291071007885037,-0.018589549657702445
1772649239944821200,7.4108212890625,0.14184066627323627,-0.21410156383123247,-0.036180005275458095
1772649239954865200,7.420865234375,0.13256956458091734,-0.21276805020514875,0.009642857614159584
1772649239964909300,7.430909423828125,0.08498656015098094,-0.18295589946117252,0.03658858607634902
1772649239974953200,7.440953125,0.007761281651258468,-0.156538323058933,0.04687997072711587
1772649239984997400,7.450997314453125,-0.04990589441955089,-0.15275036548543722,0.050188656883686775
1772649239995042300,7.461042236328125,-0.01577916841208935,-0.1424956595832482,0.036736616244912146
1772649240005086200,7.471086181640625,0.023143559700250626,-0.15197612970992921,0.027222499576956032
1772649240015130400,7.48113037109375,0.042134675896167754,-0.12038009122386574,0.017306670240312814
1772649240025174300,7.49117431640625,-0.013667290824651717,-0.10186159750837832,0.04614274249374866
1772649240035218200,7.50121826171875,-0.12124737557768821,-0.08330196806490421,0.05274857049956917
1772649240045262300,7.511262451171875,-0.13844225600659846,-0.05294394694119692,0.07239873512610792
1772649240055306200,7.52130615234375,-0.09313421077132225,-0.06823704886939376,0.09838906255960464
1772649240065350400,7.531350341796875,0.00021861118674278257,-0.10561514135561882,0.05002645205929875
1772649240075394000,7.54139404296875,0.0449906498491764,-0.1108333509279415,0.06820537508949637
1772649240085438200,7.551438232421875,0.06741641666889191,-0.10043408545590937,0.09336538917869329
1772649240095482400,7.561482421875,0.05132569808959961,-0.09220284820534289,0.13285159639269112
1772649240105527000,7.571527099609375,-0.021618542090058326,-0.0599033376250416,0.1329756611637771
1772649240115571200,7.5815712890625,-0.012119476860761641,-0.04470357653610408,0.09732026428431272
1772649240125615400,7.591615478515625,0.02594751120507717,-0.08663988031595944,0.09650383333489299
1772649240135659300,7.6016591796875,0.06936345908343791,-0.16734993219152092,0.06655015522837639
1772649240145703400,7.611703369140625,0.0919119754999876,-0.18784520587269216,-0.011977876432985066
1772649240155747000,7.6217470703125,0.107301267811656,-0.18825027954224496,-0.06269727919250727
1772649240165791200,7.631791259765625,0.12696341513693332,-0.16424275995641946,-0.032820904105901716
1772649240175835400,7.64183544921875,0.07855272771120071,-0.09381495957709848,0.03713774439170956
1772649240185879300,7.65187939453125,0.02659574598073959,-0.06100380968023091,0.06085340489149093
1772649240195923500,7.66192333984375,-0.020592121651768682,-0.031249417005479334,0.05333659952059388
1772649240205968400,7.671968505859375,-0.022393618115782738,-0.05510426678024232,0.04587956151291728
1772649240216012300,7.68201220703125,0.02089548851251602,-0.068283920218423,0.062347150580585
1772649240226056400,7.692056396484375,0.05040156898200512,-0.06371668536812067,0.020285978312045334
1772649240236100000,7.70210009765625,0.05143266559541225,-0.10930460699070245,0.03048457011282444
1772649240246144300,7.712144287109375,0.06088029289841652,-0.12060122316125779,0.08472644791007042
1772649240256188000,7.72218798828125,0.1324929922133684,-0.10663326888959854,-0.014839549474418163
1772649240266232000,7.732232177734375,0.2036573632389307,-0.14710983884781598,-0.01768251781538129
1772649240276276200,7.742276123046875,0.22710838145315645,-0.1577682667126879,0.0030740006178617474
1772649240286319900,7.75231982421875,0.2071826147556305,-0.11957670241910963,0.0065257485069334506
1772649240296364000,7.762364013671875,0.176080789527297,-0.09843461873438208,0.0074107146479189395
1772649240306408000,7.772407958984375,0.004448796102404594,-0.04538512905947864,-0.003857990602403879
1772649240316452900,7.782452880859375,-0.11167173798084258,-0.017001184487715364,0.012175006440281867
1772649240326497000,7.7924970703125,-0.1860503948777914,-0.08887622453328221,0.022936638951301574
1772649240336541000,7.802541015625,-0.18508067306280135,-0.12594561639651655,-0.057904491958022115
1772649240346585000,7.812585205078125,-0.13219488604962826,-0.18416129319556057,-0.056347764035314316
1772649240356629200,7.822629150390625,-0.0613210224032402,-0.2205150110701099,-0.08976210398972034
1772649240366673000,7.8326728515625,0.00454699577987194,-0.17176040557753294,-0.06727671593725681
1772649240376717000,7.842717041015625,0.04339548961222171,-0.12456618126947432,-0.014045038095861672
1772649240386761000,7.852760986328125,0.07747662291228771,-0.10521046954486518,-0.019842180067300794
