time,seconds_elapsed,z,y,x
1772650072019793200,0.063793212890625,0.13455109378695487,-0.15464142166273667,0.019489786433055996
1772650072029838000,0.073838134765625,0.009326046749949454,-0.12935060253441333,-0.017170111313834786
1772650072039882000,0.083882080078125,-0.0917506474584341,-0.06832956772474572,-0.007684855414181947
1772650072049926100,0.093926025390625,-0.17696458662450312,0.03874333469113335,0.054329409950226545
1772650072059971000,0.10397119140625,-0.14419921209812164,0.14795151383634655,0.11284523873962461
1772650072070014700,0.1140146484375,-0.050098786643147465,0.14984881709134204,0.1215882249046117
1772650072080059000,0.124058837890625,-0.02163140157163143,0.047818475419934836,0.060283861375227565
1772650072090103800,0.134103759765625,-0.017603461229801175,0.009086703302431852,-0.027804244987666604
1772650072100147700,0.144147705078125,-0.011141571739315986,0.011267554472852498,-0.10404241214618086
1772650072110191900,0.15419189453125,-0.02598492060601711,0.011463241441734134,-0.0924176599998027
1772650072120236500,0.164236572265625,-0.09965981314778327,0.01235284722521901,-0.05445983139686286
1772650072130280700,0.17428076171875,-0.2913894227057695,0.07452423938009888,-0.06417378148585558
1772650072140324900,0.184324951171875,-0.5504594610869884,0.08694123788271099,-0.1101758733998984
1772650072150369500,0.19436962890625,-0.8359200782656669,0.06280238353479653,-0.18513766394704578
1772650072160413700,0.20441357421875,-0.8192781555444002,0.15087890905775128,-0.3917885829787701
1772650072170457900,0.214457763671875,-0.6565437543243169,0.18840740633271633,-0.3747331110205501
1772650072180501800,0.224501708984375,-0.46634617663919925,0.11539251206964253,-0.12841631735898554
1772650072190546700,0.234546630859375,-0.050615503993630406,0.3802776664704084,-0.34271110220737755
1772650072200590800,0.2445908203125,0.19457564663887023,0.5437083063263446,-0.37746684683337806
1772650072210634800,0.254634765625,0.11837971118688582,0.29030425781756636,0.02879113713316619
1772650072220679700,0.2646796875,0.28012100971639153,0.10844203534461558,0.16802615095265208
1772650072230723800,0.274723876953125,0.6421738681882619,0.23155052861906586,-0.10447035523466765
1772650072240767700,0.284767822265625,0.7675216648221016,0.16785832010507581,-0.154789871956408
1772650072250812700,0.294812744140625,0.7192851649194956,-0.01332753747627139,-0.029612317322939632
1772650072260856800,0.30485693359375,0.48782969417273997,-0.15542276303246616,-0.00160502404384315
1772650072270900700,0.314900634765625,0.18998539623916147,-0.13616831972524523,-0.014444047350808977
1772650072280945700,0.324945556640625,-0.18415595943331717,-0.20305888588912785,0.18274068580791353
1772650072290989600,0.334989501953125,-0.22422435044944286,-0.19723295621462164,0.12770897280722857
1772650072301033700,0.34503369140625,-0.015458265894651413,0.12443082791939378,-0.1437519797872752
1772650072311079000,0.355078857421875,-0.04590425756275653,0.10639964279681444,0.05393076602146029
1772650072321122600,0.36512255859375,-0.10332008922100067,0.0522815375097096,0.27272278922386467
1772650072331166700,0.375166748046875,-0.14328209725320337,0.027349779218435285,0.4374162886224687
1772650072341212000,0.3852119140625,-0.3103741091609001,-0.10379150612503289,0.6989379579395055
1772650072351255600,0.395255615234375,-0.3002384995937347,0.14103943289294837,0.34690402385257185
1772650072361299700,0.4052998046875,-0.27586919749081135,0.41383229167833924,0.16306710377316921
1772650072371345000,0.415344970703125,-0.025369419056177137,0.39103739928528664,0.26795802250746636
1772650072381388500,0.425388427734375,0.2163753905147314,0.1391675015412271,0.17524247553963213
1772650072391432700,0.4354326171875,0.12022270870506763,0.01365779234394431,0.53351753250584
1772650072401478000,0.445477783203125,0.07892915980815887,-0.23859482110738753,0.6881167041957378
1772650072411521800,0.455521728515625,-0.020136779099702833,-0.1895521193884313,0.3375911288451403
1772650072421565700,0.465565673828125,0.02346563126146793,0.1264393912628293,0.20170049355011432
1772650072431609900,0.47560986328125,0.10339315445721149,0.12052213004305957,-0.04480466229040175
1772650072441654800,0.48565478515625,0.09757833069860934,0.1000346378095448,0.047079804148152465
1772650072451698700,0.49569873046875,0.18270751419067383,0.04895370826125145,0.011016666718013584
1772650072461742600,0.50574267578125,0.29591479117572306,0.0867266818165779,-0.27716393174277615
1772650072471787800,0.515787841796875,0.34737492929995056,0.036529841626435515,-0.009193725607171655
1772650072481831700,0.525831787109375,0.32786008149087426,-0.3569795007303357,0.3919443580623716
1772650072491875600,0.53587548828125,0.2516319973349571,-0.5371051817342639,0.23741496367305515
1772650072501920800,0.545920654296875,0.1987643305003643,-0.004890256259590387,-0.3702092038553208
1772650072511964700,0.555964599609375,0.08415712358951569,0.25695859918519853,-0.3919415815833956
1772650072522008600,0.566008544921875,-0.20500527071654795,0.09425430084243416,0.12650792645439504
1772650072532053800,0.5760537109375,-0.057308864152431485,0.24826135185807943,0.2590212490697391
1772650072542098000,0.586097900390625,0.04515548502206802,0.31457141472026706,0.2576852146930061
1772650072552141600,0.5961416015625,0.056278936582803724,0.3676343118660152,0.3666394190771505
1772650072562186800,0.606186767578125,0.1260235039383173,0.3953805430561304,0.297766501723323
1772650072572231000,0.61623095703125,0.03647124330699444,0.0669999448224902,0.32998649906031785
1772650072582274600,0.626274658203125,-0.1570622008025646,-0.33682942375764247,0.4963122027706355
1772650072592319700,0.63631982421875,-0.22149287965893744,-0.43470615288093684,0.32357911623604596
1772650072602364000,0.646364013671875,0.15374211646914482,0.3260708599865436,-0.5502926531527191
1772650072612407800,0.65640771484375,0.0032359131813049316,0.03796206638664007,-0.12199705230067483
1772650072622452700,0.66645263671875,-0.03325871100127697,-0.40958340206220745,0.22186520183635874
1772650072632497000,0.676496826171875,0.08587912507653236,-0.22945099905654787,0.01474421760747209
1772650072642540800,0.686540771484375,-0.13587971204221247,-0.6105806061811745,0.22195748322969303
1772650072652585700,0.696585693359375,-0.029834581771492955,-0.5431665275998413,-0.17148315953873097
1772650072662630000,0.7066298828125,0.5172708927124738,0.3667103288888931,-1.0022527962386607
1772650072672673800,0.716673828125,0.6100941378384829,-0.15281959479674695,-0.3922449484441429
1772650072682718700,0.72671875,0.42823534943163394,-0.6249567759275436,-0.09393410157789475
1772650072692763000,0.736762939453125,0.42273090679645536,-0.38850846532955763,-0.46357689458895474
1772650072702806800,0.746806884765625,0.2568944479078054,-0.4562529449090361,-0.5248134170465171
1772650072712850700,0.7568505859375,0.1566314081698656,-0.520685377331078,-0.5402526859797537
1772650072722896000,0.766895751953125,0.17644202405512333,-0.4640155417345464,-0.569419561090134
1772650072732939800,0.776939697265625,0.3106576022773981,-0.37114348903074856,-0.48409891014657913
1772650072742984000,0.78698388671875,0.632912118846178,-0.315825652565062,-0.2399782200234942
1772650072753028900,0.79702880859375,0.9555565115153789,-0.28113837006539105,-0.04251338214860297
1772650072763072800,0.80707275390625,0.9857458980739117,-0.09250774943605065,-0.15691417063400148
1772650072773117000,0.817116943359375,0.8846633586466311,0.11081453662961721,-0.1253154287341982
1772650072783161600,0.82716162109375,0.68731064850986,0.12522738512456416,0.0009473090537823736
1772650072793205800,0.837205810546875,0.5165805723607539,-0.0015263327844440937,0.16275504214931277
1772650072803250000,0.84725,0.3578156592935324,-0.12762436326369642,0.2718100765594281
1772650072813294600,0.857294677734375,0.24568156449794767,-0.19545549821332095,0.2955116537349298
1772650072823338800,0.8673388671875,0.2363479189634323,-0.24571926615983247,0.28489322908688336
1772650072833383000,0.8773828125,0.2550748312652111,-0.25809417908638715,0.15247143894620238
1772650072843427600,0.887427490234375,0.20580723474919796,-0.18022972590029238,0.11133205769769847
1772650072853471700,0.8974716796875,0.2202706443876028,-0.12407105469629168,0.07719459110051394
1772650072863516000,0.907515869140625,0.10131810174882411,-0.07694806899353861,-0.0244848182413727
1772650072873560600,0.917560546875,-0.18920272142887115,-0.03317088658735156,0.014333134322240948
1772650072883604700,0.927604736328125,-0.5546633425176143,0.07310688339546323,0.05921301727332175
1772650072893649000,0.93764892578125,-0.8360825753509998,0.07483071151338518,0.02630545779727399
1772650072903693600,0.947693603515625,-0.9627519759774208,0.11820355090238154,0.05909282495975494
1772650072913737700,0.95773779296875,-0.9380956736266612,0.11315116288363933,0.09632818450704217
1772650072923781600,0.96778173828125,-0.7636819405287504,0.08663746916316449,0.1753645310167223
1772650072933826600,0.97782666015625,-0.4442921657413244,0.08659940217509865,0.2642771055050194
1772650072943870700,0.98787060546875,-0.1368944420427084,0.011677724442631005,0.3480819085255265
1772650072953914600,0.99791455078125,0.0324643457531929,-0.11401420945376158,0.38507578746713694
1772650072963959800,1.007959716796875,-0.1478694250434637,-0.21227416574098168,0.31202384912930425
1772650072974003700,1.018003662109375,-0.2874392237752676,-0.17823073410280046,0.18105901633128524
1772650072984047600,1.028047607421875,-0.31885961343348024,-0.16684855854064226,0.11197137851454317
1772650072994091800,1.038091796875,-0.13739303921461105,-0.09377776937186717,-0.0014140315163880587
1772650073004136700,1.04813671875,0.005806055930256843,-0.05065115982890129,0.0017274813797324895
1772650073014180600,1.0581806640625,0.0378495459228754,-0.15488639113344252,0.26757585478946566
1772650073024224800,1.068224853515625,0.11040040287077427,-0.022585049034655094,0.20361885785944758
1772650073034269700,1.078269775390625,0.24061902041137218,-0.0017919979833066462,0.24454941866286098
1772650073044313600,1.088313720703125,0.4491144713312387,-0.0995938352394849,0.434299325645715
1772650073054357800,1.098357666015625,0.5795125370919704,0.17073899010792373,0.09998992188498378
1772650073064403000,1.10840283203125,0.17888064937889575,-0.007543839508295059,0.014225363098829984
1772650073074447000,1.118447021484375,-0.4575532138526439,-0.16692936869189143,0.064639718497172
1772650073084491300,1.1284912109375,-0.6086164665013551,-0.027814985577389595,0.014234496253356337
1772650073094536200,1.1385361328125,-0.4950082074999809,-0.026798063619807362,-0.020972645401954648
1772650073104580000,1.148580078125,-0.3025175504416227,-0.10656506249159574,0.07677490438371896
1772650073114624300,1.158624267578125,-0.03774316293895244,-0.10338270612843334,0.15227613556981087
1772650073124669200,1.168669189453125,0.22997955297529696,-0.0727765554625541,0.18276706235818563
1772650073134713000,1.178713134765625,0.33684652102291585,-0.08113967546448111,0.17617423996441064
1772650073144757200,1.18875732421875,0.28380700475275517,-0.15573511691726744,0.213346909539029
1772650073154802200,1.19880224609375,0.19728022942245005,-0.10893939040750264,0.29493929720707235
1772650073164846000,1.20884619140625,0.06853811417520046,-0.0966342547815293,0.00966127005368471
1772650073174890200,1.21889013671875,0.02052197902500629,-0.1505705006957054,0.012492474891617894
1772650073184935200,1.22893505859375,0.07107493917644024,-0.21433292490169403,-0.1001122330904007
1772650073194979000,1.23897900390625,0.03418342463076114,-0.26246450312510133,-0.1443913006041199
1772650073205023000,1.24902294921875,-0.07308627899885177,-0.20473924019150436,-0.17582447667866943
1772650073215068200,1.259068115234375,-0.0043932665228843685,-0.13116671204566954,-0.23650932007022202
1772650073225112300,1.2691123046875,0.12149930451214312,-0.19382848153337834,-0.23387137278206646
1772650073235156000,1.279156005859375,0.23062194253206253,-0.21664324767068027,-0.1468839211374521
1772650073245201200,1.289201171875,0.14646481894254684,-0.2874020335700363,-0.11513239982873201
1772650073255245300,1.299245361328125,-0.034031448939442634,-0.36233138315230606,-0.0975239701628685
1772650073265289000,1.3092890625,-0.054604281368851655,-0.1735060436684638,-0.1675664975516498
1772650073275333000,1.3193330078125,0.03273147225677967,-0.02611183492131531,-0.17155257151313125
1772650073285378300,1.32937841796875,0.05940612869262695,-0.0562213977092877,-0.06972681250311434
1772650073295422000,1.339421875,0.06509995642006397,-0.03237421978432685,0.04145465774275362
1772650073305466000,1.349466064453125,0.13653846821188925,-0.006615655280090868,0.08607881236709654
1772650073315511300,1.35951123046875,0.25694530131220816,-0.07724913429934531,0.061624389263987535
1772650073325555200,1.36955517578125,0.3312432941883802,-0.1628090008262545,0.08650003345385193
1772650073335599000,1.37959912109375,0.3678974928468466,-0.1604815077267587,0.15021087360307572
1772650073345644300,1.389644287109375,0.20178397058248518,-0.11598583832029252,0.19630130138769744
1772650073355688200,1.399688232421875,0.0031692776858806607,-0.051304582236334675,0.22567089599594473
1772650073365732000,1.409732177734375,-0.05861702414155006,-0.023566936211474238,0.2538232237689197
1772650073375777300,1.41977734375,-0.020638298881053924,-0.05629208832532167,0.2752221317589283
1772650073385821200,1.4298212890625,0.10673252801299095,-0.0998186204386875,0.22651618771366774
1772650073395865000,1.439864990234375,0.18506021479666232,-0.15517408550102263,0.17063662571199237
1772650073405910300,1.44991015625,0.19373393511772155,-0.17117160937152803,0.17428506521694362
1772650073415954200,1.4599541015625,0.08649462662637233,-0.11043185745496302,0.1650544416654855
1772650073425998300,1.469998291015625,0.0034311434924602507,0.18961594187226144,0.19829364424869417
1772650073436043300,1.480043212890625,0.05162205068767071,0.12555818798150867,0.014624591549485921
1772650073446087200,1.490087158203125,-0.3136158675611019,-0.6356031114958226,0.4379620128717273
1772650073456131300,1.50013134765625,-0.11855740584135055,-0.24469047110136596,0.0993690135076642
1772650073466176300,1.51017626953125,0.06303016440868377,0.03431605630079284,-0.10430566619224846
1772650073476220200,1.52022021484375,0.012730302235484122,-0.15186717117642984,0.13547726872116325
1772650073486264300,1.530264404296875,-0.10302782827615738,-0.14853830074835567,0.1639744644090533
1772650073496309200,1.540309326171875,-0.11884557513296604,-0.05214645815426484,0.06972863913401961
1772650073506353200,1.550353271484375,-0.13053133675158024,-0.052674738078378136,0.03209244370087981
1772650073516397300,1.560397216796875,-0.06878595145642757,-0.08416057592192665,0.017276640428230166
1772650073526441200,1.570441162109375,0.03137187434136867,-0.11236468868106603,-0.023858137710392472
1772650073536486100,1.580486083984375,0.09942015917301178,-0.13466969693163408,-0.035256752950698134
1772650073546530300,1.5905302734375,0.06044365504682064,-0.176247834923584,-0.033022418027371166
1772650073556574200,1.60057421875,-0.12374912926554679,-0.13550744466371833,-0.05704875191152096
1772650073566619100,1.610619140625,-0.23171499846577642,-0.107380981984362,-0.08318835162259638
1772650073576663300,1.620663330078125,-0.25061551376879215,-0.0766232940185815,-0.08753931337371468
1772650073586707200,1.630707275390625,-0.21776772165596484,-0.09331766844629309,-0.0642326720662415
1772650073596752100,1.640752197265625,-0.1516074425280094,-0.10154294174695387,-0.038983591454103586
1772650073606796300,1.65079638671875,-0.05484276629984378,-0.12947706932513975,-0.03738156308494508
1772650073616840200,1.660840087890625,-0.053612347722053526,-0.14682036351510322,-0.05670636821463704
1772650073626885000,1.670885009765625,-0.06693009445667267,-0.05789855540757999,-0.0258295839138329
1772650073636929300,1.68092919921875,-0.05299450808465481,-0.019648054867843164,0.05513290835283696
1772650073646973200,1.69097314453125,-0.08231412607133388,-0.03704181886971928,0.12328509195037185
1772650073657018000,1.70101806640625,-0.13652502420842647,-0.0376674216884654,0.17520546799749134
1772650073667062300,1.711062255859375,-0.18407529541254042,-0.033267223101295526,0.12332564315646886
1772650073677106200,1.721106201171875,-0.15693477503061293,-0.04198290113424882,0.10987988612800836
1772650073687151000,1.731151123046875,-0.06951309668719768,-0.04558253306141123,0.11323219223059713
1772650073697195000,1.741195068359375,0.025759879678487776,-0.03343941959673539,0.1294685298256576
1772650073707239200,1.7512392578125,-0.014092822760343552,-0.06999917230424471,0.15087605951353908
1772650073717284000,1.7612841796875,-0.1226250936716795,-0.11561806445382534,0.11730915934592484
1772650073727328000,1.771327880859375,-0.11030863293409347,-0.09955410601729527,0.08564955410435796
1772650073737372200,1.7813720703125,-0.034195699590444564,-0.10330302848834544,0.06898205855041742
1772650073747416300,1.791416259765625,0.03680851243734359,-0.06276371375853196,0.1138746548525989
1772650073757461000,1.8014609375,0.1672141769826412,-0.0207583085315302,0.13168394085280596
1772650073767505200,1.811505126953125,0.24908523546159267,0.0013151925181038677,0.10908932027220726
1772650073777549300,1.82154931640625,0.21605039634406564,-0.0488028285484761,0.05285488041825592
1772650073787594000,1.831593994140625,0.1234042613506317,-0.07503052666811272,-0.01349361475817859
1772650073797638100,1.84163818359375,0.16580898635983465,-0.07505317689133807,-0.054895811661332845
1772650073807682300,1.851682373046875,0.2418471009016037,-0.06639821606967598,-0.03222564162649214
1772650073817727000,1.86172705078125,0.2705547244697809,-0.09694047118648887,0.0034547435637563464
1772650073827771100,1.871771240234375,0.21838614581525326,-0.09284960340997203,-0.011829846264421939
1772650073837815300,1.881815185546875,0.11648059956729412,-0.09515327724246307,-0.07848119684495031
1772650073847860200,1.891860107421875,0.027409984973073002,-0.11465973168252967,-0.09807247089110314
1772650073857904000,1.901904052734375,0.004287468060851097,-0.12842759680482557,-0.09202617646418511
1772650073867948000,1.911947998046875,0.047830841711163516,-0.13354680298208257,-0.10139671994298696
1772650073877993200,1.9219931640625,0.10753683013319969,-0.11349567460552788,-0.08359707855395972
1772650073888037000,1.932037109375,0.0947615197122097,-0.08023097225488163,-0.060440732437372205
1772650073898081000,1.9420810546875,0.07291676765084266,-0.043783740011136975,-0.010766674012318253
1772650073908126200,1.952126220703125,-0.026686346873641013,-0.033152876006625594,0.042742724791914224
1772650073918170000,1.962170166015625,-0.1414817698329687,-0.01584134692810476,0.03480148346386849
1772650073928214000,1.972214111328125,-0.16738251928687095,-0.019693711507320404,0.0196606129553169
1772650073938258200,1.982258056640625,-0.11151157898306846,-0.013232899729069322,0.04963189978376031
1772650073948303000,1.99230322265625,-0.0449210917443037,-0.024549517508037386,0.060899874381721016
1772650073958347000,2.002346923828125,-0.004003974944353103,-0.029649023470981046,0.04534260509200394
1772650073968391200,2.01239111328125,-0.010424947902560234,-0.014509385938290506,0.03810585877150297
1772650073978436400,2.022436279296875,0.0002104278802871704,-0.02310906377560459,0.019914953042566776
1772650073988480000,2.03247998046875,0.02182838544845581,-0.023807485235389322,0.046501858129724856
1772650073998524200,2.042524169921875,0.013651508733630179,-0.04383266631993465,0.07529599093757569
1772650074008569300,2.0525693359375,-0.007027706679701804,-0.048350554736331104,0.03452463928386569
1772650074018613000,2.062613037109375,0.026812603601813315,-0.07605578719577752,0.01748231906816363
1772650074028657200,2.0726572265625,0.10105857402980327,-0.11926707934751174,0.010703910974413157
1772650074038702300,2.082702392578125,0.1481266146749258,-0.12634048833246342,0.022493936685100198
1772650074048746000,2.09274609375,0.07861117990016937,-0.12179985836129635,0.021457944700866937
1772650074058790100,2.1027900390625,0.0038631051689386364,-0.11488936658678575,-0.006366466291993856
1772650074068834600,2.11283447265625,0.026262568503618237,-0.09001224282588809,-0.027879940572381016
1772650074078878700,2.122878662109375,0.10875906540453434,-0.09353225191188975,0.010230886635184287
1772650074088922600,2.132922607421875,0.21830314370691775,-0.10745131640736945,0.07897007634043693
1772650074098967600,2.142967529296875,0.19759937837421893,-0.09655161799937487,0.07501812384426593
1772650074109011700,2.15301171875,0.07886544692218303,-0.08530633929041213,0.0953778980448842
1772650074119055600,2.1630556640625,-0.06066226623356342,-0.0683366139534628,0.10329210523553192
1772650074129099500,2.173099609375,-0.13551789299249647,-0.0375857347543817,0.07668832207880914
1772650074139144700,2.183144775390625,-0.15717968970239163,-0.02874399635607842,0.09757241241447627
1772650074149188600,2.193188720703125,-0.10654431196451186,-0.025829003958520478,0.12183876559957861
1772650074159232500,2.203232421875,-0.061485857576131814,-0.0401266742417356,0.11428520841486751
1772650074169277400,2.21327734375,-0.02360825460255146,-0.06517103976174257,0.11143412983268498
1772650074179321600,2.223321533203125,-0.09941606751978396,-0.08563965376485139,0.05336151476614177
1772650074189365500,2.233365478515625,-0.1277443363815546,-0.0933120241567958,0.03326272958926856
1772650074199410400,2.243410400390625,-0.12623802347183227,-0.06256092119542882,0.013930544870719312
1772650074209454600,2.25345458984375,-0.056713820868730544,-0.022142958689806983,0.06360095003396272
1772650074219498800,2.263498779296875,0.022065116813778877,0.022912600488588213,0.1242454614151269
1772650074229543400,2.27354345703125,0.04462590819001198,0.033955168832838535,0.14693345936760305
1772650074239587600,2.283587646484375,0.03131108406484127,0.023362874139891937,0.11153181805349886
1772650074249631700,2.2936318359375,-0.005455342796444893,-0.00659649392189458,0.10133461449220776
1772650074259676400,2.303676513671875,-0.016821370941400526,0.009217736670421436,0.09532631398811936
1772650074269720600,2.313720458984375,0.01175005902647972,-0.0069289407466538245,0.08180508057065308
1772650074279764700,2.3237646484375,0.05578910723924636,-0.05528661021036096,0.04672383031733334
1772650074289809400,2.333809326171875,0.09464110820293425,-0.11813545410223304,0.008212313354387879
1772650074299853600,2.343853515625,0.15870120018124578,-0.13876570667414925,-0.015330109470337628
1772650074309897700,2.353897705078125,0.17220950105190277,-0.1195005136440508,-0.0354172042094171
1772650074319942400,2.3639423828125,0.1263888301193714,-0.07784907295387238,-0.003756283793598413
1772650074329986600,2.373986572265625,0.02678571559488773,-0.008467119232518599,0.024373978278040883
1772650074340030500,2.384030517578125,-0.09707681091725825,0.03316276721297763,-0.00199475401379168
1772650074350074600,2.39407470703125,-0.1585614994496107,0.01325516635980457,-0.05526851743124425
1772650074360119600,2.40411962890625,-0.1592851375490427,-0.04585262784021906,-0.08419263329431415
1772650074370163500,2.41416357421875,-0.10625789623856544,-0.0636407614545431,-0.12163776313476264
1772650074380207600,2.42420751953125,0.029261750319600103,-0.07906086902958341,-0.16281513830609617
1772650074390252500,2.43425244140625,0.11473755529224872,-0.08707056335080414,-0.1320872609566897
1772650074400296400,2.44429638671875,0.142958272126317,-0.10981574398376978,-0.11388254589810967
1772650074410340600,2.454340576171875,0.1576554905205965,-0.09699043867490253,-0.09219598007313906
1772650074420385500,2.464385498046875,0.12413608275651931,-0.08187883079345337,-0.037770708533003926
1772650074430429400,2.474429443359375,0.09471534248292446,-0.08233228278253227,0.013161094868183135
1772650074440473600,2.4844736328125,0.06522855123579502,-0.039266299119312315,0.08410042496621609
1772650074450518500,2.4945185546875,0.01000292309820652,-0.00961997906207107,0.14129114263169468
1772650074460562400,2.5045625,-0.12160861010551452,-0.007484656666964292,0.1498000277798623
1772650074470606600,2.514606689453125,-0.2394546528071165,0.008851488040760159,0.12049889529794454
1772650074480651500,2.524651611328125,-0.23357143998742103,-0.003934243309544399,0.13910320413336158
1772650074490695400,2.5346953125,-0.11300737049877643,-0.016156029767310245,0.17665164821781218
1772650074500739600,2.544739501953125,0.031792730101943015,-0.013980658489605412,0.20712365111000836
1772650074510784500,2.554784423828125,0.11772855380177497,0.007903448334615678,0.23156024629548191
1772650074520828400,2.564828369140625,0.15363456444144247,0.01339382591182366,0.2282401619620621
1772650074530872600,2.57487255859375,0.15538053132593632,-0.02994080035863444,0.2122237507279962
1772650074540917800,2.584917724609375,0.18031974227130412,-0.08267729682791977,0.1598483243897557
1772650074550961400,2.59496142578125,0.20348668284714222,-0.08553816615175455,0.11745485142692923
1772650074561005600,2.605005615234375,0.20097966846227644,-0.08323803598321974,0.08790500488094985
1772650074571049500,2.615049560546875,0.21368366721272467,-0.08848174532297998,0.08322641861066221
1772650074581094400,2.625094482421875,0.21235212634801864,-0.0936786929115653,0.08445844462364911
1772650074591138600,2.635138671875,0.11808861928582191,-0.08065756363649852,0.10025580627955495
1772650074601182500,2.645182373046875,-0.025817747345566747,-0.0517406812318135,0.09451887006275356
1772650074611227400,2.655227294921875,-0.08351298046708107,-0.052074306233506645,0.08292005607523023
1772650074621271600,2.665271484375,-0.06772679779231548,-0.052244182907696814,0.09319434346072375
1772650074631315500,2.6753154296875,0.013799392771720886,-0.06911415136433206,0.07699614591896534
1772650074641360600,2.685360595703125,0.07939560827612877,-0.0787198096401058,0.0654600219041109
1772650074651404500,2.695404541015625,0.11127601666152477,-0.08004861055845394,0.050550256737694144
1772650074661448400,2.705448486328125,0.1040589248895645,-0.08667437624060548,0.05946553072966635
1772650074671493600,2.71549365234375,0.08248831359446049,-0.0753775408743415,0.0720516021888703
1772650074681537500,2.72553759765625,0.084626494666934,-0.07369599012872204,0.10047156792208552
1772650074691581400,2.73558154296875,0.05632920546531677,-0.04377476212023757,0.12681852677352726
1772650074701626600,2.745626708984375,0.020824176841974257,-0.0409623807137832,0.10894976567104458
1772650074711670500,2.75567041015625,0.0009743979901075362,-0.050696725136833265,0.03855411399565637
1772650074721714400,2.76571435546875,-0.07163023497164249,-0.079632567970315,-0.01195420329645276
1772650074731759600,2.775759521484375,-0.13968962571918964,-0.09987045109062455,-0.060757762497290965
1772650074741803500,2.785803466796875,-0.15412497830688954,-0.08363554740082473,-0.0966935837533325
1772650074751847400,2.795847412109375,-0.11382160949110984,-0.08944126540436409,-0.12222805717810988
1772650074761891600,2.8058916015625,-0.05932488014996051,-0.09431840645405463,-0.12225231483653187
1772650074771936800,2.815936767578125,0.000720130968093872,-0.09217946732975542,-0.0824074303779751
1772650074781980400,2.82598046875,-0.009859715235233307,-0.10066187546295113,-0.08284903666563331
1772650074792024600,2.836024658203125,-0.054115036547183984,-0.09653091313806361,-0.09243753374405204
1772650074802069500,2.846069580078125,-0.06861585558652877,-0.10517632981324568,-0.0654147214576602
1772650074812113400,2.856113525390625,-0.08214461472332477,-0.09623276130855082,-0.002968932808190584
1772650074822157600,2.866157470703125,-0.055257192319631575,-0.08891536010042764,0.015243381034955381
1772650074832202500,2.876202392578125,-0.029786650976538657,-0.1181616753888782,0.01866992141753435
1772650074842246700,2.88624658203125,0.03374152608215809,-0.10765690371575765,0.0475653957080096
1772650074852290600,2.89629052734375,0.08517360715568065,-0.09863770355843007,0.10052760895825921
1772650074862335500,2.90633544921875,0.11586626706123351,-0.0905450984604191,0.13829488342516125
1772650074872379600,2.916379638671875,0.10336392836272716,-0.1158264739069622,0.1271430094875395
1772650074882423600,2.926423583984375,0.10453764831721782,-0.1293793902374804,0.14278255023323
1772650074892468500,2.936468505859375,0.13134557574391365,-0.11516164418952539,0.18675196727588772
1772650074902512600,2.9465126953125,0.1583820512294769,-0.07395237604258581,0.1973980105832219
1772650074912556500,2.956556640625,0.17003917127549648,-0.049338433262519535,0.18852036518789828
1772650074922600400,2.966600341796875,0.0889449423879385,-0.06633537083338015,0.15308620984368027
1772650074932645600,2.976645751953125,0.036465982609987256,-0.08915896873110905,0.09230966958068311
1772650074942689500,2.986689453125,-0.009942132821679115,-0.09909832507381215,0.014080109409242867
1772650074952733400,2.9967333984375,-0.029720600003004072,-0.10318924764925613,0.016813918287307023
1772650074962778600,3.006778564453125,-0.025962124252319335,-0.11674973536487668,0.006731719407811761
1772650074972822500,3.016822509765625,-0.00984860931932926,-0.1130630553419236,-0.022230171182379126
1772650074982866400,3.026866455078125,-0.037193127840757366,-0.13701257939650677,-0.07086516888327896
1772650074992911600,3.03691162109375,-0.05976034895777702,-0.15786635679230093,-0.11795922075249254
1772650075002955500,3.04695556640625,-0.07515256387889385,-0.15171275693285277,-0.13168364859186113
1772650075012999400,3.05699951171875,-0.04805938977003097,-0.13714049835880285,-0.09473733511902391
1772650075023044600,3.067044677734375,-0.0038660277783870694,-0.10860404837275854,-0.03900689926445484
1772650075033088500,3.077088623046875,0.03362053005099296,-0.05186863672672771,0.03897906140945852
1772650075043132400,3.08713232421875,0.06477379320561885,-0.004236861251620576,0.061209232591837644
1772650075053177600,3.097177490234375,0.07595861956477165,0.004624664125964045,0.09186820942349731
1772650075063221500,3.107221435546875,0.009878419935703276,-0.03303365180743858,0.12202245160341262
1772650075073265700,3.117265625,-0.08751052567064761,-0.03879896473535336,0.10112228691577911
1772650075083310800,3.127310791015625,-0.12968436453342436,-0.05192029384872876,0.10404095084145665
1772650075093355000,3.13735498046875,-0.07897942869067191,-0.015222493510553612,0.11052315246760845
1772650075103399000,3.14739892578125,0.053497781431674954,-0.03191539750038646,0.15045863781906663
1772650075113442800,3.15744287109375,0.15362404304742813,-0.015805846356460825,0.1730089078012854
1772650075123488000,3.167488037109375,0.19633856465816496,-0.025753349473001435,0.15227343215607106
1772650075133532000,3.177531982421875,0.1590752941906452,-0.039953660328965634,0.1062043394204229
1772650075143575800,3.187575927734375,0.10616495725810528,-0.025482743237540125,0.10268259503506123
1772650075153621000,3.19762109375,0.09771160168945789,-0.020346056202519683,0.10632482399493455
1772650075163665000,3.207664794921875,0.11823182714879513,-0.034511697603901846,0.09892514219768345
1772650075173708800,3.217708740234375,0.15067162298262118,-0.056029090007580815,0.07924903941228985
1772650075183754000,3.22775390625,0.1195224514812231,-0.0949583391922526,0.034091143237426874
1772650075193798000,3.2377978515625,0.040509705042839045,-0.11467135818824171,-0.040764045130088924
1772650075203842000,3.247842041015625,0.03509761686623096,-0.1153127522311639,-0.08867255518734454
1772650075213887000,3.257886962890625,0.039514264264702795,-0.14171587084978818,-0.05943951950557529
1772650075223931000,3.267930908203125,0.033380291554331774,-0.1336413219982758,-0.06308927418477833
1772650075233975000,3.27797509765625,0.018581950873136518,-0.12799554379680192,-0.03595233399942517
1772650075244020000,3.28802001953125,-0.04598492158353328,-0.08360592858069575,0.022113559065386652
1772650075254063900,3.29806396484375,-0.09755027364790439,-0.06981134898141027,0.014696633872389793
1772650075264108000,3.30810791015625,-0.17772914125621317,-0.032222109378979076,-0.006880845554918051
1772650075274153000,3.318153076171875,-0.28691724572777744,-0.07463997471425682,0.008211436571553349
1772650075284196900,3.32819677734375,-0.41544601048529145,-0.09404387296214699,0.023354352906718848
1772650075294241000,3.338240966796875,-0.42518005351424215,-0.07214248620956204,0.00839095785692334
1772650075304285000,3.348284912109375,-0.3582528816670179,-0.059801731280935924,0.015572832185029983
1772650075314329900,3.358329833984375,-0.165955701354146,-0.0571311649313895,0.056843511663004755
1772650075324374000,3.3683740234375,0.03477437626123428,-0.05961613644780591,0.08657426773384214
1772650075334418000,3.37841796875,0.16474106486737727,-0.07234439285667613,0.08127236193343997
1772650075344462800,3.388462890625,0.23645371742546556,-0.07654141528825276,0.06860058495216072
1772650075354507000,3.398507080078125,0.215883807605505,-0.08183485465440898,0.015664236795529723
1772650075364551000,3.408551025390625,0.1757587179660797,-0.0693220402276609,0.012771584093943238
1772650075374595800,3.418595947265625,0.16867665075063704,-0.07369283919041045,0.019035393729060886
1772650075384640000,3.428639892578125,0.18717676855921744,-0.07299018908008001,0.03384199078194797
1772650075394684000,3.438683837890625,0.19512334364950656,-0.060066400965955107,0.04406542476303875
1772650075404728800,3.448728759765625,0.14638766205310821,-0.03557268703207373,0.02605316353663802
1772650075414773000,3.45877294921875,0.08268179033994674,-0.0102068390393164,0.030694632666930555
1772650075424817000,3.46881689453125,0.06254384219646454,-0.018232973038684576,0.062494230901077384
1772650075434861800,3.47886181640625,0.10774375088214874,-0.0412195703452453,0.03797901752144098
1772650075444905700,3.48890576171875,0.14206395363509655,-0.06684738460928201,0.007938757110014558
1772650075454950000,3.498949951171875,0.15382804118692875,-0.07013683634242042,-0.029665654945373533
1772650075464994000,3.508994140625,0.15426643260419368,-0.07405605561276897,-0.0014922113191336392
1772650075475038700,3.519038818359375,0.11954992401003837,-0.08394428455643356,0.02104037687592208
1772650075485083000,3.529082763671875,0.05122399128079414,-0.06532912553343921,0.02352583701610565
1772650075495127000,3.539126953125,-0.014549918878078459,-0.07776729468824342,0.005690247530862689
1772650075505171700,3.549171630859375,-0.043435237100720406,-0.08233463000324555,-0.009109042998403311
1772650075515216000,3.5592158203125,-0.0583364536345005,-0.07098937978483737,-0.016317074681073428
1772650075525260000,3.569260009765625,-0.11024082839488983,-0.0645216450754553,-0.030549817368760702
1772650075535304700,3.5793046875,-0.1936445032685995,-0.04820320042120293,-0.032991146106272934
1772650075545348900,3.589348876953125,-0.20527064365446565,-0.02492903204464819,-0.02854782989658415
1772650075555393000,3.59939306640625,-0.17125146967470645,-0.014108568318746984,-0.013928718239814042
1772650075565437700,3.609437744140625,-0.11823241167068481,-0.013914662314997986,-0.03840615689232945
1772650075575481900,3.61948193359375,-0.027986323556303976,-0.0317046956254635,-0.05338051172755658
1772650075585526000,3.629526123046875,0.03804360719025135,-0.05968070328372996,-0.06502214194349944
1772650075595570700,3.63957080078125,0.06782675103545188,-0.04641340352813713,-0.10159633416831493
1772650075605614800,3.64961474609375,0.08895078760683536,-0.041408699709177016,-0.12154913500323891
1772650075615658800,3.65965869140625,0.10678630402684211,-0.08227739252382889,-0.09897687238492071
1772650075625704000,3.669703857421875,0.11289280420839785,-0.08187584425192326,-0.08984452157616615
1772650075635747800,3.679747802734375,0.14391922611296176,-0.0636081469597295,-0.09538644667752087
1772650075645791700,3.689791748046875,0.18823183057010173,-0.05769253427435178,-0.09409399571418761
1772650075655836000,3.6998359375,0.24039164139628408,-0.11213109912090002,-0.09268325213342904
1772650075665880800,3.709880859375,0.20605974820554254,-0.09650010700784623,-0.06958068203069269
1772650075675924700,3.7199248046875,0.10506664062738418,-0.055594292486621996,-0.03185929253213107
1772650075685969000,3.729968994140625,-0.02996902180612087,-0.04109082939904183,0.01767835309691727
1772650075696013800,3.740013916015625,-0.0942822117626667,-0.027687094014557077,0.04074643640816211
1772650075706057700,3.7500576171875,-0.1432072784513235,-0.02827479424201883,0.0571050852086395
1772650075716102000,3.760101806640625,-0.16236439886391163,-0.043057896254886874,0.06874759220741689
1772650075726146800,3.770146728515625,-0.15834230374097824,-0.027894992011040447,0.04617934817709028
1772650075736190700,3.780190673828125,-0.08819733889102935,-0.03751128127868287,0.04205065087452531
1772650075746235000,3.79023486328125,-0.04264028733074665,-0.06220036252103746,0.026870325138419866
1772650075756280000,3.800280029296875,0.008853168541193009,-0.06939646630389615,0.02873056605234742
1772650075766323700,3.81032373046875,0.030580431702733037,-0.09041820241142995,0.01823759441487491
1772650075776367900,3.820367919921875,0.010975567522644995,-0.08575439358516596,0.008616291045397519
1772650075786413000,3.8304130859375,0.03212532305717468,-0.09230104788281022,-0.030619959995523093
1772650075796456700,3.840456787109375,0.0540185904353857,-0.11101666247243992,-0.030054654262959956
1772650075806500900,3.8505009765625,0.05614215846061706,-0.1119496598730795,-0.08864413281045853
1772650075816544800,3.860544677734375,0.09984276849925518,-0.13699175580418668,-0.09556472585387528
1772650075826589700,3.870589599609375,0.133508306735754,-0.18466431081425397,-0.08746770944222808
1772650075836633900,3.8806337890625,0.10484627587497233,-0.1783711289541796,-0.109064624222368
1772650075846677800,3.890677734375,0.0674509034603834,-0.1544535892067477,-0.10628200776651502
1772650075856723000,3.900722900390625,0.10892448509931564,-0.10467031651986762,-0.029915464987978337
1772650075866766800,3.910766845703125,0.13105857549607752,-0.04898087026281282,0.015964607981592417
1772650075876810800,3.920810791015625,0.1050181253105402,-0.023264455266715958,0.04877813249863684
1772650075886856000,3.93085595703125,0.06371463954150676,-0.036193330547912045,0.026533713595196604
1772650075896899800,3.94089990234375,0.0676607468187809,-0.0470849095815327,0.04022036670744419
1772650075906943700,3.95094384765625,0.09456570487916469,-0.05875746465870179,0.0636189971473068
1772650075916989000,3.960989013671875,0.10740706627368926,-0.09351716394061223,0.057740825828909874
1772650075927032800,3.97103271484375,0.1118237136721611,-0.09768559046536683,0.07831409664973617
1772650075937076700,3.98107666015625,0.08709785321652888,-0.08848551731579936,0.08915295911543071
1772650075947122000,3.991121826171875,0.002183189257979393,-0.09248878900725394,0.07013276295550167
1772650075957166000,4.001166015625,-0.10143968230187893,-0.05215766453486867,0.09162263716459274
1772650075967209700,4.011209716796875,-0.10213000265359878,-0.0076444868711754675,0.10679850592128932
1772650075977254000,4.02125390625,-0.06392506742179394,-0.02840117426777724,0.10814612113796174
1772650075987299000,4.031299072265625,-0.02676058115363121,-0.05272257754178718,0.05723842926472425
1772650075997342700,4.0413427734375,-0.03233049024045467,-0.09517415563371032,-0.0037928894769400355
1772650076007387000,4.051386962890625,-0.045801381710171694,-0.12690717317136005,-0.07769684153422712
1772650076017432000,4.06143212890625,-0.05354337413907051,-0.14862174124810842,-0.13041004845947027
1772650076027475700,4.071475830078125,-0.014168810606002807,-0.14493432143963872,-0.12129632928594947
1772650076037520000,4.081519775390625,-0.01591594653427601,-0.10712213011877611,-0.06409596700929104
1772650076047565000,4.09156494140625,-0.024021511578559872,-0.06878944032145663,0.005802841059863567
1772650076057609000,4.10160888671875,-0.030666940942406653,-0.06827596524083056,0.042586438251659274
1772650076067652900,4.11165283203125,-0.010804302608966827,-0.10377151364977472,0.020521029176935553
1772650076077697800,4.12169775390625,0.010194646278023719,-0.10905535407052375,-0.014972016747668385
1772650076087741700,4.13174169921875,0.0573299069404602,-0.10455716586844063,-0.035477409964054823
1772650076097785600,4.14178564453125,0.11954349426925182,-0.10162899432890117,-0.029007921689003704
1772650076107829500,4.15182958984375,0.11514087539613246,-0.07172137472066097,0.0047683103803545235
1772650076117874700,4.161874755859375,0.08269698790907859,-0.05981870981520041,0.006797770381346345
1772650076127918800,4.1719189453125,0.009305003961920738,-0.047725143713830034,-0.008525324826315045
1772650076137962500,4.18196240234375,-0.01403320152759552,-0.033625717682763935,0.009510098079964517
1772650076148007700,4.192007568359375,0.008458031743764877,-0.004568540891399607,0.0201304954893887
1772650076158051800,4.2020517578125,-0.004825812721252441,0.05094704663609154,0.05108911285474896
1772650076168095500,4.212095458984375,-0.027396540969610212,0.051911863947100935,0.033252865782380105
1772650076178140700,4.222140625,-0.016675824990868567,0.015178681768290698,-0.009733604637533425
1772650076188184800,4.232184814453125,0.022618659043312072,-0.03271452112197876,-0.06178907830640673
1772650076198228500,4.242228515625,0.02374327915906906,-0.07538534058830701,-0.12511398787796496
1772650076208273700,4.252273681640625,0.04113572798669338,-0.06795448733465746,-0.12929521908536554
1772650076218317800,4.26231787109375,0.05462590867877006,-0.08097207294576801,-0.10253142306134104
1772650076228361700,4.27236181640625,0.10593348658978939,-0.07706798731246962,-0.07623392937481403
1772650076238405600,4.282405517578125,0.14497779525518417,-0.08010982096008956,-0.029543636000901458
1772650076248450800,4.292450927734375,0.1527232948154211,-0.08007062146086245,0.003163432466983795
1772650076258494700,4.30249462890625,0.1369891345888376,-0.10549884889903478,-0.012090543027222156
1772650076268538600,4.31253857421875,0.12160159584283828,-0.09603547603762708,0.04589139808118343
1772650076278583800,4.322583740234375,0.04961714060604572,-0.08694390476383268,0.10550576269701123
1772650076288627700,4.332627685546875,-0.01858545800447464,-0.04040630860044621,0.12276435601189732
1772650076298671600,4.342671630859375,-0.04707213229835033,-0.024543937150621784,0.13245397537723183
1772650076308716800,4.352716796875,-0.0548421817779541,-0.03201350584630854,0.14053469824120401
1772650076318760700,4.3627607421875,-0.05003448923528194,-0.03102295130584389,0.14822203787341712
1772650076328804600,4.3728046875,-0.08943769434094428,-0.03626615832210518,0.13327975867688654
1772650076338849800,4.382849853515625,-0.11159458109140395,-0.028984531680261716,0.13348974816575646
1772650076348893700,4.392893798828125,-0.03049976768195629,-0.028801548929326234,0.16346519971266388
1772650076358937900,4.402937744140625,0.05721358708441257,-0.001205256737070158,0.2114985782586038
1772650076368982500,4.412982421875,0.09453998591601848,0.039238716992642725,0.1976639680430293
1772650076379026700,4.423026611328125,0.0701437958061695,0.04162715563229285,0.15284516762942074
1772650076389070800,4.43307080078125,-0.028362755653262135,0.03248820155281573,0.09661854575574398
1772650076399114500,4.443114501953125,-0.1328764385730028,0.008549043628619983,0.0382147259734571
1772650076409159700,4.45315966796875,-0.14498539403975008,0.01935169313661754,-0.054417818886041636
1772650076419203800,4.463203857421875,-0.09708674778938294,0.008812873063422738,-0.06378901995196938
1772650076429247700,4.473247802734375,-0.032121231403946876,-0.01458377548190765,-0.07555369202569126
1772650076439292700,4.483292724609375,0.0002852466821670532,-0.00798695276645012,-0.09584566168710588
1772650076449336800,4.4933369140625,0.0674251844972372,-0.025453864202927796,-0.13603738682195543
1772650076459380700,4.503380615234375,0.11730828256309032,-0.07551317735221237,-0.12742723325639962
1772650076469425700,4.51342578125,0.14548808286488055,-0.08598819320788606,-0.10029752652943134
1772650076479469800,4.5234697265625,0.14643500832617282,-0.07395475066276266,-0.0715843500033021
1772650076489513700,4.533513671875,0.11176643052697181,-0.09332142217280343,-0.04325052818357944
1772650076499557600,4.5435576171875,0.07326455817520618,-0.08086020093597471,0.021758827343583104
1772650076509602800,4.553602783203125,0.05030687643587589,-0.03125407491428778,0.056066462875902646
1772650076519646700,4.563646728515625,0.0049169981360435485,-0.030475619621388613,0.06177300395444035
1772650076529690600,4.573690673828125,-0.009572130465507507,-0.018659016431029886,0.116220633456856
1772650076539735600,4.583735595703125,0.0416968690007925,-0.020916165974363684,0.14017127175629138
1772650076549779700,4.59377978515625,0.12938333576023578,-0.0373036938094534,0.15992884228006005
1772650076559824000,4.603823974609375,0.14059972630143164,-0.06977372038476169,0.1256692836731672
1772650076569868500,4.61386865234375,0.12919161258041859,-0.08527734152479097,0.09103270844742656
1772650076579912700,4.62391259765625,0.11480886696279048,-0.08083159589599817,0.11516023768372834
1772650076589956900,4.633956787109375,0.08679857800900935,-0.1007360640771687,0.10866013507470487
1772650076600001500,4.64400146484375,0.08363222293257713,-0.1311464912415482,0.07886566611789167
1772650076610045700,4.654045654296875,0.04744330369830131,-0.15729480398204176,0.06255246389433741
1772650076620089900,4.66408984375,-0.0328127207994461,-0.16379068707367403,0.04677534130886197
1772650076630134500,4.674134521484375,-0.08409867140054703,-0.11560772572290151,0.061933089886978265
1772650076640178700,4.6841787109375,-0.11963409516215323,-0.06483653797721489,0.10788155191764234
1772650076650222800,4.694222900390625,-0.11415244888067244,-0.011253964338917285,0.16237192458324134
1772650076660266800,4.704266845703125,-0.08797112891972064,0.005230137472134083,0.21923231431581078
1772650076670311700,4.714311767578125,-0.027822072905302045,-0.04570539225609973,0.21560937457829712
1772650076680355800,4.72435595703125,-0.014106266763806342,-0.06476456871954724,0.16509594271965325
1772650076690399700,4.734399658203125,0.019213819035887716,-0.07105789671009406,0.10808869186230004
1772650076700444700,4.744444580078125,0.0835550660431385,-0.04435543895186856,0.11354995294287801
1772650076710488600,4.754488525390625,0.1344330203652382,-0.05293550790641457,0.13514146089553833
1772650076720532700,4.76453271484375,0.1524316183924675,-0.07140254542930051,0.07615604183301329
1772650076730577700,4.77457763671875,0.17446224841475486,-0.13606668598167598,-0.006782207486033439
1772650076740621600,4.78462158203125,0.17361644524037836,-0.1647054455647245,-0.026932942045852542
1772650076750665700,4.794665771484375,0.10959259361922741,-0.16588594231987372,-0.008201061308011412
1772650076760710000,4.8047099609375,0.06726619454324245,-0.09281234013950451,0.023825769810751077
1772650076770754600,4.814754638671875,-0.012319383347034453,-0.01651665237378329,0.09422507474794983
1772650076780798700,4.824798828125,-0.06751987704336643,0.028121749971620737,0.13151311433054505
1772650076790843000,4.8348427734375,-0.10640578027665615,0.018897647492494434,0.10414273071549832
1772650076800887600,4.844887451171875,-0.14623627088367938,-0.04802791691953316,0.044559564955532545
1772650076810931700,4.854931640625,-0.18343407489955424,-0.08338840423934162,-0.05319324552714824
1772650076820975900,4.864975830078125,-0.13692366813719273,-0.08264458186840638,-0.10371624893173574
1772650076831020500,4.8750205078125,-0.04144143293499946,-0.07137037845905869,-0.09669489892758429
1772650076841064700,4.885064697265625,0.014503157126903534,-0.040361364347022026,-0.047594548737257714
1772650076851108600,4.895108642578125,0.05402969635128975,-0.011975246084481478,-0.02675532045662403
1772650076861153500,4.905153564453125,0.07548340326845646,-0.0385894045047462,-0.01863609221316874
1772650076871197700,4.91519775390625,0.0919552301198244,-0.07560889281164854,-0.04557349123843014
1772650076881241600,4.92524169921875,0.08820961385071277,-0.10650584311764687,-0.07899411480315029
1772650076891285800,4.93528564453125,0.05340834958255291,-0.12404230352584272,-0.08634016671702265
1772650076901330700,4.94533056640625,0.09049450991749763,-0.08798336734678595,-0.07383490540906787
1772650076911374600,4.95537451171875,0.12267068637907504,-0.05004944934239611,-0.06305953663364053
1772650076921418800,4.965418701171875,0.10562602807581424,-0.046974882468953726,0.010427870512008667
1772650076931463700,4.975463623046875,0.08089607596695422,-0.051984088933095335,0.012853855549916623
1772650076941507600,4.985507568359375,0.06593231559097766,-0.07737729072365909,0.004278554102033376
1772650076951551700,4.9955517578125,0.06743044519424438,-0.11934225434241816,-0.0058917614523321385
1772650076961596700,5.0055966796875,0.0584019200861454,-0.13174060294348747,0.0019826982498168944
1772650076971640600,5.015640625,0.025655250260233877,-0.12101712875207886,0.011498641548678279
1772650076981684700,5.025684814453125,0.0013736264407634734,-0.0928928762961179,0.034474662662297484
1772650076991729700,5.035729736328125,-0.015216273832321166,-0.06523777572186663,0.0887802533455193
1772650077001773600,5.045773681640625,-0.04981120187342167,-0.06136208506599068,0.11633958366140723
1772650077011817700,5.055817626953125,-0.11354863776862621,-0.05566743535464629,0.11463614074438809
1772650077021861600,5.065861572265625,-0.14502280344069005,-0.08893893277226016,0.09159925628900527
1772650077031906600,5.075906494140625,-0.13200725452303885,-0.08668030365789309,0.0747181910496205
1772650077041950700,5.08595068359375,-0.08425941492021083,-0.0987553751213476,0.06452573672868311
1772650077051994600,5.09599462890625,-0.01559036784172058,-0.11071405366351827,0.06032499710321426
1772650077062039600,5.10603955078125,0.05700199016034603,-0.09222553496118635,0.05433437838628888
1772650077072083200,5.116083251953125,0.08717617914974689,-0.11416669660173356,0.08532938223928213
1772650077082127000,5.126127197265625,0.10810966158509254,-0.11419879050673916,0.08788366983197629
1772650077092173000,5.136173095703125,0.09938742594718933,-0.07574735143426806,0.07288483814261854
1772650077102217200,5.14621728515625,0.080204586571455,-0.07145250378455967,0.10447466608360409
1772650077112261000,5.15626123046875,0.05842822357118129,-0.06974014690872281,0.10416560013443231
1772650077122306000,5.16630615234375,0.017776479709148404,-0.06836852976195514,0.06752316497899591
1772650077132350200,5.17635009765625,-0.03361117770075798,-0.07848402812285349,0.021889760246872902
1772650077142394000,5.18639404296875,-0.0425683911383152,-0.07184086378132924,-0.008031549960002302
1772650077152439000,5.19643896484375,-0.00480886158645153,-0.0591215761302039,0.004862418404594063
1772650077162483200,5.206483154296875,0.07441139012277126,-0.04276771310269832,-0.016659604508429765
1772650077172527000,5.216527099609375,0.1283709438472986,-0.043924975112732495,0.013367942551895976
1772650077182571300,5.2265712890625,0.11573533415794372,-0.036270277374796565,0.012519874355196952
1772650077192616200,5.2366162109375,0.06698503951430321,-0.01420846676295623,0.023056612069159745
1772650077202660000,5.24666015625,0.03883388078510761,-0.06600945421410724,0.02039820651486516
1772650077212704300,5.256704345703125,-0.04716682484447956,-0.0919005407905206,-0.008218450834229589
1772650077222749200,5.266749267578125,-0.08745850322246551,-0.12639750661617144,-0.03697407826259732
1772650077232793000,5.27679296875,-0.08445347618758678,-0.13988038078462703,-0.05730433410778641
1772650077242837200,5.286837158203125,-0.07043079605400562,-0.13214684565681964,-0.03736453888490796
1772650077252882200,5.296882080078125,-0.09684767833650111,-0.08234108714349568,-0.020446721831709144
1772650077262926000,5.306926025390625,-0.13840543112754822,-0.04405992660401389,0.04597834571227431
1772650077272970200,5.31697021484375,-0.14681202494502066,-0.03596915727006271,0.10661328554749488
1772650077283015000,5.327014892578125,-0.11365385170876979,-0.04864407605649903,0.10426014655008911
1772650077293059000,5.33705908203125,-0.08716390419006347,-0.060448769613355394,0.09244564398527144
1772650077303103200,5.347103271484375,-0.02441898646354675,-0.05615962105207145,0.13013605382367968
1772650077313147100,5.357147216796875,0.057359717556834215,-0.028997802153788506,0.13600574957467615
1772650077323192000,5.367192138671875,0.04483750511407852,-0.004171075139567256,0.13157843465171754
1772650077333236200,5.377236328125,0.01863280427753925,0.011855419097095728,0.12106610072664915
1772650077343280000,5.387280029296875,0.05813830071389675,-0.005841346439346671,0.1067686953049153
1772650077353325000,5.397324951171875,0.12558102086782455,-0.022427155059203504,0.06875701762288808
1772650077363369200,5.407369140625,0.14689151992201804,-0.014941840805113314,0.018392711911350487
1772650077373413000,5.4174130859375,0.10061316834986209,0.006875767521001398,0.008505889473482965
1772650077383458000,5.4274580078125,0.10507073228061199,0.005402772358991205,-0.013009046111628413
1772650077393502200,5.437502197265625,0.10247487056851387,-0.02646200006585568,-0.06052066580578684
1772650077403546000,5.447546142578125,0.14768705421388148,-0.040129108227416874,-0.08821611665673554
1772650077413591000,5.457591064453125,0.14708908832073211,-0.06638133800011128,-0.12035795245729386
1772650077423635200,5.46763525390625,0.10739771392345428,-0.05879504758957773,-0.13515044791959224
1772650077433679000,5.47767919921875,0.11640636528730391,-0.06493051813729107,-0.149640161043033
1772650077443723300,5.48772314453125,0.1449327870696783,-0.08909286295864731,-0.12910780675448477
1772650077453768000,5.497767822265625,0.1595768139719963,-0.09815481541231275,-0.10269662356041372
1772650077463812000,5.50781201171875,0.13168459843993185,-0.07631042867712676,-0.09984591030441224
1772650077473856300,5.517856201171875,0.0554477464556694,-0.05825396298281848,-0.057720805954188104
1772650077483901000,5.52790087890625,-0.03344868061542511,-0.010976700033806264,-0.0057046413823962205
1772650077493945000,5.537945068359375,-0.1667138262450695,0.01476527866180986,0.037950083687901495
1772650077503989200,5.5479892578125,-0.23711656524837016,0.03426978773996234,0.04977211197204887
1772650077514034000,5.558033935546875,-0.2341553773552179,0.04244739510715007,0.03834346691966056
1772650077524078000,5.568078125,-0.15090776982605456,0.023172310870699583,0.07176628244146704
1772650077534122200,5.578122314453125,-0.0181470665872097,0.009562266658619046,0.10491802593693136
1772650077544167200,5.588167236328125,0.04825462008118629,0.00016731939092278479,0.1146693123616278
1772650077554211000,5.598211181640625,0.08514613462686538,-0.014346614858321845,0.07175824526548386
1772650077564255200,5.608255126953125,0.09560264671146869,-0.030113435245491562,0.08748707172982394
1772650077574300200,5.618300048828125,0.03098550537228584,-0.01844572074022144,0.09617372459769248
1772650077584344000,5.628343994140625,0.014828151297569274,0.03224244663082063,0.12632014879733322
1772650077594388000,5.638387939453125,0.04745557865798473,0.04925879215504974,0.1562673971630633
1772650077604432100,5.64843212890625,0.06460837351083755,0.03295837634783238,0.1745894549909979
1772650077614477000,5.65847705078125,0.09346797277033328,0.020538784029334782,0.14184307742603122
1772650077624521000,5.66852099609375,0.10976152044534683,-0.027528460253588852,0.12651610976085065
1772650077634565000,5.678565185546875,0.09989654451310634,-0.08972257569693029,0.08310425353571772
1772650077644610000,5.688610107421875,0.11740998937189578,-0.07220240883640945,0.03306333455964923
1772650077654654000,5.698654052734375,0.14550620304346085,-0.07481686565112322,0.04986643919199705
1772650077664698000,5.708697998046875,0.14907880083322525,-0.050400399938225746,0.08234744381904602
1772650077674743300,5.718743408203125,0.09802256733477115,-0.013772541297413407,0.09718355922736227
1772650077684787000,5.728786865234375,-0.027318215036392212,-0.030879560779780147,0.09915661286599933
1772650077694831000,5.7388310546875,-0.09074176267683505,-0.02862557130791247,0.1143269286647439
1772650077704875300,5.748875244140625,-0.1039420205116272,-0.03370795260611922,0.10024974186494946
1772650077714920000,5.758919921875,-0.1023947910696268,-0.058143561410903925,0.06047010466232895
1772650077724964000,5.768964111328125,-0.050395723763108254,-0.04155453792065382,0.0005981120236217975
1772650077735008300,5.77900830078125,0.002838438296318054,-0.062162076337262985,0.002273205628991127
1772650077745053000,5.789052978515625,0.00024900632500648496,-0.04077906003613025,-0.019636209166422485
1772650077755097000,5.79909716796875,0.02769289356768131,-0.044570561273582276,-0.009625468087941407
1772650077765141000,5.80914111328125,0.04940788176953792,-0.033080358759686346,0.04640621573552489
1772650077775186200,5.819186279296875,0.10355097536742687,-0.011085019246488808,0.09758775611408055
1772650077785230000,5.82922998046875,0.14557576114833354,-0.00421498734652996,0.1151897560391575
1772650077795274000,5.83927392578125,0.16479191827178,-0.007960347887314855,0.08706037075035274
1772650077805319200,5.849319091796875,0.14561609315872193,-0.043982970643974835,0.051404389348998665
1772650077815363000,5.859363037109375,0.1120633676469326,-0.07388199595380573,0.032750323087722064
1772650077825407000,5.869406982421875,0.07184650807082653,-0.06673150314465165,-0.026169337262213228
1772650077835452200,5.8794521484375,0.053529930135607716,-0.03845039789285511,-0.010727657176181673
1772650077845496000,5.88949609375,0.0811713857769966,-0.02095737476758659,0.0420479474607855
1772650077855540000,5.8995400390625,0.08207154948711395,0.0022752149229869245,0.044506008137390016
1772650077865584000,5.909584228515625,0.020273557221889494,0.02178808997068554,0.033129093272238966
1772650077875629300,5.91962939453125,-0.008837970972061156,0.030039858552627263,-0.0023934710077941415
1772650077885673000,5.9296728515625,-0.017388357174396515,0.00624437428228557,0.016253580990806222
1772650077895717000,5.939717041015625,0.010036825367808342,-0.03513681636545807,0.02624751706495881
1772650077905762300,5.94976220703125,0.07028232749402523,-0.06234473942779004,-0.010878463823720812
1772650077915806000,5.959805908203125,0.11588380271792412,-0.07460117707382888,-0.0056583910878747696
1772650077925850000,5.96985009765625,0.08552665837705135,-0.06748918964415788,0.0145056413449347
1772650077935895300,5.979895263671875,0.0052688803136348725,-0.027633053139224647,0.026135215796902773
1772650077945939000,5.98993896484375,-0.04927870243191719,-0.025033940024115145,0.03855352947376668
1772650077955983000,5.999983154296875,-0.08358312309384346,-0.05556446817051619,0.03683744627088308
1772650077966028300,6.0100283203125,-0.08386720073223114,-0.06014255320839584,0.016562062418088316
1772650077976072200,6.020072265625,-0.042431028494238854,-0.05357402500566095,0.02868270832262933
1772650077986116000,6.0301162109375,-0.012938976550102232,-0.05044844033103436,0.03407740697301924
1772650077996160000,6.040159912109375,-0.025872692403197287,0.002897401941940188,0.047874900048598644
1772650078006205200,6.050205078125,-0.032302433189749714,0.004129208759218454,0.0855006471529603
1772650078016249000,6.0602490234375,0.00434007503092289,-0.01187474485207349,0.023885902500152587
1772650078026293000,6.07029296875,0.021955226698517797,-0.03805767224822193,0.014395897360146044
1772650078036338200,6.080338134765625,0.005993687456846237,-0.06577902472540736,-0.014414821256324649
1772650078046382000,6.090382080078125,-0.0513607694029808,-0.0655869362194091,-0.039126360925659534
1772650078056426000,6.100426025390625,-0.11646072582304477,-0.07211136955209076,-0.04149002131707966
1772650078066471200,6.11047119140625,-0.18560791180729866,-0.07386771170012653,-0.035998292033001776
1772650078076515800,6.120515869140625,-0.1590057360857725,-0.07209525866750627,-0.021763284322991967
1772650078086560000,6.13056005859375,-0.03158639387488365,-0.05752181278336793,0.0012072568979114293
1772650078096605200,6.140605224609375,0.14675532632172106,-0.06607475626897066,0.025227672497928143
1772650078106648800,6.15064892578125,0.24549217940568924,-0.054869581241533155,0.004474953456968069
1772650078116693000,6.16069287109375,0.2731605230540037,-0.07097089428007602,0.022288842567056415
1772650078126737200,6.170737060546875,0.3064572279781103,-0.07460526872705668,-0.0019571984823793173
1772650078136781800,6.18078173828125,0.3295066796541214,-0.07791669482998549,0.015601473757624626
1772650078146826000,6.190825927734375,0.32119010220766064,-0.05533657769877463,0.054864247479289766
1772650078156870000,6.200869873046875,0.25473697761297226,-0.04587908658888191,0.05988865151256322
1772650078166914800,6.210914794921875,0.15683891344070433,-0.04304601858742535,0.0672375529706478
1772650078176959000,6.220958984375,0.08027122206687927,-0.057317010926268994,0.04591434056535363
1772650078187003000,6.2310029296875,0.015346622213721274,-0.06910119141805916,-0.004311141197383403
1772650078197048000,6.241048095703125,-0.014593173497915267,-0.08115465383790432,-0.006996653954312205
1772650078207092000,6.251092041015625,-0.03825111246109009,-0.08771112627666443,-0.01180500408411026
1772650078217135900,6.261135986328125,-0.05632394476830959,-0.05476159082241356,0.008393222879245876
1772650078227180000,6.271179931640625,-0.07319149293899535,-0.03712050099596381,0.0586469808883965
1772650078237225000,6.281224853515625,-0.07087853982150555,0.00027023177612572907,0.0930671368844807
1772650078247268900,6.291268798828125,-0.09259235897958278,0.017257753064669666,0.10498225027956068
1772650078257313000,6.30131298828125,-0.11792261506915092,-0.028992249195836484,0.07318893565572798
1772650078267358000,6.31135791015625,-0.14626432793438435,-0.06816654091645032,0.02134191710576415
1772650078277401900,6.32140185546875,-0.1539297479957342,-0.10159180412366986,-0.020076719475537536
1772650078287446000,6.331446044921875,-0.12668226010799408,-0.14610530144777148,-0.05351407497934997
1772650078297491200,6.3414912109375,-0.04083002303838729,-0.15179540284816176,-0.05358297549709677
1772650078307534800,6.351534912109375,0.06303367154002189,-0.1316267307728529,-0.02307502450868487
1772650078317579000,6.3615791015625,0.13654314438700677,-0.11428761956766247,0.028918270644173023
1772650078327624200,6.371624267578125,0.20296645836532115,-0.07870693189222365,0.06057612232007086
1772650078337667800,6.381667724609375,0.14757482601106167,-0.06967606869656592,0.08287168688885867
1772650078347712000,6.3917119140625,0.049349429580569266,-0.07572345910202712,0.1061935257654637
1772650078357756000,6.401755859375,-0.03648176470100879,-0.08349811169151217,0.09546477261073887
1772650078367800800,6.41180078125,-0.05053951614797115,-0.07541797334942967,0.10369264886043965
1772650078377845000,6.421844970703125,-0.008456862699985504,-0.06978438790924847,0.08384761924892664
1772650078387889000,6.431888916015625,0.010869184538722038,-0.05408529899604618,0.10768091477900743
1772650078397934000,6.44193408203125,0.035980244919657706,-0.018185170107893646,0.10075199229866266
1772650078407978000,6.45197802734375,0.013424714240431785,-0.022626623154059052,0.0796679224114865
1772650078418022000,6.46202197265625,-0.021985037314891813,-0.005522599346376955,0.037625381778180596
1772650078428067000,6.472067138671875,-0.022674188622832298,-0.015293649917468427,-0.012008856093138455
1772650078438111000,6.482111083984375,0.01111351468861103,-0.020965850334987043,-0.030796047214791178
1772650078448155000,6.49215478515625,0.043833296507596965,-0.029860519930347797,-0.07183949380815029
1772650078458200000,6.502199951171875,0.08199263903200626,-0.05271470476258546,-0.08714636853337288
1772650078468244000,6.512243896484375,0.1331254448980093,-0.06974935312848538,-0.10243826488517224
1772650078478288000,6.522287841796875,0.12046119363605975,-0.06623122547231614,-0.060969067160412664
1772650078488332000,6.53233203125,0.07038461882472039,-0.059672707206942135,-0.04792736088819802
1772650078498377000,6.542376953125,0.045836453023552895,-0.06694671679791063,-0.03811513805650174
1772650078508420900,6.5524208984375,0.001132218900322914,-0.09291081381160765,-0.03132745067775249
1772650078518465000,6.562465087890625,-0.0019125556230545043,-0.09994918801579623,-0.0005821838021278381
1772650078528510200,6.57251025390625,0.019259411743283272,-0.12401610963866114,0.007442351895198225
1772650078538553900,6.582553955078125,-0.04762333644032478,-0.10910451784133911,0.011500979636237025
1772650078548598000,6.592597900390625,-0.09328969359397887,-0.11038487650807946,0.03460559556558728
1772650078558643200,6.602643310546875,-0.11363806961774825,-0.08095653744991868,0.059214916969463224
1772650078568686800,6.612686767578125,-0.11992635610699653,-0.04823690176140517,0.08046477187760173
1772650078578731000,6.62273095703125,-0.0701923111230135,-0.053787448560632764,0.07148710017390549
1772650078588776200,6.632776123046875,0.011789221993088721,-0.10869239337649196,0.0521020162243396
1772650078598820000,6.642820068359375,0.06691781949698924,-0.14109909065831452,0.029707521325722335
1772650078608864000,6.652864013671875,0.12412263875305651,-0.14501217244882136,0.017484291829541324
1772650078618908000,6.662907958984375,0.17305179709494112,-0.12404522613529115,0.07406323427222669
1772650078628953000,6.672953125,0.1530067879319191,-0.07539335036482661,0.1159573063455522
1772650078638997000,6.6829970703125,0.08102408626079559,-0.04779266512524336,0.1307026747304946
1772650078649041000,6.693041015625,0.013376198923587799,-0.05898494413848966,0.10913520524054765
1772650078659086000,6.703086181640625,-0.04503273542523384,-0.06086297643743455,0.09624233285449445
1772650078669130000,6.7131298828125,-0.09458148697018623,-0.07318389415442943,0.08804689756967127
1772650078679174000,6.723173828125,-0.07171557516753674,-0.05654573429282754,0.08663732303269207
1772650078689219000,6.733218994140625,0.030361820515990255,-0.04215820290222764,0.08284640631712972
1772650078699263000,6.743262939453125,0.14437982936203478,-0.05162077204603702,0.09051555270552634
1772650078709307000,6.753306884765625,0.1882248163074255,-0.05277019780948758,0.07698007156699896
1772650078719352000,6.76335205078125,0.149912913569808,-0.07704699932336807,0.03673997724577784
1772650078729396200,6.773396240234375,0.04079378268122673,-0.06787460876516997,0.02487440208084881
1772650078739439900,6.78343994140625,-0.04960428112447261,-0.059325501204468306,0.03468151034601032
1772650078749484000,6.793484130859375,-0.06123042151033878,-0.025470943201892075,0.044441345403343435
1772650078759529200,6.803529296875,-0.03816284965574741,0.014822890600562095,0.03867671746201813
1772650078769572900,6.81357275390625,-0.019253566524386406,0.000011288578994572162,0.05110496801100671
1772650078779617000,6.823616943359375,-0.03644786243140697,-0.018253668766841293,0.002051379571855068
1772650078789662000,6.833661865234375,-0.020973229923844337,-0.05680595613159239,-0.026108620050922033
1772650078799705900,6.843705810546875,0.026533786660432813,-0.07747402909640222,-0.04421571995392441
1772650078809750000,6.85375,0.11260171230733394,-0.08222301372177898,-0.05802614557631314
1772650078819795000,6.863794921875,0.17348317424952983,-0.0691526658769697,-0.010738397765904665
1772650078829839000,6.873839111328125,0.21965806544721125,-0.06473313240166753,0.03732004215605557
1772650078839883000,6.883883056640625,0.21687106507718562,-0.03952898690979927,0.06027860067822039
1772650078849928000,6.893927978515625,0.10589023196995258,-0.038333128188736736,0.0821988291285932
1772650078859972000,6.90397216796875,-0.04131809881627559,-0.03218662479035556,0.062219140286743635
1772650078870016000,6.91401611328125,-0.19975392605960368,-0.045675782569125294,0.025879560535401105
1772650078880060000,6.924059814453125,-0.24532675971090792,-0.062432308113388714,0.02127973858974874
1772650078890105000,6.93410498046875,-0.19548048652410507,-0.026751557596959172,0.05937770631574094
1772650078900149000,6.94414892578125,-0.10790858605504035,0.009399221584014595,0.11813223923183977
1772650078910193000,6.95419287109375,-0.0037719197541475295,0.0032144320018589493,0.14373013328164816
1772650078920238000,6.964238037109375,0.05766776059269905,-0.027301373499445617,0.14788615698255597
1772650078930282200,6.9742822265625,0.07956102797091007,-0.06583389671780168,0.09860431274548172
1772650078940326000,6.984325927734375,0.06700199064910412,-0.09628909460566937,0.07096526825688779
1772650078950371000,6.99437109375,0.05311258150637149,-0.07584533191602677,0.07180486088618636
1772650078960415000,7.0044150390625,0.059248892304301255,-0.07783551935255527,0.07229900107868015
1772650078970459000,7.014458984375,0.0818558609098196,-0.060284847755916415,0.051536710491776466
1772650078980504000,7.024504150390625,0.08402852877378464,-0.05025649795550853,0.05173720149993896
1772650078990548000,7.0345478515625,0.05645487767159939,-0.041314043695665895,0.0342587548892945
1772650079000592000,7.044591796875,-0.0346644861459732,-0.05864369295276701,0.007305573773011565
1772650079010636000,7.054635986328125,-0.07621990084946155,-0.0533259319961071,-0.04732603399418294
1772650079020681000,7.064680908203125,-0.028211364483833313,-0.058181409203261134,-0.06751870799958705
1772650079030725000,7.07472509765625,0.041888007658720014,-0.0773010471496731,-0.07047755780518054
1772650079040769000,7.08476904296875,0.11653905175626278,-0.07824037382639944,-0.0975504197783768
1772650079050814000,7.09481396484375,0.15021569590866565,-0.09056417762022465,-0.11003332312405109
1772650079060858000,7.104858154296875,0.17573825969994067,-0.09734393742084503,-0.12392850442044437
1772650079070901800,7.11490185546875,0.13694821805655955,-0.09882241247557103,-0.1242791444890201
1772650079080947000,7.124947021484375,0.006140986973047256,-0.11075111600458622,-0.10726239710599184
1772650079090990800,7.134990966796875,-0.04869301149845123,-0.06628397857286035,-0.12579079116098582
1772650079101034800,7.14503466796875,-0.0645060821801424,-0.02009045573994517,-0.043221375154331325
1772650079111080000,7.155079833984375,-0.05265139373540878,-0.034748401569761334,-0.004514481749758124
1772650079121123800,7.165123779296875,-0.024021511578559872,-0.0022455504370853304,0.03109269207380712
1772650079131168000,7.17516796875,-0.009008066841959953,0.004615202177874743,0.02750562736727297
1772650079141212000,7.1852119140625,0.027087913411855697,-0.026143910560011863,0.043634485999867315
1772650079151256800,7.1952568359375,0.05570785869657993,-0.06485876807533204,0.021679113170877097
1772650079161301000,7.205301025390625,0.09620002808272839,-0.09072188893258572,-0.009136442461982369
1772650079171345000,7.215344970703125,0.10779460428655147,-0.08903386278040706,0.020880802400037646
1772650079181389800,7.225389892578125,0.07051730529367924,-0.05093026903122663,0.04374116124473512
1772650079191434000,7.23543408203125,0.038490181913971896,-0.04619591571940109,0.038352234748005865
1772650079201478000,7.245477783203125,0.017377835780382156,-0.09836270427564159,0.02009206317514181
1772650079211522800,7.255522705078125,-0.003237666746973991,-0.11364393310295418,0.01417429049871862
1772650079221567000,7.26556689453125,0.038757892939448355,-0.14607101558567956,-0.018464315842837094
1772650079231611000,7.27561083984375,0.09141454737186432,-0.12448449433539062,0.0020827245581895113
1772650079241654800,7.28565478515625,0.1026081415593624,-0.08296080821072682,0.059205126227810975
1772650079251700000,7.295699951171875,0.04274959292411804,-0.07181963833020999,0.08334054650962353
1772650079261743900,7.305743896484375,-0.05276537550389766,-0.06107117582801729,0.06208192377313971
1772650079271787800,7.315787841796875,-0.17375556145012377,-0.0744066226161085,0.028902342422679066
1772650079281833000,7.3258330078125,-0.24104630591273307,-0.09075608346313238,-0.02668145150281489
1772650079291876900,7.335876953125,-0.1822200229346752,-0.09431231463998556,-0.029844226382672784
1772650079301920800,7.345920654296875,-0.05815291376113891,-0.08407410321487113,-0.02325060027129948
1772650079311966000,7.355966064453125,0.028664368948340416,-0.07855703856013715,-0.055604325256869196
1772650079322009900,7.366009765625,0.09379238241910934,-0.09236552795376628,-0.0726502987343818
1772650079332054000,7.376053955078125,0.1022030678898096,-0.09582903934586792,-0.09890957930237054
1772650079342099000,7.386098876953125,0.11374620616734027,-0.12379742538668215,-0.08585486741811037
1772650079352142800,7.396142822265625,0.12260638897120951,-0.13063806679537518,-0.09462832178659737
1772650079362187000,7.40618701171875,0.1485451323479414,-0.14233279717173428,-0.08992350509651005
1772650079372230700,7.416230712890625,0.15057693043649195,-0.11499425173336639,-0.0950410673059523
1772650079382275800,7.42627587890625,0.12830840000510216,-0.09827957430314271,-0.07471278422214091
1772650079392320000,7.436320068359375,0.11762041725218296,-0.06644863108266144,-0.09395787517912685
1772650079402364000,7.446364013671875,0.08131459363996982,-0.06528079287968576,-0.021194544524326918
1772650079412408800,7.456408935546875,0.025058453410863876,-0.06303847557930276,0.002354161910712719
1772650079422453000,7.466452880859375,0.02944412114918232,-0.035065888287406415,0.03665456398464739
1772650079432497000,7.476496826171875,0.07949673056304454,-0.020697792249638587,0.1009493415016681
1772650079442541800,7.486541748046875,0.08094751389324664,-0.011883494414109736,0.15956629257798194
1772650079452586000,7.4965859375,0.049209144327044485,-0.03172072431165725,0.16438187616616487
1772650079462630000,7.5066298828125,0.015137947899103164,-0.03088030969845131,0.15988682976923882
1772650079472674800,7.5166748046875,-0.030852818903326987,-0.03779799839872867,0.1606063031502068
1772650079482719000,7.526718994140625,-0.07224047582447528,-0.027122728996910154,0.14640293268747626
1772650079492763000,7.536762939453125,-0.08325403726994991,-0.01600143286064267,0.14625840965025125
1772650079502806800,7.546806884765625,-0.12536007159352303,-0.050328942137211556,0.07274703710712492
1772650079512852000,7.55685205078125,-0.16429682823121547,-0.10291075950143858,-0.02465593702457845
1772650079522896000,7.566895751953125,-0.1790004763662815,-0.10661467378698289,-0.08612411281354725
1772650079532940000,7.57693994140625,-0.1420353120625019,-0.12104005296994,-0.12359912633560598
1772650079542985000,7.58698486328125,-0.055340778949856756,-0.12925470441188663,-0.0791379071880132
1772650079553028900,7.59702880859375,0.06549217060804367,-0.10357302280245348,-0.04271057608798146
1772650079563073000,7.607072998046875,0.08684241715073585,-0.09984642176106572,-0.055362698520720004
1772650079573118000,7.617117919921875,0.05464402885735035,-0.0965701400367543,-0.029277824671566484
1772650079583161900,7.627161865234375,-0.027135844206809995,-0.09124289886569603,-0.036119141933694476
1772650079593206000,7.6372060546875,-0.0785135647445917,-0.0742070997223258,-0.022227248572930694
1772650079603251000,7.6472509765625,-0.05821662664711475,-0.053142903579398985,0.0006971884839236735
1772650079613294800,7.657294921875,-0.020710195073485375,-0.040025830516032875,0.042622532478347415
1772650079623339000,7.667339111328125,0.01280453651547432,-0.010431121915020047,0.04497786343283951
1772650079633383000,7.6773828125,0.07267769819796085,-0.014860519197210669,0.04287263478189707
1772650079643427800,7.687427734375,0.10537000748813152,-0.03521170823257416,0.02020999046638608
1772650079653472000,7.697471923828125,0.14828151297569275,-0.03176598822548985,0.009235884248465298
1772650079663516000,7.707515869140625,0.18626316084563732,-0.028969708570465443,0.02085018806606531
1772650079673560800,7.717560791015625,0.22424831584692,-0.044179662259854376,-0.006731938603520393
1772650079683605000,7.72760498046875,0.19890520027577877,-0.03245787947978824,-0.028467969593405723
1772650079693649000,7.73764892578125,0.12925941711962222,-0.022089411004818975,-0.038249943417310715
1772650079703693800,7.74769384765625,0.0883259337067604,-0.02310815959330648,-0.029559125830978153
1772650079713738000,7.757738037109375,0.05233049121797084,-0.04726984682753682,-0.03458104564622044
1772650079723782000,7.767781982421875,0.013289105162024497,-0.03944708078000694,-0.03227525292187929
1772650079733826800,7.777826904296875,-0.00542319409251213,-0.039504838849231595,-0.050741468460857864
1772650079743871000,7.78787109375,0.01862286740541458,-0.01702675732038915,-0.012190788531303405
1772650079753915000,7.797914794921875,0.010049684849381447,-0.005964899753779173,0.04010886915698647
1772650079763959000,7.807958984375,-0.03839607388973236,0.02213745139762759,0.025807518212497233
1772650079774004000,7.81800390625,-0.1201192483305931,0.019560732777416705,0.02099383432045579
1772650079784047900,7.8280478515625,-0.2062362738162279,0.023652057211659847,0.06075900460630655
1772650079794092000,7.838092041015625,-0.22024901707768438,0.051818376977369185,0.08199249290153383
1772650079804137000,7.848136962890625,-0.1512204890370369,0.0638020255640149,0.09764540458545089
1772650079814180900,7.858180908203125,-0.05270400070548057,0.033098332807794215,0.14234291670694946
1772650079824225000,7.86822509765625,0.039892449927330015,-0.02105115399826318,0.1525412162467837
1772650079834269700,7.878269775390625,0.07575871307849884,-0.0673340356150642,0.11194558648616075
1772650079844313900,7.88831396484375,0.07268938863575458,-0.06385718981735408,0.06421878967136144
1772650079854358000,7.89835791015625,-0.002827332380414009,-0.04775934737753123,0.10966185946315526
1772650079864402000,7.90840185546875,0.061951721522212025,0.01917516752593219,0.041778117543458934
1772650079874446800,7.91844677734375,0.16466040084660052,0.036298224827647205,0.04046133585646748
1772650079884491000,7.928490966796875,0.30123101776242256,0.0034592005431652068,0.0723182172358036
1772650079894535000,7.938534912109375,0.33136896639466284,0.002997245587222278,0.020784283223003148
1772650079904579800,7.948579833984375,0.2949363015323877,-0.04288509240467101,-0.011226911935210228
1772650079914624000,7.9586240234375,0.2399947510331869,-0.062022887062281366,-0.06096081078872084
1772650079924668000,7.96866796875,0.16601824519634245,-0.042738487008214,-0.08273717378899455
1772650079934712800,7.978712890625,0.10324936207234858,-0.05261139051858335,-0.09415507825165986
1772650079944757000,7.988757080078125,0.023267478340864182,-0.05894373534526676,-0.11560776225551962
1772650079954801000,7.99880078125,-0.0075333181142807,-0.08202157286554575,-0.15348098131492732
1772650079964845800,8.008845703125,-0.023702947148680684,-0.07794350977167487,-0.16561916287615894
1772650079974890000,8.018889892578125,-0.022853052321076393,-0.07623842288684099,-0.16089534922465681
1772650079984934000,8.028933837890625,0.018799977537989614,-0.06251246067751198,-0.13986074450239538
1772650079994978000,8.03897802734375,0.010883213064074516,-0.02033211900871247,-0.06921060660928488
1772650080005022700,8.049022705078125,-0.0493739794999361,0.003433408514782786,-0.01443725228384137
1772650080015067000,8.05906689453125,-0.16023557014167308,-0.019495631651952863,0.0003282090410590172
1772650080025111000,8.069111083984374,-0.21551380524933336,-0.010246632193587719,-0.006844751328229904
1772650080035155700,8.07915576171875,-0.15577566812336444,-0.028681247017905115,-0.009646803136914968
1772650080045200000,8.089199951171874,-0.03017477351129055,-0.01621178767569363,0.03249970932751894
1772650080055244000,8.099244140625,0.060919455865025514,-0.004825082068890333,0.07449892227575182
1772650080065288700,8.109288818359374,0.09730302088856696,0.0037988442936912176,0.11802490639984607
1772650080075332900,8.119332763671874,0.05281096821129322,0.028535701067373156,0.10836246730238198
1772650080085376800,8.129376708984376,-0.027570728492736816,0.0257539613943547,0.09015139556825161
1772650080095421700,8.139421630859376,-0.07829846068918704,0.015285466611012816,0.06848331524804234
1772650080105465900,8.1494658203125,-0.08212941715419292,-0.017247962323017417,0.0052476913951337335
1772650080115509800,8.159509765625,-0.04182429477274418,-0.010509155587293206,0.007212561727315187
1772650080125554000,8.169553955078126,0.02000584619641304,-0.012644925506971775,0.033528175592422486
1772650080135598800,8.179598876953126,0.0780827721118927,-0.015334383786655961,0.026520342656970022
1772650080145642800,8.189642822265625,0.10772037000656128,-0.009818871768191456,0.019111673835664988
1772650080155687000,8.19968701171875,0.1577992829054594,-0.014452413320355116,-0.0101040453851223
1772650080165731800,8.20973193359375,0.18877134427428244,-0.0354759121267125,0.011768617596477269
1772650080175775700,8.219775634765625,0.219259421518445,-0.03371050988938659,0.00903276289179921
1772650080185820000,8.22981982421875,0.21562077275514602,-0.027205036985501644,0.04127440580502152
1772650080195864600,8.239864501953125,0.18003975628614424,-0.015126184396073222,0.10990107504650949
1772650080205908700,8.24990869140625,0.10638766009807586,0.013011639927513897,0.1274802786178887
1772650080215953000,8.259952880859375,-0.01211129355430603,0.0073604822980239985,0.10211436669304966
1772650080225997600,8.26999755859375,-0.092452073726058,-0.008085252908617257,0.08685279241427779
1772650080236041700,8.280041748046875,-0.10745558159053326,0.0020555808229371906,0.08148293594419956
1772650080246086000,8.2900859375,-0.05135317061841488,0.00016987667419016361,0.06650266282483935
1772650080256129800,8.3001298828125,-0.05421966596543788,0.014511157770268618,0.022999913445860148
1772650080266174700,8.3101748046875,-0.01289864453971386,0.00536229421813041,-0.042886955568194385
1772650080276219000,8.320218994140625,0.025887305450439452,-0.01709521944671869,-0.06262903626188636
1772650080286262800,8.3302626953125,-0.005684475377202034,-0.057008054574951526,-0.055795536980032916
1772650080296307700,8.3403076171875,-0.16285598177313804,0.01957118110619485,-0.12794307382404804
1772650080306351900,8.350351806640624,-0.12681845370829103,0.14204053622689097,0.06575009089186787
1772650080316395800,8.360395751953124,0.020108722048997878,0.09817205880805849,0.14034882028028367
1772650080326440700,8.370440673828124,0.17961130174100398,-0.052464383263327176,-0.034164135408401484
1772650080336484900,8.38048486328125,0.2931464955061674,-0.16069642911907284,-0.12546090161949394
1772650080346528800,8.39052880859375,0.2642185071855783,-0.19649444933962076,-0.07507672216370702
1772650080356573000,8.400572998046876,0.1964905403494835,-0.12793525584377347,-0.06478840625286102
1772650080366617600,8.41061767578125,0.14326163898706434,-0.04010952674411237,-0.039112113204598425
1772650080376661800,8.420661865234376,0.10121931754946709,0.03879837108030915,0.07375467977970838
1772650080386706000,8.430705810546876,-0.07801438305079937,0.1019539154343307,0.152827924233675
1772650080396750600,8.44075048828125,-0.27524785072207447,0.12871526377294212,-0.016020137561112643
