time,seconds_elapsed,z,y,x
1772649232602583600,0.06858349609375,0.09208913147449493,-0.09803815931081772,-0.05388325825333595
1772649232612627700,0.078627685546875,0.09431221336126328,-0.1584271937608719,0.012418119236826897
1772649232622672600,0.088672607421875,0.10311662405729294,-0.22541473805904388,0.09074195474386215
1772649232632716500,0.098716552734375,0.12591169774532318,-0.290880024433136,0.15475554764270782
1772649232642760700,0.1087607421875,0.16490329802036285,-0.3296351432800293,0.21179567277431488
1772649232652804600,0.1188046875,0.22670866549015045,-0.3114567697048187,0.24253615736961365
1772649232662848800,0.128848876953125,0.2973783314228058,-0.23608079552650452,0.24944519996643066
1772649232672892700,0.138892578125,0.35869675874710083,-0.12676848471164703,0.22652631998062134
1772649232682936600,0.1489365234375,0.372098833322525,-0.0052654859609901905,0.16678842902183533
1772649232692980500,0.15898046875,0.3722969591617584,0.14080440998077393,0.09187681972980499
1772649232703024600,0.169024658203125,0.41170772910118103,0.3088165819644928,0.03326516970992088
1772649232713068800,0.17906884765625,0.44797903299331665,0.42026379704475403,-0.05184595659375191
1772649232723113500,0.189113525390625,0.48683425784111023,0.4486922323703766,-0.1320643573999405
1772649232733157600,0.19915771484375,0.47787728905677795,0.4287666976451874,-0.1746777594089508
1772649232743201800,0.209201904296875,0.4604932367801666,0.4177776873111725,-0.16638627648353577
1772649232753245700,0.21924560546875,0.4327395558357239,0.4174967110157013,-0.11607898771762848
1772649232763289600,0.22928955078125,0.3792017698287964,0.40534311532974243,-0.023206574842333794
1772649232773333500,0.23933349609375,0.3383311927318573,0.4208695590496063,0.08969783782958984
1772649232783377700,0.249377685546875,0.2876030504703522,0.4183608591556549,0.18406108021736145
1772649232793421800,0.259421875,0.23753082752227783,0.39170846343040466,0.2353184074163437
1772649232803465700,0.2694658203125,0.20416301488876343,0.3281603753566742,0.2197924554347992
1772649232813510700,0.2795107421875,0.19233675301074982,0.25888097286224365,0.17153942584991455
1772649232823554800,0.289554931640625,0.1616145372390747,0.24317923188209534,0.11074131727218628
1772649232833598700,0.2995986328125,0.14219705760478973,0.19652558863162994,0.06051945313811302
1772649232843642600,0.309642578125,0.11333104968070984,0.14242319762706757,0.012920243665575981
1772649232853686500,0.3196865234375,0.0787414088845253,0.16201095283031464,-0.03061487339437008
1772649232863730700,0.329730712890625,0.050075139850378036,0.18536262214183807,-0.08070094883441925
1772649232873774600,0.339774658203125,0.022727083414793015,0.18438933789730072,-0.11780216544866562
1772649232883818800,0.34981884765625,-0.019138075411319733,0.21405509114265442,-0.14247047901153564
1772649232893862700,0.359862548828125,-0.07759285718202591,0.24652114510536194,-0.1667526513338089
1772649232903906600,0.369906494140625,-0.1304243803024292,0.26385459303855896,-0.18584778904914856
1772649232913951700,0.37995166015625,-0.16171520948410034,0.2568413019180298,-0.21220074594020844
1772649232923995600,0.38999560546875,-0.18620164692401886,0.22913378477096558,-0.25499799847602844
1772649232934039600,0.40003955078125,-0.19313684105873108,0.17282047867774963,-0.3377659320831299
1772649232944083700,0.410083740234375,-0.1983068287372589,0.10491758584976196,-0.4055476188659668
1772649232954127600,0.420127685546875,-0.18547295033931732,0.1238311380147934,-0.3726026713848114
1772649232964171800,0.430171875,-0.11019258201122284,0.19092336297035217,-0.2578262686729431
1772649232974215700,0.440215576171875,-0.032970868051052094,0.2574935555458069,-0.1128275990486145
1772649232984259600,0.450259521484375,0.01498280931264162,0.28226813673973083,0.0003341058036312461
1772649232994303700,0.4603037109375,0.11855216324329376,0.15273910760879517,0.06447035074234009
1772649233004348700,0.4703486328125,0.27952027320861816,0.0850364938378334,0.023581236600875854
1772649233014392600,0.480392578125,0.3763020932674408,0.12715260684490204,-0.024279411882162094
1772649233024436700,0.490436767578125,0.42570585012435913,0.02865905500948429,-0.08047637343406677
1772649233034480600,0.500480712890625,0.4417065680027008,-0.10351763665676117,-0.12436376512050629
1772649233044524500,0.510524658203125,0.4188750088214874,-0.1508960723876953,-0.11061972379684448
1772649233054568400,0.520568359375,0.3987188935279846,-0.16584867238998413,-0.047207966446876526
1772649233064612600,0.530612548828125,0.3971010148525238,-0.1897907555103302,0.024067813530564308
1772649233074656800,0.54065673828125,0.31088709831237793,-0.23431871831417084,0.058912038803100586
1772649233084700700,0.55070068359375,0.18236346542835236,-0.30412551760673523,0.06649485975503922
1772649233094744600,0.56074462890625,0.08974236994981766,-0.3028930425643921,0.0579708106815815
1772649233104789800,0.570789794921875,0.04590221494436264,-0.20477257668972015,0.0379965677857399
1772649233114833700,0.580833740234375,0.02464267611503601,-0.05945007503032684,0.01249255333095789
1772649233124877600,0.590877685546875,0.03848205879330635,0.056620605289936066,-0.032508209347724915
1772649233134921500,0.60092138671875,0.1499246209859848,0.00849122554063797,-0.0641016885638237
1772649233144965600,0.610965576171875,0.2723439931869507,0.05999302864074707,-0.11610016971826553
1772649233155009800,0.621009765625,0.27798643708229065,0.049021076411008835,-0.1167217567563057
1772649233165053700,0.6310537109375,0.179983451962471,-0.012608999386429787,-0.09091492742300034
1772649233175097600,0.64109765625,0.1416923999786377,-0.1339896321296692,-0.07117075473070145
1772649233185141500,0.6511416015625,0.19116941094398499,-0.21714338660240173,-0.06259085237979889
1772649233195186700,0.661186767578125,0.23713019490242004,-0.21617476642131805,-0.03250650316476822
1772649233205230600,0.671230712890625,0.2318030744791031,-0.25410351157188416,0.05098439380526543
1772649233215274500,0.6812744140625,0.19555525481700897,-0.3019345700740814,0.14173944294452667
1772649233225318700,0.691318603515625,0.1587785929441452,-0.3068997859954834,0.19250807166099548
1772649233235362600,0.701362548828125,0.11540687829256058,-0.25122809410095215,0.16547997295856476
1772649233245406000,0.711406005859375,0.04966701567173004,-0.12019950896501541,0.08845071494579315
1772649233255449900,0.721449951171875,-0.00033256999449804425,0.08595702797174454,-0.018425628542900085
1772649233265493800,0.73149365234375,-0.017930738627910614,0.31193023920059204,-0.13871873915195465
1772649233275538000,0.741537841796875,-0.020219337195158005,0.4317670464515686,-0.2357473373413086
1772649233285581800,0.751581787109375,-0.01353959646075964,0.4198733866214752,-0.25352632999420166
1772649233295626800,0.761626708984375,-0.025232290849089622,0.3423711955547333,-0.173977330327034
1772649233305671000,0.7716708984375,-0.029173769056797028,0.21758373081684113,-0.04889397323131561
1772649233315714800,0.78171484375,0.004289666190743446,0.01611277274787426,0.0810045450925827
1772649233325759000,0.791759033203125,0.02458242140710354,-0.10513696074485779,0.19786565005779266
1772649233335803000,0.801802978515625,0.030945900827646255,-0.1379527896642685,0.2614501714706421
1772649233345846800,0.8118466796875,0.05089723691344261,-0.11591567099094391,0.3086419105529785
1772649233355891000,0.821890869140625,0.11055151373147964,-0.09983257204294205,0.36271607875823975
1772649233365934800,0.831934814453125,0.13853707909584045,-0.04143025353550911,0.4135536849498749
1772649233375979000,0.84197900390625,0.14126528799533844,0.003846333362162113,0.4162881076335907
1772649233386024000,0.85202392578125,0.1600634753704071,-0.017170000821352005,0.38351792097091675
1772649233396067800,0.86206787109375,0.13886889815330505,-0.0069433823227882385,0.3299117982387543
1772649233406112000,0.872112060546875,0.12364760786294937,0.016731321811676025,0.2624134421348572
1772649233416156000,0.882156005859375,0.11145997047424316,0.04177975654602051,0.2239813357591629
1772649233426199800,0.89219970703125,0.08134734630584717,0.03310157731175423,0.19917665421962738
1772649233436243700,0.90224365234375,-0.05557890608906746,0.0064355796203017235,0.18721553683280945
1772649233446288000,0.912287841796875,-0.17199765145778656,-0.04637090861797333,0.168756902217865
1772649233456332000,0.92233203125,-0.14078007638454437,-0.22151225805282593,0.07085102051496506
1772649233466376000,0.9323759765625,-0.09132304042577744,-0.2799507975578308,-0.04508890211582184
1772649233476420900,0.9424208984375,-0.09684988111257553,-0.22915461659431458,-0.0904945582151413
1772649233486465000,0.952465087890625,-0.13918481767177582,-0.18217618763446808,-0.07598166912794113
1772649233496509000,0.962509033203125,-0.19007787108421326,-0.16282866895198822,-0.0689796656370163
1772649233506552800,0.972552734375,-0.22119291126728058,-0.1873031109571457,-0.10031309723854065
1772649233516596700,0.9825966796875,-0.21517644822597504,-0.24703596532344818,-0.14767061173915863
1772649233526641000,0.992640869140625,-0.18210585415363312,-0.2854970395565033,-0.20188617706298828
1772649233536685000,1.00268505859375,-0.14313028752803802,-0.325953871011734,-0.280398428440094
1772649233546729000,1.01272900390625,-0.11798606067895889,-0.39905792474746704,-0.3788118362426758
1772649233556772900,1.02277294921875,-0.10471571981906891,-0.4468017816543579,-0.48005548119544983
1772649233566816800,1.032816650390625,-0.08740277588367462,-0.4774555563926697,-0.5110906362533569
1772649233576862000,1.042862060546875,-0.0826643779873848,-0.45493265986442566,-0.4479992389678955
1772649233586905900,1.05290576171875,-0.08618614077568054,-0.4150981605052948,-0.33510810136795044
1772649233596949800,1.06294970703125,-0.09395180642604828,-0.3690732717514038,-0.21920602023601532
1772649233606994000,1.072993896484375,-0.10521591454744339,-0.3172260522842407,-0.13227325677871704
1772649233617037800,1.083037841796875,-0.12190765142440796,-0.2624042332172394,-0.09498338401317596
1772649233627082000,1.09308203125,-0.14679782092571259,-0.22831735014915466,-0.11576962471008301
1772649233637126000,1.1031259765625,-0.1599457561969757,-0.21436288952827454,-0.18333129584789276
1772649233647169800,1.113169677734375,-0.16536928713321686,-0.19555377960205078,-0.24998381733894348
1772649233657214000,1.1232138671875,-0.1667732149362564,-0.17332550883293152,-0.32013586163520813
1772649233667259000,1.1332587890625,-0.19059625267982483,-0.1507032811641693,-0.3707053065299988
1772649233677302800,1.143302734375,-0.2100769579410553,-0.1654539257287979,-0.3898041844367981
1772649233687347000,1.153346923828125,-0.24075764417648315,-0.13094735145568848,-0.37139296531677246
1772649233697390800,1.163390869140625,-0.2577266991138458,-0.1122085303068161,-0.330098956823349
1772649233707435000,1.17343505859375,-0.2555796504020691,-0.07899677753448486,-0.2742210328578949
1772649233717479000,1.18347900390625,-0.22989501059055328,-0.08422724902629852,-0.20039789378643036
1772649233727522800,1.193522705078125,-0.20102235674858093,-0.06924883276224136,-0.11195031553506851
1772649233737567000,1.20356689453125,-0.1817535012960434,-0.09070349484682083,-0.0428774394094944
1772649233747611000,1.21361083984375,-0.13397133350372314,-0.14088304340839386,0.01187821663916111
1772649233757654800,1.22365478515625,-0.07475856691598892,-0.10075999796390533,0.030551914125680923
1772649233767700000,1.233699951171875,-0.025062385946512222,-0.08054394274950027,-0.016268322244286537
1772649233777744000,1.243743896484375,0.0019165553385391831,-0.054851286113262177,-0.08908580988645554
1772649233787788000,1.2537880859375,0.032636385411024094,0.012271024286746979,-0.1292359083890915
1772649233797831700,1.263831787109375,0.05717306584119797,0.09025803953409195,-0.11293082684278488
1772649233807875800,1.273875732421875,0.07406815886497498,0.1282230019569397,-0.06574653089046478
1772649233817920000,1.283919921875,0.07390893250703812,0.20057028532028198,0.0000885471235960722
1772649233827964000,1.2939638671875,0.07328388839960098,0.2549179494380951,0.04227647930383682
1772649233838007800,1.3040078125,0.059295639395713806,0.28319886326789856,0.041220538318157196
1772649233848051700,1.3140517578125,0.03850673511624336,0.2901422381401062,-0.014208899810910225
1772649233858097000,1.324096923828125,0.05060679465532303,0.30447322130203247,-0.03552321344614029
1772649233868141000,1.33414111328125,0.06557615846395493,0.3151373267173767,-0.05082893371582031
1772649233878184700,1.344184814453125,0.03814791515469551,0.3085483908653259,-0.05808134749531746
1772649233888228900,1.354228759765625,0.014988536015152931,0.2971695065498352,-0.05622299388051033
1772649233898273000,1.36427294921875,0.015309895388782024,0.28636831045150757,-0.05301535129547119
1772649233908317000,1.37431689453125,0.03232616186141968,0.27410897612571716,-0.05323319509625435
1772649233918360800,1.38436083984375,0.047237079590559006,0.25941428542137146,-0.06910691410303116
1772649233928404700,1.39440478515625,0.05405290797352791,0.24948923289775848,-0.10028267651796341
1772649233938449000,1.404448974609375,0.04701383411884308,0.21455982327461243,-0.1478801816701889
1772649233948493000,1.4144931640625,0.03065856359899044,0.1537204384803772,-0.20928388833999634
1772649233958537700,1.424537841796875,0.007087367121130228,0.09466827660799026,-0.2536413073539734
1772649233968582000,1.434581787109375,-0.010715065523982048,0.05518238618969917,-0.2790805995464325
1772649233978625800,1.444625732421875,-0.025891246274113655,0.012542127631604671,-0.2723500430583954
1772649233988670000,1.454669921875,-0.05887342989444733,-0.008282726630568504,-0.2491147369146347
1772649233998713900,1.4647138671875,-0.08546718955039978,-0.021618012338876724,-0.2122623771429062
1772649234008757800,1.4747578125,-0.08956766128540039,-0.027775507420301437,-0.18114840984344482
1772649234018802000,1.484802001953125,-0.08207917213439941,-0.018512573093175888,-0.17206726968288422
1772649234028845800,1.494845703125,-0.05522917956113815,-0.0036758375354111195,-0.19217094779014587
1772649234038890000,1.504889892578125,-0.040280893445014954,0.011463739909231663,-0.23237864673137665
1772649234048934000,1.514933837890625,-0.044675376266241074,-0.018288295716047287,-0.27644380927085876
1772649234058978800,1.524978759765625,-0.051301997154951096,-0.06992656737565994,-0.28219708800315857
1772649234069023000,1.53502294921875,-0.038773421198129654,-0.10106344521045685,-0.23493719100952148
1772649234079067000,1.54506689453125,-0.022674275562167168,-0.10985515266656876,-0.14495068788528442
1772649234089110800,1.55511083984375,-0.02600589022040367,-0.08625687658786774,-0.03357142582535744
1772649234099155000,1.565155029296875,-0.059295229613780975,-0.050851788371801376,0.052741557359695435
1772649234109198800,1.57519873046875,-0.1022682636976242,-0.04262102395296097,0.10307849943637848
1772649234119243000,1.585242919921875,-0.15035179257392883,-0.05717451497912407,0.1240234375
1772649234129287000,1.595286865234375,-0.16561384499073029,-0.05072886869311333,0.1263161450624466
1772649234139330800,1.605330810546875,-0.15200144052505493,-0.015755902975797653,0.10747122764587402
1772649234149375000,1.615375,-0.12830489873886108,-0.00019345572218298912,0.09576902538537979
1772649234159419600,1.625419677734375,-0.09531834721565247,-0.010859368368983269,0.0982508659362793
1772649234169463800,1.6354638671875,-0.0529479905962944,-0.0158099178224802,0.10841801762580872
1772649234179508000,1.645508056640625,-0.015534728765487671,-0.029669396579265594,0.114437535405159
1772649234189551900,1.6555517578125,0.010745344683527946,-0.06606841832399368,0.10888617485761642
1772649234199596000,1.665595947265625,0.023837493732571602,-0.10059259831905365,0.09167315065860748
1772649234209639700,1.6756396484375,0.030117494985461235,-0.10545925796031952,0.05971867963671684
1772649234219683800,1.685683837890625,0.022990021854639053,-0.08856983482837677,0.019949443638324738
1772649234229728000,1.69572802734375,0.015554209239780903,-0.0727194994688034,-0.02510431781411171
1772649234239772000,1.70577197265625,0.021043594926595688,-0.08240538835525513,-0.043612927198410034
1772649234249817300,1.7158173828125,0.03575143590569496,-0.08322138339281082,-0.03004252351820469
1772649234259861200,1.725861328125,0.05385899171233177,-0.07354684174060822,-0.004976477939635515
1772649234269905400,1.735905517578125,0.061818648129701614,-0.06380659341812134,0.006461000069975853
1772649234279949300,1.74594921875,0.0600048266351223,-0.04477716609835625,0.0017807477852329612
1772649234289993200,1.7559931640625,0.06319795548915863,-0.02398666925728321,-0.012490866705775261
1772649234300037400,1.766037353515625,0.06217781826853752,-0.005676647648215294,-0.04028293490409851
1772649234310081300,1.776081298828125,0.06263535469770432,0.015758870169520378,-0.06745623052120209
1772649234320125400,1.78612548828125,0.06561625003814697,0.025314936414361,-0.09109241515398026
1772649234330169000,1.796169189453125,0.06551291793584824,0.018059952184557915,-0.10144252330064774
1772649234340213200,1.806213134765625,0.059911951422691345,0.007347469218075275,-0.1104327142238617
1772649234350258400,1.816258544921875,0.059249624609947205,-0.019683614373207092,-0.12254157662391663
1772649234360302300,1.82630224609375,0.062215011566877365,-0.04080547019839287,-0.13166505098342896
1772649234370346200,1.83634619140625,0.06418361514806747,-0.055955927819013596,-0.13490930199623108
1772649234380390400,1.846390380859375,0.06692163646221161,-0.057593125849962234,-0.1314379870891571
1772649234390434300,1.856434326171875,0.06512001156806946,-0.03520206734538078,-0.11158198118209839
1772649234400478500,1.866478515625,0.05909721553325653,-0.006481280084699392,-0.08715012669563293
1772649234410522000,1.876522216796875,0.04905656352639198,0.0059029520489275455,-0.07129286974668503
1772649234420566300,1.886566162109375,0.039731401950120926,0.003752138465642929,-0.05976088345050812
1772649234430610400,1.8966103515625,0.02759537845849991,0.0013371845707297325,-0.05141400545835495
1772649234440654300,1.906654296875,0.01075006928294897,-0.005142039153724909,-0.05238283425569534
1772649234450699300,1.91669921875,0.0028340895660221577,-0.011387950740754604,-0.053891249001026154
1772649234460743200,1.9267431640625,0.005423514172434807,-0.0010188017040491104,-0.052874043583869934
1772649234470787300,1.936787353515625,0.0065100840292871,0.007746193557977676,-0.055220287293195724
1772649234480831500,1.94683154296875,0.013103858567774296,0.01282704621553421,-0.06278234720230103
1772649234490875100,1.956875244140625,0.010900093242526054,0.024161458015441895,-0.07622545212507248
1772649234500919300,1.966919189453125,0.002311659511178732,0.03513650968670845,-0.09771203994750977
1772649234510963200,1.976963134765625,0.0011659673182293773,0.05090615153312683,-0.11072637140750885
1772649234521007400,1.98700732421875,-0.0047982665710151196,0.06560474634170532,-0.10246191173791885
1772649234531051500,1.997051513671875,-0.010579989291727543,0.06543563306331635,-0.09162045270204544
1772649234541096200,2.00709619140625,-0.022913692519068718,0.034159012138843536,-0.0752972960472107
1772649234551140400,2.017140380859375,-0.03346593305468559,-0.028382929041981697,-0.05074188858270645
1772649234561184500,2.0271845703125,-0.03952738270163536,-0.07619229704141617,-0.017602911219000816
1772649234571228200,2.037228271484375,-0.04426940530538559,-0.11407975852489471,0.023004701361060143
1772649234581272300,2.047272216796875,-0.04809874668717384,-0.13047780096530914,0.05242295190691948
1772649234591316200,2.057316162109375,-0.04584437981247902,-0.10245441645383835,0.061412449926137924
1772649234601360400,2.0673603515625,-0.031402338296175,-0.05830054730176926,0.05515005439519882
1772649234611404500,2.077404541015625,-0.009028056636452675,-0.030020706355571747,0.05635859817266464
1772649234621448200,2.0874482421875,0.009501631371676922,-0.006358326878398657,0.06371612846851349
1772649234631492400,2.097492431640625,0.022792669013142586,0.009680294431746006,0.06978600472211838
1772649234641537300,2.107537353515625,0.030916376039385796,0.013487548567354679,0.08391806483268738
1772649234651581200,2.117581298828125,0.03688079118728638,0.01367716584354639,0.09900913387537003
1772649234661625300,2.127625244140625,0.03850107640028,0.016225658357143402,0.1022154912352562
1772649234671669200,2.137669189453125,0.04200552776455879,0.016861088573932648,0.08954869955778122
1772649234681713400,2.14771337890625,0.03258516639471054,0.015736129134893417,0.061863888055086136
1772649234691757300,2.15775732421875,0.02939976006746292,0.031133728101849556,0.02757195755839348
1772649234701801200,2.16780126953125,0.03566070646047592,0.07156972587108612,-0.010914236307144165
1772649234711845400,2.177845458984375,0.041702352464199066,0.11957266926765442,-0.0646059662103653
1772649234721889300,2.18788916015625,0.04827400669455528,0.1578177511692047,-0.11420831829309464
1772649234731933400,2.197933349609375,0.06871030479669571,0.17269150912761688,-0.1455494612455368
1772649234741978400,2.207978271484375,0.09507512301206589,0.17800351977348328,-0.15156395733356476
1772649234752022300,2.218022216796875,0.11826778948307037,0.1770983189344406,-0.1524910032749176
1772649234762066400,2.22806640625,0.13210825622081757,0.17699244618415833,-0.1428065150976181
1772649234772110300,2.2381103515625,0.16596928238868713,0.2044520229101181,-0.10209822654724121
1772649234782154200,2.248154296875,0.1909046471118927,0.21571822464466095,-0.069396011531353
1772649234792198400,2.258198486328125,0.21138781309127808,0.2329225242137909,-0.017168762162327766
1772649234802242300,2.2682421875,0.20992234349250793,0.2292776256799698,0.03631752356886864
1772649234812286500,2.278286376953125,0.21546518802642822,0.25425195693969727,0.08271165192127228
1772649234822330000,2.288330078125,0.2228032350540161,0.2964436113834381,0.10192585736513138
1772649234832374300,2.298374267578125,0.22881931066513062,0.3382030427455902,0.0880712941288948
1772649234842419500,2.30841943359375,0.22872011363506317,0.3766181468963623,0.06236647441983223
1772649234852463400,2.31846337890625,0.21667276322841644,0.38635918498039246,0.02987297996878624
1772649234862507300,2.32850732421875,0.2064206898212433,0.359665185213089,0.011084992438554764
1772649234872551200,2.33855126953125,0.19263003766536713,0.31735101342201233,0.016377225518226624
1772649234882595300,2.34859521484375,0.18039047718048096,0.2694469690322876,0.03414449095726013
1772649234892639500,2.358639404296875,0.17948926985263824,0.21624846756458282,0.04987924546003342
1772649234902683100,2.36868310546875,0.17972472310066223,0.17491856217384338,0.05107482150197029
1772649234912727300,2.378727294921875,0.17853881418704987,0.13867853581905365,0.028510920703411102
1772649234922771200,2.388771240234375,0.16856235265731812,0.06901982426643372,-0.00664094090461731
1772649234932815400,2.3988154296875,0.1487707942724228,-0.03639554604887962,-0.02674620971083641
1772649234942860300,2.4088603515625,0.13296227157115936,-0.12807247042655945,-0.02488039806485176
1772649234952904200,2.418904296875,0.11906057596206665,-0.19625018537044525,-0.012524662539362907
1772649234962948400,2.4289482421875,0.12872348725795746,-0.24803487956523895,-0.0013585994020104408
1772649234972992500,2.438992431640625,0.14355435967445374,-0.27734801173210144,0.004621794912964106
1772649234983036200,2.4490361328125,0.160914808511734,-0.2970694899559021,-0.002748730592429638
1772649234993080300,2.459080322265625,0.1706707775592804,-0.32028481364250183,-0.012343301437795162
1772649235003124200,2.469124267578125,0.17859984934329987,-0.32435280084609985,-0.030102510005235672
1772649235013168400,2.47916845703125,0.18491633236408234,-0.2969494163990021,-0.05332154780626297
1772649235023212300,2.48921240234375,0.19228123128414154,-0.2501530647277832,-0.07072626054286957
1772649235033256200,2.499256103515625,0.20135408639907837,-0.1847468912601471,-0.06172850728034973
1772649235043301400,2.50930126953125,0.19489173591136932,-0.0951976552605629,-0.05831657350063324
1772649235053345300,2.51934521484375,0.1716545969247818,-0.02854086086153984,-0.06732844561338425
1772649235063389200,2.52938916015625,0.14516706764698029,0.021059192717075348,-0.07864317297935486
1772649235073433300,2.539433349609375,0.11838152259588242,0.053773730993270874,-0.0929560661315918
1772649235083477200,2.549477294921875,0.08562804758548737,0.04249580577015877,-0.09269540011882782
1772649235093521400,2.559521484375,0.05466827377676964,0.0029262928292155266,-0.08744870126247406
1772649235103565300,2.5695654296875,0.04404838755726814,-0.0545460544526577,-0.0659673810005188
1772649235113609200,2.579609130859375,0.04756748676300049,-0.1225738376379013,-0.03177239000797272
1772649235123653400,2.5896533203125,0.040081389248371124,-0.15362977981567383,-0.005269360728561878
1772649235133697300,2.599697265625,0.02122700959444046,-0.1636882722377777,-0.012037252075970173
1772649235143742200,2.6097421875,0.0066187409684062,-0.14687561988830566,-0.038853831589221954
1772649235153786400,2.619786376953125,-0.014071090146899223,-0.11225957423448563,-0.0602339543402195
1772649235163830300,2.629830322265625,-0.030646059662103653,-0.09028582274913788,-0.06272430717945099
1772649235173874400,2.63987451171875,-0.04633554443717003,-0.07276328653097153,-0.04450615122914314
1772649235183918300,2.64991845703125,-0.054924238473176956,-0.07396996021270752,-0.0260270107537508
1772649235193962200,2.659962158203125,-0.07522311061620712,-0.0503796823322773,-0.018328877165913582
1772649235204006100,2.670006103515625,-0.08424124866724014,-0.0930190235376358,-0.020934632048010826
1772649235214050300,2.68005029296875,-0.09036092460155487,-0.12173082679510117,-0.0303995069116354
1772649235224094500,2.690094482421875,-0.10461430251598358,-0.11253813654184341,-0.03239087015390396
1772649235234138400,2.700138427734375,-0.1022811084985733,-0.11366012692451477,-0.018865475431084633
1772649235244183300,2.710183349609375,-0.09963612258434296,-0.09805525094270706,0.003258280223235488
1772649235254227700,2.720227783203125,-0.10460185259580612,-0.09196007251739502,0.02262292429804802
1772649235264271600,2.730271728515625,-0.11462879180908203,-0.0960291177034378,0.038253962993621826
1772649235274315500,2.7403154296875,-0.12505026161670685,-0.10332378000020981,0.03832480311393738
1772649235284359400,2.750359375,-0.13064664602279663,-0.10182735323905945,0.024329092353582382
1772649235294403600,2.760403564453125,-0.12578290700912476,-0.10544978082180023,0.009710468351840973
1772649235304447700,2.77044775390625,-0.11444117873907089,-0.17033956944942474,0.007801661267876625
1772649235314491400,2.780491455078125,-0.1375368982553482,-0.26116055250167847,-0.0056259967386722565
1772649235324535600,2.79053564453125,-0.13960620760917664,-0.2787069082260132,0.00014889473095536232
1772649235334579500,2.800579345703125,-0.12046313285827637,-0.275878369808197,0.02262384444475174
1772649235344624600,2.810624755859375,-0.093453049659729,-0.2817152440547943,0.02601599134504795
1772649235354668500,2.82066845703125,-0.07817209511995316,-0.29336339235305786,0.03652429208159447
1772649235364712400,2.83071240234375,-0.07973569631576538,-0.2957102656364441,0.040817055851221085
1772649235374756600,2.840756591796875,-0.0760970190167427,-0.2782162129878998,0.04149376600980759
1772649235384800800,2.85080078125,-0.06260409206151962,-0.21244478225708008,0.05618419870734215
1772649235394844400,2.860844482421875,-0.04496118798851967,-0.13728827238082886,0.07088910788297653
1772649235404888600,2.870888671875,-0.02595033310353756,-0.11029568314552307,0.08408565819263458
1772649235414932500,2.880932373046875,-0.010555131360888481,-0.11336204409599304,0.11043711006641388
1772649235424976600,2.8909765625,-0.0029585007578134537,-0.1316363513469696,0.11366717517375946
1772649235435020500,2.9010205078125,-0.0026037676725536585,-0.16109171509742737,0.10070716589689255
1772649235445065500,2.9110654296875,-0.003957930952310562,-0.1497415155172348,0.059873439371585846
1772649235455109600,2.921109619140625,-0.0031555206514894962,-0.1252737194299698,0.017806945368647575
1772649235465153500,2.931153564453125,-0.004645334556698799,-0.11137314885854721,-0.016228267922997475
1772649235475197400,2.941197509765625,0.006248059682548046,-0.09703655540943146,-0.051028061658144
1772649235485241600,2.95124169921875,0.012276874855160713,-0.09355923533439636,-0.08173515647649765
1772649235495285500,2.961285400390625,0.012970894575119019,-0.09731562435626984,-0.07589831203222275
1772649235505329700,2.97132958984375,0.00010947312694042921,-0.11262723058462143,-0.033380623906850815
1772649235515373600,2.98137353515625,-0.010566074401140213,-0.09298615157604218,-0.008099235594272614
1772649235525417500,2.99141748046875,-0.0052995276637375355,-0.07328237593173981,0.0032783751375973225
1772649235535461600,3.001461669921875,-0.03210291266441345,-0.06251734495162964,0.006356722675263882
1772649235545506600,3.011506591796875,-0.11944655328989029,0.014040348120033741,0.007979108020663261
1772649235555550500,3.021550537109375,-0.1364164799451828,-0.014567593112587929,-0.009363663382828236
1772649235565594600,3.0315947265625,-0.09101679176092148,-0.029693396762013435,-0.01406831108033657
1772649235575638500,3.041638427734375,-0.07323699444532394,0.061942245811223984,0.016827553510665894
1772649235585682700,3.0516826171875,-0.057944878935813904,0.11102818697690964,0.051972318440675735
1772649235595726600,3.0617265625,-0.009532338008284569,0.1513654887676239,0.05591193214058876
1772649235605770500,3.0717705078125,0.03195056691765785,0.19999903440475464,0.03689689561724663
1772649235615814400,3.081814453125,0.045683156698942184,0.23018383979797363,0.011247724294662476
1772649235625858600,3.091858642578125,0.04505740478634834,0.2304786890745163,-0.029566483572125435
1772649235635902700,3.10190283203125,0.05281386151909828,0.20289099216461182,-0.077852264046669
1772649235645947400,3.111947509765625,0.07433468848466873,0.15525363385677338,-0.10369490832090378
1772649235655991600,3.121991455078125,0.10199720412492752,0.12864865362644196,-0.11356937885284424
1772649235666035700,3.13203564453125,0.12821047008037567,0.11649352312088013,-0.12524598836898804
1772649235676079600,3.14207958984375,0.15645010769367218,0.09964343905448914,-0.14029765129089355
1772649235686123500,3.15212353515625,0.17606568336486816,0.0872076228260994,-0.143974170088768
1772649235696167400,3.16216748046875,0.20090658962726593,0.0912305936217308,-0.13575859367847443
1772649235706211600,3.172211669921875,0.20633730292320251,0.08338971436023712,-0.12214425206184387
1772649235716255700,3.182255859375,0.2028898447751999,0.05702681466937065,-0.11508447676897049
1772649235726299600,3.192299560546875,0.19205930829048157,0.023690812289714813,-0.10290060192346573
1772649235736343600,3.202343505859375,0.17670884728431702,0.0026302682235836983,-0.07531052082777023
1772649235746388700,3.212388671875,0.1571710854768753,-0.0022335764952003956,-0.038156136870384216
1772649235756432600,3.2224326171875,0.13884055614471436,-0.009450210258364677,-0.005790473893284798
1772649235766476500,3.2324765625,0.10918498784303665,-0.018430735915899277,0.0205981507897377
1772649235776520400,3.2425205078125,0.07928621023893356,-0.03485658019781113,0.03785783052444458
1772649235786564600,3.252564697265625,0.03500722348690033,-0.03842940181493759,0.036839425563812256
1772649235796608500,3.2626083984375,-0.0018767607398331165,-0.05010576546192169,0.03276452049612999
1772649235806652700,3.272652587890625,-0.03609074652194977,-0.04385296255350113,0.03117161989212036
1772649235816696600,3.282696533203125,-0.061463478952646255,-0.03361790254712105,0.03562788665294647
1772649235826740500,3.292740478515625,-0.08180752396583557,-0.02122979611158371,0.027318265289068222
1772649235836784600,3.30278466796875,-0.09431186318397522,-0.014607048593461514,0.015264797955751419
1772649235846828500,3.31282861328125,-0.1025981530547142,-0.013290641829371452,-0.004572703968733549
1772649235856873500,3.32287353515625,-0.10642164945602417,-0.0102639589458704,-0.02078496292233467
1772649235866917600,3.332917724609375,-0.10289614647626877,-0.009379410184919834,-0.04129086434841156
1772649235876961500,3.34296142578125,-0.09286321699619293,-0.004271999932825565,-0.07197526842355728
1772649235887005400,3.35300537109375,-0.08323823660612106,-0.013694830238819122,-0.10792124271392822
1772649235897049600,3.363049560546875,-0.06968381255865097,-0.02156473696231842,-0.1207297146320343
1772649235907093500,3.373093505859375,-0.05309810861945152,-0.01622783951461315,-0.10546457767486572
1772649235917137700,3.3831376953125,-0.034937746822834015,-0.014583868905901909,-0.07135374844074249
1772649235927181600,3.393181640625,-0.010965971276164055,-0.012716730125248432,-0.03466615825891495
1772649235937225500,3.4032255859375,0.010404564440250397,-0.006020211614668369,-0.005416925996541977
1772649235947269400,3.413269287109375,0.021314362064003944,-0.003703145310282707,0.010020113550126553
1772649235957314600,3.423314453125,0.029855918139219284,-0.00007964856922626495,0.02725396119058132
1772649235967358500,3.4333583984375,0.04382774233818054,-0.0034659327939152718,0.042704690247774124
1772649235977402400,3.44340234375,0.049681369215250015,-0.022660398855805397,0.05489717423915863
1772649235987446500,3.453446533203125,0.04380715638399124,-0.06321510672569275,0.04862203449010849
1772649235997490700,3.46349072265625,0.039247024804353714,-0.09027814865112305,0.024171553552150726
1772649236007534600,3.47353466796875,0.0443415641784668,-0.10497988760471344,0.0008669632952660322
1772649236017578500,3.48357861328125,0.04874403402209282,-0.11266312003135681,-0.01198998000472784
1772649236027622400,3.493622314453125,0.011961858719587326,-0.1003711074590683,-0.014076139777898788
1772649236037666600,3.50366650390625,0.01830337755382061,-0.10687375068664551,-0.03489433601498604
1772649236047710700,3.513710693359375,0.07167690247297287,-0.11091325432062149,-0.03500613570213318
1772649236057755400,3.52375537109375,0.07709057629108429,-0.09577611833810806,-0.01906179077923298
1772649236067799600,3.533799560546875,0.05320662260055542,-0.06643988192081451,-0.026060685515403748
1772649236077843700,3.54384375,0.025626393035054207,-0.05472863093018532,-0.06666883081197739
1772649236087887600,3.5538876953125,0.006043050903826952,-0.05913197249174118,-0.09665228426456451
1772649236097931500,3.563931640625,-0.011628088541328907,-0.06089472025632858,-0.10666444152593613
1772649236107975400,3.573975341796875,-0.03566836565732956,-0.08388550579547882,-0.09115888923406601
1772649236118019600,3.58401953125,-0.05035117268562317,-0.09722927212715149,-0.05970136076211929
1772649236128063500,3.5940634765625,-0.06086336076259613,-0.07602273672819138,-0.021217579022049904
1772649236138107600,3.604107666015625,-0.06538461148738861,-0.04980817809700966,0.004573537968099117
1772649236148151600,3.614151611328125,-0.07022775709629059,-0.03587523102760315,0.019632047042250633
1772649236158196500,3.624196533203125,-0.09483882784843445,-0.00659803906455636,0.026030823588371277
1772649236168240600,3.63424072265625,-0.08346662670373917,-0.007040668744593859,0.03027196228504181
1772649236178284500,3.644284423828125,-0.039416342973709106,0.0017605461180210114,0.05025152862071991
1772649236188328400,3.654328369140625,-0.039215024560689926,0.02777579054236412,0.08503277599811554
1772649236198372600,3.66437255859375,-0.037936706095933914,0.03130421042442322,0.09346567839384079
1772649236208416500,3.67441650390625,-0.013489407487213612,0.006451601628214121,0.07704778760671616
1772649236218460700,3.684460693359375,0.006574581377208233,0.0010073012672364712,0.06166111305356026
1772649236228504600,3.694504638671875,0.01813105307519436,0.0121619813144207,0.04625307396054268
1772649236238548500,3.704548583984375,0.021114327013492584,0.018134653568267822,0.04005509987473488
1772649236248591600,3.714591552734375,0.0307634174823761,0.03919021785259247,0.04074176773428917
1772649236258636800,3.72463671875,0.026529259979724884,0.06319914758205414,0.046978093683719635
1772649236268680700,3.7346806640625,0.029934728518128395,0.07181067764759064,0.051701873540878296
1772649236278724600,3.744724609375,0.04054715856909752,0.06326059997081757,0.061336126178503036
1772649236288768800,3.754768798828125,0.04804926738142967,0.04741893336176872,0.0717177540063858
1772649236298813000,3.76481298828125,0.04100387543439865,0.054235294461250305,0.07936076074838638
1772649236308856800,3.77485693359375,0.04522526636719704,0.04286877065896988,0.07422022521495819
1772649236318900700,3.784900634765625,0.05173962563276291,0.012938302010297775,0.06460142135620117
1772649236328944600,3.794944580078125,0.046049218624830246,-0.026471275836229324,0.05167403072118759
1772649236338988800,3.80498876953125,0.034726258367300034,-0.042304832488298416,0.02784140221774578
1772649236349033000,3.815032958984375,0.012007823213934898,-0.04648405313491821,0.001019748393446207
1772649236359077600,3.82507763671875,0.0061206393875181675,-0.02041463740170002,-0.01944717764854431
1772649236369121800,3.835121826171875,0.007727675139904022,0.008514145389199257,-0.02434246800839901
1772649236379165700,3.845165771484375,0.022475462406873703,0.017400315031409264,-0.037432171404361725
1772649236389209900,3.8552099609375,0.003995666746050119,0.012556933797895908,-0.05424438416957855
1772649236399253800,3.865253662109375,0.0063767991960048676,0.026454906910657883,-0.06983772665262222
1772649236409297700,3.875297607421875,0.02369377389550209,0.011444225907325745,-0.09091123938560486
1772649236419341800,3.885341796875,0.04043147340416908,0.01219630241394043,-0.09050324559211731
1772649236429385700,3.8953857421875,0.04614484682679176,0.027049586176872253,-0.07932429015636444
1772649236439429600,3.9054296875,0.038328733295202255,0.03148161619901657,-0.0706290677189827
1772649236449473800,3.915473876953125,0.030921949073672295,0.007368291728198528,-0.06504122167825699
1772649236459517700,3.925517578125,0.014809559099376202,-0.009830668568611145,-0.05609060823917389
1772649236469563000,3.93556298828125,0.0066538406535983086,0.004965248517692089,-0.03783809021115303
1772649236479606800,3.945606689453125,-0.0015447007026523352,0.007697918452322483,-0.01994910277426243
1772649236489650700,3.955650634765625,0.000636870157904923,-0.008099988102912903,0.005193733610212803
1772649236499694800,3.96569482421875,0.0028885728679597378,-0.009852081537246704,0.025770647451281548
1772649236509738800,3.97573876953125,-0.0006926891510374844,-0.03178016468882561,0.034607041627168655
1772649236519782700,3.98578271484375,0.024805746972560883,-0.22957606613636017,-0.002463893499225378
1772649236529826800,3.995826904296875,0.016012217849493027,-0.28111299872398376,-0.027326446026563644
1772649236539870700,4.00587060546875,0.027488844469189644,-0.1806201934814453,0.010875267907977104
1772649236549915000,4.015914794921875,0.018274005502462387,-0.14946970343589783,0.033781569451093674
1772649236559958800,4.025958740234375,0.029504820704460144,-0.1748483031988144,0.036916110664606094
1772649236570003700,4.036003662109375,0.03945217654109001,-0.16505897045135498,0.06316541880369186
1772649236580048000,4.0460478515625,0.04274517670273781,-0.13077770173549652,0.08002429455518723
1772649236590091800,4.056091796875,0.06643953174352646,-0.198695570230484,0.06568878144025803
1772649236600135700,4.0661357421875,0.05326993390917778,-0.20812183618545532,0.03871522098779678
1772649236610179600,4.0761796875,0.06773704290390015,-0.08121277391910553,0.06818407028913498
1772649236620223700,4.0862236328125,0.07046012580394745,-0.03974735736846924,0.07416605949401855
1772649236630268000,4.096267822265625,0.06901190429925919,-0.10941484570503235,0.04414768144488335
1772649236640311800,4.106311767578125,0.037288598716259,-0.14615581929683685,-0.006347714923322201
1772649236650355700,4.116355712890625,0.05900435894727707,-0.0692381039261818,-0.020845869556069374
1772649236660399600,4.126399658203125,0.06835418939590454,-0.05839983746409416,-0.05425708740949631
1772649236670443800,4.13644384765625,0.06469342112541199,-0.0385674312710762,-0.07873828709125519
1772649236680488700,4.14648876953125,0.0667634978890419,-0.01995885744690895,-0.09343041479587555
1772649236690532600,4.15653271484375,0.0667773112654686,-0.0005531613714993,-0.1015443429350853
1772649236700576800,4.16657666015625,0.06843272596597672,0.01011066697537899,-0.09852059185504913
1772649236710621000,4.176620849609375,0.07193925976753235,0.0294821597635746,-0.08957955241203308
1772649236720664800,4.186664794921875,0.07098318636417389,0.04503076151013374,-0.07675083726644516
1772649236730708700,4.196708740234375,0.07097897678613663,0.04989882931113243,-0.06265447288751602
1772649236740752600,4.206752685546875,0.0662207081913948,0.04962825030088425,-0.05176853761076927
1772649236750796800,4.216796875,0.0576610267162323,0.05061190575361252,-0.025863079354166985
1772649236760840700,4.2268408203125,0.04516760632395744,0.050587672740221024,-0.0022522914223372936
1772649236770884900,4.236884765625,0.039514459669589996,0.04069555550813675,0.012158086523413658
1772649236780929800,4.2469296875,0.034019824117422104,0.03523314371705055,0.016939792782068253
1772649236790973700,4.2569736328125,0.0252603180706501,0.03657879680395126,0.021541161462664604
1772649236801017900,4.267017822265625,0.01376238651573658,0.03276088833808899,0.034117672592401505
1772649236811061800,4.277061767578125,0.005008448846638203,0.02369522675871849,0.04917130991816521
1772649236821105700,4.287105712890625,-0.0064050606451928616,0.022618509829044342,0.06185115501284599
1772649236831149800,4.29714990234375,-0.01573636569082737,0.02858889102935791,0.07020501792430878
1772649236841193700,4.30719384765625,-0.027581840753555298,0.028853874653577805,0.06703585386276245
1772649236851238000,4.31723779296875,-0.03432070091366768,0.011634143069386482,0.05234105885028839
1772649236861281800,4.32728173828125,-0.04050509259104729,-0.02232462167739868,0.04685121774673462
1772649236871325700,4.33732568359375,-0.036089133471250534,-0.04225761815905571,0.04988262802362442
1772649236881371000,4.347370849609375,-0.03328189626336098,-0.04073935002088547,0.05867878347635269
1772649236891414800,4.357414794921875,-0.027979135513305664,-0.035055361688137054,0.06561829894781113
1772649236901458700,4.367458740234375,-0.019633054733276367,-0.03309820219874382,0.06401880085468292
1772649236911502800,4.3775029296875,-0.00883244164288044,-0.03592279553413391,0.05447506532073021
1772649236921546800,4.387546630859375,-0.005770870950073004,-0.03247533366084099,0.038921937346458435
1772649236931591000,4.3975908203125,-0.0010138846701011062,-0.03563787043094635,0.017460638657212257
1772649236941634600,4.407634521484375,-0.0030243047513067722,-0.035727620124816895,-0.0010890767443925142
1772649236951678700,4.4176787109375,-0.007760623004287481,-0.034798458218574524,-0.007170762401074171
1772649236961723000,4.427722900390625,-0.014404411427676678,-0.04801652580499649,-0.004102001432329416
1772649236971766800,4.437766845703125,-0.0201738141477108,-0.04630322754383087,-0.009017173200845718
1772649236981811700,4.447811767578125,-0.02504313737154007,-0.033558402210474014,-0.01649000309407711
1772649236991855900,4.45785595703125,-0.02528449334204197,-0.01762409880757332,-0.027016574516892433
1772649237001899800,4.467899658203125,-0.029417986050248146,-0.003950364422053099,-0.04497213661670685
1772649237011944000,4.47794384765625,-0.03688577562570572,0.019769499078392982,-0.056987959891557693
1772649237021987600,4.487987548828125,-0.04984311759471893,0.03927582502365112,-0.06296276301145554
1772649237032031700,4.49803173828125,-0.06415341794490814,0.04113585501909256,-0.053963303565979004
1772649237042076000,4.508075927734375,-0.0710693821310997,0.01940498873591423,-0.04900050163269043
1772649237052119800,4.518119873046875,-0.06853874027729034,0.006864047609269619,-0.04479140415787697
1772649237062163700,4.528163818359375,-0.057055987417697906,0.011248677037656307,-0.05147300660610199
1772649237072207600,4.53820751953125,-0.042797330766916275,0.0037463195621967316,-0.052495326846838
1772649237082251800,4.548251708984375,-0.023921912536025047,-0.0035832321736961603,-0.03252667933702469
1772649237092297000,4.558296875,-0.013126795180141926,-0.007574353367090225,-0.003398823319002986
1772649237102340600,4.568340576171875,0.009509274736046791,-0.021312536671757698,0.026282906532287598
1772649237112384800,4.578384765625,0.017877819016575813,-0.08921565115451813,0.04589342698454857
1772649237122428700,4.5884287109375,0.021058963611721992,-0.056040119379758835,0.05842013657093048
1772649237132472800,4.598472900390625,0.018152976408600807,-0.07173751294612885,0.07508192211389542
1772649237142516700,4.608516845703125,0.018992139026522636,-0.09213466197252274,0.09678162634372711
1772649237152560600,4.618560546875,0.014373024925589561,-0.10962710529565811,0.10909353941679001
1772649237162604800,4.628604736328125,0.0038010741118341684,-0.10626059770584106,0.10949701070785522
1772649237172648700,4.638648681640625,-0.006278614979237318,-0.10996783524751663,0.09988483786582947
1772649237182692900,4.64869287109375,-0.008149219676852226,-0.12229534238576889,0.08316551148891449
1772649237192737800,4.65873779296875,-0.011805647984147072,-0.13790489733219147,0.07297179847955704
1772649237202781700,4.66878173828125,-0.014930601231753826,-0.14051559567451477,0.0611947663128376
1772649237212825900,4.678825927734375,-0.022161973640322685,-0.14796048402786255,0.051053378731012344
1772649237222869800,4.688869873046875,-0.031541626900434494,-0.1506633311510086,0.03634021431207657
1772649237232913700,4.69891357421875,-0.0345483161509037,-0.15090344846248627,0.020317213609814644
1772649237242957800,4.708957763671875,-0.041910361498594284,-0.1604306399822235,0.009657111950218678
1772649237253002200,4.719002197265625,-0.05487654358148575,-0.15413275361061096,0.00033865903969854116
1772649237263046100,4.729046142578125,-0.06629164516925812,-0.13592764735221863,-0.005325618200004101
1772649237273090000,4.739090087890625,-0.07652147859334946,-0.10970870405435562,0.001691809156909585
1772649237283134200,4.74913427734375,-0.081150583922863,-0.09594442695379257,0.010598485358059406
1772649237293178000,4.75917822265625,-0.0771569237112999,-0.0672059953212738,0.03454192727804184
1772649237303223000,4.76922314453125,-0.08085978031158447,-0.03362566605210304,0.05255927890539169
1772649237313267200,4.77926708984375,-0.07903237640857697,-0.0034063193015754223,0.05214623734354973
1772649237323311000,4.78931103515625,-0.07575961202383041,-0.0006195874884724617,0.04187282547354698
1772649237333355300,4.799355224609375,-0.07145747542381287,-0.019174816086888313,0.028737541288137436
1772649237343399200,4.809399169921875,-0.07136905938386917,-0.019080007448792458,0.011683722957968712
1772649237353443000,4.819443115234375,-0.07075502723455429,-0.008590808138251305,0.00002720113843679428
1772649237363487200,4.8294873046875,-0.07180484384298325,-0.00168896047398448,-0.01004727091640234
1772649237373531100,4.83953125,-0.07192926108837128,-0.0025830580852925777,-0.018255919218063354
1772649237383575300,4.8495751953125,-0.07163072377443314,0.005284985527396202,-0.025304507464170456
1772649237393619200,4.859619140625,-0.06820080429315567,0.017539214342832565,-0.03265661746263504
1772649237403664100,4.8696640625,-0.0651557445526123,0.02437395229935646,-0.032496824860572815
1772649237413708300,4.879708251953125,-0.05872153490781784,0.03262389451265335,-0.03237754479050636
1772649237423752200,4.889752197265625,-0.0532681830227375,0.04044639691710472,-0.03133358433842659
1772649237433796000,4.899796142578125,-0.04828525334596634,0.0484376959502697,-0.02696841023862362
1772649237443840300,4.90984033203125,-0.04381993040442467,0.039620768278837204,-0.021966461092233658
1772649237453884200,4.91988427734375,-0.04264092072844505,0.028087805956602097,-0.014413324184715748
1772649237463928300,4.92992822265625,-0.05761081725358963,-0.01202019676566124,-0.00018831552006304264
1772649237473972000,4.939971923828125,-0.05239762365818024,-0.06879818439483643,0.0002774581080302596
1772649237484016000,4.95001611328125,-0.021579256281256676,-0.09066619724035263,-0.013984035700559616
1772649237494060300,4.960060302734375,0.011405657045543194,-0.08636404573917389,-0.030326830223202705
1772649237504105200,4.970105224609375,0.03896830976009369,-0.08653528988361359,-0.035629983991384506
1772649237514149000,4.980149169921875,0.06232950836420059,-0.07866774499416351,-0.04214412719011307
1772649237524193300,4.990193359375,0.07072539627552032,-0.06910965591669083,-0.03900638967752457
1772649237534237200,5.0002373046875,0.058573491871356964,-0.05671766400337219,-0.0152592109516263
1772649237544280300,5.0102802734375,0.05345143377780914,-0.019241662696003914,0.013717846013605595
1772649237554325000,5.020324951171875,0.040647413581609726,-0.0017294371500611305,0.029552308842539787
1772649237564369200,5.030369140625,0.024882297962903976,-0.006115131080150604,0.029525676742196083
1772649237574413300,5.040413330078125,0.01313224621117115,-0.022479690611362457,0.029898881912231445
1772649237584457200,5.050457275390625,-0.0009305757121182978,-0.0215369313955307,0.033266980201005936
1772649237594501400,5.06050146484375,-0.010049136355519295,-0.02155419997870922,0.03489208221435547
1772649237604545000,5.070544921875,-0.014244413934648037,-0.03230564668774605,0.02412199042737484
1772649237614589200,5.080589111328125,-0.020851608365774155,-0.0464993454515934,0.012208846397697926
1772649237624633000,5.090633056640625,-0.02936440147459507,-0.05661536380648613,0.012677828781306744
1772649237634677200,5.10067724609375,-0.035271190106868744,-0.05616365000605583,0.01682201400399208
1772649237644721200,5.11072119140625,-0.03836178779602051,-0.05085783451795578,0.012257621623575687
1772649237654765000,5.12076513671875,-0.03356553614139557,-0.03818895295262337,-0.002667837543413043
1772649237664810200,5.130810302734375,-0.02588231861591339,-0.03304825350642204,-0.01668165624141693
1772649237674854400,5.1408544921875,-0.020752696320414543,-0.03784579038619995,-0.022121191024780273
1772649237684898000,5.15089794921875,-0.02181955799460411,-0.0400005541741848,-0.018350686877965927
1772649237694942200,5.160942138671875,-0.027765173465013504,-0.03651062771677971,-0.007566722575575113
1772649237704986000,5.170986083984375,-0.03557222709059715,-0.028609564527869225,-0.004329383838921785
1772649237715030300,5.1810302734375,-0.040427036583423615,-0.027220455929636955,-0.0037617450580000877
1772649237725074200,5.19107421875,-0.045418065041303635,-0.023899227380752563,0.0058107213117182255
1772649237735118000,5.2011181640625,-0.04894566908478737,-0.011189443990588188,0.03753393515944481
1772649237745162200,5.211162353515625,-0.050788044929504395,0.004117341246455908,0.07159176468849182
1772649237755206100,5.2212060546875,-0.05730639025568962,0.026245813816785812,0.0964030846953392
1772649237765251000,5.2312509765625,-0.060391660779714584,0.03930755332112312,0.11373280733823776
1772649237775295200,5.241295166015625,-0.06114548444747925,0.03645503520965576,0.11473353207111359
1772649237785339100,5.251339111328125,-0.07038798183202744,0.0069727785885334015,0.11027513444423676
1772649237795383300,5.26138330078125,-0.08221558481454849,-0.03173215314745903,0.0944872573018074
1772649237805427200,5.27142724609375,-0.10708657652139664,-0.05313624441623688,0.07235212624073029
1772649237815471000,5.28147119140625,-0.09524678438901901,-0.08937513828277588,0.05122087895870209
1772649237825515300,5.291515380859375,-0.05261915922164917,-0.09043268114328384,0.03404082730412483
1772649237835559200,5.30155908203125,-0.055041734129190445,-0.10455217957496643,0.010622627101838589
1772649237845603300,5.311603271484375,-0.06032624468207359,-0.05611913651227951,0.012110268697142601
1772649237855647000,5.32164697265625,-0.055152323096990585,-0.026195675134658813,0.02189929038286209
1772649237865691100,5.331691162109375,-0.042872752994298935,-0.0025244331918656826,0.039565637707710266
1772649237875736300,5.341736328125,-0.05190004035830498,0.00781780481338501,0.0553511343896389
1772649237885781200,5.35178125,-0.054231371730566025,0.044026412069797516,0.0783105120062828
1772649237895825200,5.3618251953125,-0.05580652505159378,0.054621413350105286,0.09500238299369812
1772649237905869300,5.371869384765625,-0.051619503647089005,0.049269791692495346,0.09773718565702438
1772649237915914200,5.381914306640625,-0.04754054918885231,0.036446213722229004,0.09324520826339722
1772649237925958100,5.391958251953125,-0.046676088124513626,0.027243925258517265,0.08745843172073364
1772649237936002300,5.402002197265625,-0.049359772354364395,0.008435770869255066,0.08261370658874512
1772649237946046200,5.412046142578125,-0.05586827173829079,-0.011271887458860874,0.07362766563892365
1772649237956090000,5.422090087890625,-0.05765072628855705,-0.012189612723886967,0.07293550670146942
1772649237966134000,5.432134033203125,-0.05968484655022621,0.004037028178572655,0.06348395347595215
1772649237976178200,5.44217822265625,-0.056734878569841385,0.031080350279808044,0.06078273430466652
1772649237986222300,5.452222412109375,-0.055289048701524734,0.07152897119522095,0.06122907996177673
1772649237996266200,5.462266357421875,-0.06384434551000595,0.10517820715904236,0.04553381726145744
1772649238006310100,5.47231005859375,-0.04620969668030739,0.11250855773687363,0.02318456955254078
1772649238016354000,5.48235400390625,-0.03511969372630119,0.1314704716205597,-0.004193869885057211
1772649238026399200,5.492399169921875,-0.019975895062088966,0.13175995647907257,-0.03092268668115139
1772649238036443100,5.502443115234375,-0.008207875303924084,0.1129186823964119,-0.05854098126292229
1772649238046487000,5.512487060546875,0.008142868056893349,0.08206090331077576,-0.08484315872192383
1772649238056531200,5.52253125,0.025977352634072304,0.0751267671585083,-0.10383539646863937
1772649238066575400,5.532575439453125,0.03570641204714775,0.06400753557682037,-0.12102103978395462
1772649238076619300,5.542619384765625,0.04347018897533417,0.05088694021105766,-0.12927907705307007
1772649238086663200,5.5526630859375,0.040691714733839035,0.03482408449053764,-0.13414707779884338
1772649238096707000,5.56270703125,0.029354535043239594,-0.005140683148056269,-0.13680468499660492
1772649238106751200,5.572751220703125,0.0229048915207386,-0.037121519446372986,-0.12922479212284088
1772649238116795400,5.58279541015625,0.0098622627556324,-0.06668253242969513,-0.1058030053973198
1772649238126840000,5.592840087890625,-0.004402692895382643,-0.06445612758398056,-0.06472348421812057
1772649238136884200,5.60288427734375,-0.007017339114099741,-0.04327619820833206,-0.01821296289563179
1772649238146928000,5.61292822265625,-0.013445144519209862,-0.029048793017864227,0.022806908935308456
1772649238156972300,5.62297216796875,-0.010573549196124077,-0.02337283454835415,0.05587371438741684
1772649238167016200,5.63301611328125,-0.013562148436903954,-0.015997208654880524,0.0755683183670044
1772649238177060000,5.64306005859375,-0.022386085242033005,-0.019006777554750443,0.07172419130802155
1772649238187104300,5.653104248046875,-0.03368854150176048,-0.0181598924100399,0.04750939458608627
1772649238197148200,5.663148193359375,-0.04175370931625366,-0.027082353830337524,0.025645652785897255
1772649238207192000,5.673192138671875,-0.04813837260007858,-0.03266140818595886,0.016090497374534607
1772649238217236200,5.683236328125,-0.05250057950615883,-0.02116553485393524,0.012140749953687191
1772649238227281200,5.69328125,-0.05008429288864136,0.0019485726952552795,0.0017363119404762983
1772649238237325300,5.7033251953125,-0.04479197412729263,0.014326874166727066,-0.004366189707070589
1772649238247369000,5.713368896484375,-0.05559935048222542,-0.011385146528482437,-0.01904047280550003
1772649238257413000,5.7234130859375,-0.06895030289888382,-0.020405806601047516,-0.017268938943743706
1772649238267457000,5.73345703125,-0.07078522443771362,-0.047419577836990356,-0.010081599466502666
1772649238277501200,5.743501220703125,-0.05705337971448898,-0.08237242698669434,-0.002706520725041628
1772649238287545000,5.753545166015625,-0.04724415764212608,-0.10711558908224106,0.004624096676707268
1772649238297589000,5.763589111328125,-0.0385073721408844,-0.0995345264673233,0.012364481575787067
1772649238307633200,5.773633056640625,-0.028500013053417206,-0.07286535948514938,0.024815823882818222
1772649238317677000,5.783677001953125,-0.02459530532360077,-0.03876849263906479,0.03705687075853348
1772649238327721200,5.79372119140625,-0.04694748297333717,-0.03040296956896782,0.03791600838303566
1772649238337766100,5.80376611328125,-0.049613259732723236,-0.05902772769331932,0.04028680548071861
1772649238347810000,5.81381005859375,-0.05227135866880417,-0.05517759546637535,0.037405263632535934
1772649238357854200,5.823854248046875,-0.05320589244365692,-0.04912913963198662,0.02865024469792843
1772649238367898000,5.833898193359375,-0.045097097754478455,-0.05732688307762146,0.019361937418580055
1772649238377942000,5.84394189453125,-0.06554065644741058,-0.02571721561253071,0.015359045937657356
1772649238387986000,5.85398583984375,-0.07744232565164566,0.008846888318657875,0.004115978721529245
1772649238398030000,5.864030029296875,-0.08985713124275208,0.012390299700200558,-0.024828067049384117
1772649238408074200,5.87407421875,-0.09883198142051697,-0.006682727951556444,-0.04315860569477081
1772649238418118000,5.884117919921875,-0.10759639739990234,-0.011778878048062325,-0.03593452647328377
1772649238428162000,5.894162109375,-0.13349856436252594,-0.0016977488994598389,-0.02187064103782177
1772649238438207200,5.904207275390625,-0.13515004515647888,-0.017193160951137543,-0.006591539829969406
1772649238448251100,5.914251220703125,-0.12455625832080841,-0.01567728817462921,0.025669461116194725
1772649238458295000,5.924294921875,-0.1178225427865982,-0.013346526771783829,0.0601743720471859
1772649238468339000,5.9343388671875,-0.1201043426990509,-0.013087667524814606,0.08614125847816467
1772649238478383000,5.944383056640625,-0.1162930503487587,-0.017008144408464432,0.09435079246759415
1772649238488427300,5.95442724609375,-0.11517824977636337,-0.025164341554045677,0.09455745667219162
1772649238498471000,5.964470947265625,-0.11381487548351288,-0.014556288719177246,0.0902942419052124
1772649238508515000,5.97451513671875,-0.11228515952825546,-0.0031659493688493967,0.08043228834867477
1772649238518559000,5.98455908203125,-0.10510864108800888,-0.014155715703964233,0.06545127928256989
1772649238528603100,5.99460302734375,-0.09893862903118134,-0.028244636952877045,0.04693698510527611
1772649238538647300,6.004647216796875,-0.0892433226108551,-0.026526549831032753,0.02898138016462326
1772649238548692000,6.01469189453125,-0.07712860405445099,-0.0051986235193908215,0.00683879479765892
1772649238558736100,6.024736083984375,-0.05792021006345749,0.019624359905719757,0.000003657536581158638
1772649238568780000,6.034780029296875,-0.04331862926483154,0.02902824431657791,-0.013795245438814163
1772649238578824000,6.044823974609375,-0.0313958078622818,0.0069402484223246574,-0.02183328941464424
1772649238588868000,6.0548681640625,-0.03126238286495209,-0.012045959010720253,-0.032329071313142776
1772649238598912000,6.064912109375,-0.02901053987443447,-0.015050267800688744,-0.03426400572061539
1772649238608956200,6.0749560546875,-0.01607316918671131,-0.014268096536397934,-0.038279786705970764
1772649238619000000,6.085,-0.0123510817065835,-0.03125925734639168,-0.050590261816978455
1772649238629044000,6.0950439453125,-0.02520323172211647,-0.013126058503985405,-0.046991001814603806
1772649238639088000,6.105088134765625,-0.0333019383251667,-0.028243454173207283,-0.0475735142827034
1772649238649133000,6.115133056640625,-0.017095273360610008,-0.057086553424596786,-0.04841906577348709
1772649238659177000,6.125177001953125,-0.017656244337558746,-0.057737044990062714,-0.05538880079984665
1772649238669221000,6.13522119140625,-0.022043002769351006,-0.06289505958557129,-0.05512647703289986
1772649238679265000,6.14526513671875,-0.03015536069869995,-0.05955815687775612,-0.05378987640142441
1772649238689309200,6.15530908203125,-0.034089647233486176,-0.04381035268306732,-0.03754672408103943
1772649238699353000,6.16535302734375,-0.046606577932834625,-0.02766060084104538,-0.004420624114573002
1772649238709397000,6.17539697265625,-0.0488167367875576,-0.004041025415062904,0.012921614572405815
1772649238719441200,6.185441162109375,-0.050504736602306366,0.025636672973632812,0.0207978468388319
1772649238729485000,6.195485107421875,-0.052188385277986526,0.04548201709985733,0.01802656054496765
1772649238739529200,6.205529296875,-0.06222743168473244,0.034558262676000595,0.009786180220544338
1772649238749574000,6.215573974609375,-0.06964113563299179,0.019621388986706734,0.00042117456905543804
1772649238759618000,6.2256181640625,-0.09205765277147293,0.016985125839710236,-0.009250985458493233
1772649238769662200,6.235662109375,-0.10379526764154434,0.0018961867317557335,-0.020213089883327484
1772649238779706000,6.2457060546875,-0.09841091930866241,-0.01231813058257103,-0.013468180783092976
1772649238789750000,6.25575,-0.09187977761030197,-0.002063894644379616,-0.0004546447889879346
1772649238799794000,6.2657939453125,-0.08975374698638916,0.015063387341797352,-0.004190979525446892
1772649238809838000,6.275838134765625,-0.08394379913806915,0.02785002440214157,-0.025262709707021713
1772649238819882200,6.28588232421875,-0.07992814481258392,0.029608245939016342,-0.04997033253312111
1772649238829926000,6.29592578125,-0.07795687019824982,0.016753166913986206,-0.059696462005376816
1772649238839970000,6.305969970703125,-0.08108895272016525,-0.0016020634211599827,-0.06978879868984222
1772649238850014000,6.316013916015625,-0.0746755301952362,-0.025723911821842194,-0.07736282795667648
1772649238860059100,6.32605908203125,-0.0632530227303505,-0.05181737244129181,-0.07807467132806778
1772649238870103000,6.33610302734375,-0.04968448355793953,-0.05695061385631561,-0.07609674334526062
1772649238880147000,6.34614697265625,-0.047429028898477554,-0.04118192568421364,-0.054277848452329636
1772649238890191000,6.356191162109375,-0.051571041345596313,-0.016136227175593376,-0.013307780027389526
1772649238900235300,6.3662353515625,-0.055079903453588486,0.0001226356253027916,0.026805724948644638
1772649238910279000,6.37627880859375,-0.06021660566329956,0.012914330698549747,0.04696612060070038
1772649238920323000,6.386322998046875,-0.06214086711406708,0.003493770956993103,0.05433700606226921
1772649238930367000,6.396366943359375,-0.062354981899261475,-0.014439955353736877,0.0548134446144104
1772649238940411100,6.4064111328125,-0.06090742349624634,-0.04113958030939102,0.06121746450662613
1772649238950455000,6.416455078125,-0.05454406514763832,-0.053907040506601334,0.053083907812833786
1772649238960500000,6.4265,-0.05039964243769646,-0.05886014178395271,0.06008023023605347
1772649238970544000,6.436544189453125,-0.049317069351673126,-0.058824457228183746,0.0667160376906395
1772649238980588000,6.446588134765625,-0.05468882992863655,-0.06448602676391602,0.06824765354394913
1772649238990632000,6.4566318359375,-0.05695278197526932,-0.06375126540660858,0.06489367038011551
1772649239000676000,6.466676025390625,-0.048505060374736786,-0.06609861552715302,0.049348730593919754
1772649239010720000,6.476719970703125,-0.06735305488109589,-0.046884700655937195,0.035633984953165054
1772649239020764200,6.48676416015625,-0.07009006291627884,-0.030346665531396866,0.032542187720537186
1772649239030808000,6.49680810546875,-0.05115818604826927,-0.04095030575990677,0.04394770786166191
1772649239040852000,6.50685205078125,-0.04295184835791588,-0.04151657223701477,0.04861612245440483
1772649239050896100,6.516896240234375,-0.041423458606004715,-0.04185958579182625,0.04293453320860863
1772649239060940000,6.52693994140625,-0.03581073135137558,-0.03861569985747337,0.03618975728750229
1772649239070985000,6.53698486328125,-0.030905185267329216,-0.04498970881104469,0.024326974526047707
1772649239081029000,6.547029052734375,-0.021897733211517334,-0.03847120702266693,0.02108481526374817
1772649239091073000,6.557072998046875,-0.011878921650350094,-0.027387134730815887,0.015935061499476433
1772649239101117200,6.5671171875,-0.00271049328148365,-0.014506982639431953,0.017360571771860123
1772649239111161000,6.5771611328125,0.0010767880594357848,-0.0013855877332389355,0.011707212775945663
1772649239121205000,6.587205078125,0.004537438042461872,0.000017900951206684113,-0.005188560578972101
1772649239131249000,6.597248779296875,0.001856167335063219,-0.012127445079386234,-0.02039574272930622
1772649239141293000,6.60729296875,0.0012652185978367925,-0.016360700130462646,-0.03515744209289551
1772649239151337200,6.617337158203125,-0.003078131005167961,-0.015917018055915833,-0.04154769703745842
1772649239161381000,6.627381103515625,-0.006841523572802544,-0.013855760917067528,-0.04110810533165932
1772649239171426000,6.637426025390625,-0.006961898412555456,-0.0021003009751439095,-0.03726596385240555
1772649239181470200,6.64747021484375,-0.006037719547748566,0.0167891513556242,-0.026988636702299118
1772649239191514000,6.65751416015625,-0.0066238814033567905,0.027008499950170517,-0.02307831682264805
1772649239201558000,6.66755810546875,-0.010445772670209408,0.02144329808652401,-0.022219741716980934
1772649239211602000,6.677601806640625,-0.013235700316727161,0.02336929738521576,-0.021943040192127228
1772649239221646000,6.68764599609375,-0.012356076389551163,0.019325969740748405,-0.018131695687770844
1772649239231690200,6.697690185546875,-0.01101251132786274,0.016670532524585724,-0.014184625819325447
1772649239241734100,6.707734130859375,-0.014776798896491528,0.005070638842880726,-0.01436538714915514
1772649239251778300,6.7177783203125,-0.02156199887394905,-0.0073820361867547035,-0.020932741463184357
1772649239261822200,6.727822265625,-0.024583732709288597,-0.025829104706645012,-0.023859530687332153
1772649239271867400,6.737867431640625,-0.026360593736171722,-0.02834392711520195,-0.02714773453772068
1772649239281911300,6.747911376953125,-0.028698600828647614,-0.01762109063565731,-0.019496912136673927
1772649239291955200,6.757955078125,-0.032622501254081726,-0.0023649055510759354,-0.013280828483402729
1772649239301999400,6.767999267578125,-0.03599586710333824,0.006825736258178949,-0.011464327573776245
1772649239312043300,6.778043212890625,-0.041543230414390564,0.019728219136595726,-0.0030604558996856213
1772649239322087200,6.788087158203125,-0.04469585046172142,0.035945236682891846,0.0024505306500941515
1772649239332131000,6.798131103515625,-0.056279268115758896,0.045979760587215424,-0.000287997885607183
1772649239342175200,6.80817529296875,-0.059538695961236954,0.03862689062952995,0.004419579170644283
1772649239352219400,6.818219482421875,-0.06005428358912468,0.024882847443223,0.002846449613571167
1772649239362263300,6.82826318359375,-0.059354543685913086,0.01215133536607027,0.0025496543385088444
1772649239372307200,6.83830712890625,-0.055975522845983505,0.01401474978774786,-0.007490196730941534
1772649239382352400,6.848352294921875,-0.05545505881309509,0.011406643316149712,-0.029098421335220337
1772649239392396300,6.858396240234375,-0.05665454640984535,0.001706611830741167,-0.04560123011469841
1772649239402440200,6.868440185546875,-0.058418724685907364,-0.022796642035245895,-0.06274403631687164
1772649239412484000,6.878484130859375,-0.06148508936166763,-0.04606281593441963,-0.0640718936920166
1772649239422528300,6.8885283203125,-0.058198679238557816,-0.050968438386917114,-0.05924128741025925
1772649239432572400,6.898572509765625,-0.05940668657422066,-0.04822538048028946,-0.04209745675325394
1772649239442616300,6.9086162109375,-0.06482312828302383,-0.042550865560770035,-0.01084869634360075
1772649239452660200,6.91866015625,-0.07046370208263397,-0.017819954082369804,0.021784881129860878
1772649239462704000,6.9287041015625,-0.07622433453798294,0.008043942041695118,0.048021797090768814
1772649239472748300,6.938748291015625,-0.08200952410697937,0.026061024516820908,0.07077531516551971
1772649239482793200,6.948793212890625,-0.08713497221469879,0.02771918848156929,0.08103003352880478
1772649239492837000,6.958837158203125,-0.09274625778198242,0.016072120517492294,0.07709814608097076
1772649239502881300,6.96888134765625,-0.10392381250858307,-0.002319137565791607,0.06482816487550735
1772649239512925200,6.97892529296875,-0.11364035308361053,-0.01073019951581955,0.060091737657785416
1772649239522969300,6.98896923828125,-0.11627273261547089,-0.02218940109014511,0.06060708314180374
1772649239533013200,6.99901318359375,-0.11330783367156982,-0.03445884957909584,0.05465438589453697
1772649239543057200,7.00905712890625,-0.10989787429571152,-0.04402006044983864,0.046285416930913925
1772649239553101300,7.019101318359375,-0.10592470318078995,-0.053209029138088226,0.04782845079898834
1772649239563145200,7.029145263671875,-0.08993025124073029,-0.04607498645782471,0.05709177628159523
1772649239573189400,7.039189453125,-0.07927121222019196,-0.027729270979762077,0.06319627910852432
1772649239583233300,7.0492333984375,-0.0642145648598671,-0.008816378191113472,0.06276940554380417
1772649239593278200,7.0592783203125,-0.051690515130758286,0.00491487979888916,0.05423770844936371
1772649239603322400,7.069322265625,-0.0433616004884243,-0.004982756916433573,0.039756327867507935
1772649239613366300,7.0793662109375,-0.03269803896546364,-0.00961479265242815,0.02800007164478302
1772649239623410200,7.08941015625,-0.019253112375736237,-0.01074579730629921,0.028033841401338577
1772649239633454300,7.099454345703125,-0.007421487011015415,-0.01779997907578945,0.028733188286423683
1772649239643498200,7.109498291015625,-0.00042092730291187763,-0.020214971154928207,0.028201553970575333
1772649239653542400,7.11954248046875,-0.00492593040689826,-0.020125487819314003,0.030437275767326355
1772649239663586300,7.12958642578125,-0.012350428849458694,-0.01679840311408043,0.030969522893428802
1772649239673630200,7.139630126953125,-0.021625153720378876,-0.0025414354167878628,0.021581348031759262
1772649239683674400,7.14967431640625,-0.032311730086803436,0.004689428489655256,0.00872842688113451
1772649239693719000,7.159718994140625,-0.04358888417482376,-0.010896721854805946,-0.011090285144746304
1772649239703763200,7.16976318359375,-0.05515815317630768,-0.020419957116246223,-0.027235087007284164
1772649239713807400,7.179807373046875,-0.051232654601335526,-0.016649188473820686,-0.03003673255443573
1772649239723851300,7.189851318359375,-0.04792957007884979,-0.012266119942069054,-0.03356363624334335
1772649239733895400,7.1998955078125,-0.051443878561258316,-0.014994794502854347,-0.027929453179240227
1772649239743939000,7.20993896484375,-0.0533561110496521,-0.010860162787139416,-0.016649767756462097
1772649239753983200,7.219983154296875,-0.060080062597990036,-0.008545609191060066,-0.01966206729412079
1772649239764027400,7.23002734375,-0.06414639949798584,-0.01611212268471718,-0.020148878917098045
1772649239774071300,7.2400712890625,-0.06186966225504875,-0.020665861666202545,-0.025620609521865845
1772649239784115200,7.250115234375,-0.05779245123267174,-0.024489231407642365,-0.022567057982087135
1772649239794160400,7.260160400390625,-0.049903370440006256,-0.019072096794843674,-0.006150268483906984
1772649239804204300,7.270204345703125,-0.041082706302404404,-0.013429275713860989,0.012964771129190922
1772649239814248400,7.28024853515625,-0.032180290669202805,-0.0036410936154425144,0.02568216435611248
1772649239824292000,7.2902919921875,-0.02716786228120327,0.0025475965812802315,0.024897929280996323
1772649239834336300,7.300336181640625,-0.021646063774824142,-0.0020604711025953293,0.01628047414124012
1772649239844380400,7.31038037109375,-0.022286463528871536,-0.004166042432188988,0.005165343172848225
1772649239854424300,7.32042431640625,-0.0257368553429842,-0.02469608373939991,-0.001882446464151144
1772649239864468200,7.33046826171875,-0.026946397498250008,-0.024491894990205765,0.0009207179537042975
1772649239874512100,7.34051220703125,-0.023445405066013336,-0.019449731335043907,0.007243595086038113
1772649239884556300,7.350556396484375,-0.019580112770199776,-0.015546982176601887,0.009707644581794739
1772649239894601500,7.3606015625,-0.021397452801465988,-0.01165370736271143,0.00962269026786089
1772649239904645000,7.37064501953125,-0.021758440881967545,-0.007123936433345079,0.0025518503971397877
1772649239914689300,7.380689208984375,-0.028921011835336685,-0.009861399419605732,0.002752120140939951
1772649239924733200,7.390733154296875,-0.028870677575469017,-0.014043627306818962,0.002958514727652073
1772649239934777300,7.40077734375,-0.03569316491484642,-0.017603475600481033,-0.004442942328751087
1772649239944821200,7.4108212890625,-0.04135805740952492,-0.023749178275465965,-0.024812528863549232
1772649239954865200,7.420865234375,-0.0412086546421051,-0.01626116782426834,-0.043424561619758606
1772649239964909300,7.430909423828125,-0.04214794188737869,-0.015560755506157875,-0.05291716009378433
1772649239974953200,7.440953125,-0.037223223596811295,-0.019113145768642426,-0.04598202183842659
1772649239984997400,7.450997314453125,-0.03534788638353348,-0.012148789130151272,-0.040676698088645935
1772649239995042300,7.461042236328125,-0.035039227455854416,-0.010233709588646889,-0.03446700796484947
1772649240005086200,7.471086181640625,-0.033295389264822006,-0.006462940014898777,-0.03432772308588028
1772649240015130400,7.48113037109375,-0.03597133234143257,-0.014938716776669025,-0.03722817078232765
1772649240025174300,7.49117431640625,-0.035570792853832245,-0.01927194558084011,-0.029771586880087852
1772649240035218200,7.50121826171875,-0.03283200040459633,-0.006777459289878607,-0.01068657636642456
1772649240045262300,7.511262451171875,-0.030631661415100098,0.007837929762899876,0.006411530077457428
1772649240055306200,7.52130615234375,-0.026409750804305077,0.014536844566464424,0.014140555635094643
1772649240065350400,7.531350341796875,-0.026054028421640396,0.010400768369436264,0.013070072047412395
1772649240075394000,7.54139404296875,-0.028739025816321373,-0.0016987728886306286,0.006891005672514439
1772649240085438200,7.551438232421875,-0.024910924956202507,-0.016756096854805946,-0.0006841961294412613
1772649240095482400,7.561482421875,-0.02371569722890854,-0.029929690062999725,-0.00031641358509659767
1772649240105527000,7.571527099609375,-0.01443435251712799,-0.030859893187880516,0.00890390295535326
1772649240115571200,7.5815712890625,-0.012102754786610603,-0.031639933586120605,0.019175982102751732
1772649240125615400,7.591615478515625,-0.009011678397655487,-0.029539840295910835,0.016047578305006027
1772649240135659300,7.6016591796875,-0.0062318709678947926,-0.01873033493757248,0.009675433859229088
1772649240145703400,7.611703369140625,-0.008982853032648563,-0.0071457764133811,-0.003657190129160881
1772649240155747000,7.6217470703125,-0.01741149090230465,-0.004030410200357437,-0.01591705158352852
1772649240165791200,7.631791259765625,-0.020103422924876213,-0.004110570065677166,-0.02355683408677578
1772649240175835400,7.64183544921875,-0.018077289685606956,-0.005011251196265221,-0.030919143930077553
1772649240185879300,7.65187939453125,-0.012350043281912804,0.002407934982329607,-0.023016000166535378
1772649240195923500,7.66192333984375,-0.006143013946712017,0.01480228640139103,-0.01391624566167593
1772649240205968400,7.671968505859375,-0.0019812732934951782,0.012896375730633736,-0.00418940931558609
1772649240216012300,7.68201220703125,-0.0014315969310700893,0.013291589915752411,-0.00018321629613637924
1772649240226056400,7.692056396484375,-0.0004478353075683117,0.02585078775882721,-0.007888246327638626
1772649240236100000,7.70210009765625,0.0029343790374696255,0.027945630252361298,-0.008898116648197174
1772649240246144300,7.712144287109375,0.010294981300830841,0.04902573302388191,-0.014697656035423279
1772649240256188000,7.72218798828125,0.008650745265185833,0.05739205330610275,-0.030316829681396484
1772649240266232000,7.732232177734375,0.0057167490012943745,0.046209968626499176,-0.04478927329182625
1772649240276276200,7.742276123046875,0.00019921211060136557,0.03559887036681175,-0.06034133583307266
1772649240286319900,7.75231982421875,-0.004236842039972544,0.019936975091695786,-0.078087717294693
1772649240296364000,7.762364013671875,-0.009204968810081482,0.014863919466733932,-0.08460474014282227
1772649240306408000,7.772407958984375,-0.016113869845867157,0.021618494763970375,-0.05690108984708786
1772649240316452900,7.782452880859375,-0.008986452594399452,0.012849504128098488,-0.04105847701430321
1772649240326497000,7.7924970703125,-0.012767921201884747,0.02124728634953499,-0.024463307112455368
1772649240336541000,7.802541015625,-0.01143021509051323,0.020997215062379837,-0.024749331176280975
1772649240346585000,7.812585205078125,-0.018338151276111603,0.01168437022715807,-0.02784038335084915
1772649240356629200,7.822629150390625,-0.03180735558271408,-0.011842528358101845,-0.02789391204714775
1772649240366673000,7.8326728515625,-0.04444638639688492,-0.03478531539440155,-0.03258697688579559
1772649240376717000,7.842717041015625,-0.04712472856044769,-0.04599056392908096,-0.03232385590672493
1772649240386761000,7.852760986328125,-0.0504874624311924,-0.05298033729195595,-0.0263415165245533
