time,seconds_elapsed,z,y,x
1772650072019793200,0.063793212890625,0.004894512705504894,-0.12775975465774536,0.02799573540687561
1772650072029838000,0.073838134765625,-0.01083891000598669,-0.11966453492641449,0.04910421371459961
1772650072039882000,0.083882080078125,-0.0036331857554614544,-0.09416506439447403,0.08420324325561523
1772650072049926100,0.093926025390625,0.009120159782469273,-0.06911856681108475,0.1128026694059372
1772650072059971000,0.10397119140625,0.023792199790477753,-0.06580395251512527,0.11897497624158859
1772650072070014700,0.1140146484375,0.031325481832027435,-0.061312269419431686,0.12292497605085373
1772650072080059000,0.124058837890625,0.027727408334612846,-0.04992902651429176,0.13010042905807495
1772650072090103800,0.134103759765625,0.014653948135674,-0.06169247627258301,0.14713454246520996
1772650072100147700,0.144147705078125,-0.002199525246396661,-0.09125262498855591,0.17605330049991608
1772650072110191900,0.15419189453125,-0.007483769208192825,-0.11528099328279495,0.21424409747123718
1772650072120236500,0.164236572265625,-0.0021773651242256165,-0.11387385427951813,0.2844447195529938
1772650072130280700,0.17428076171875,0.017097262665629387,-0.05697701871395111,0.3852118253707886
1772650072140324900,0.184324951171875,0.0319039560854435,0.044849004596471786,0.5283929109573364
1772650072150369500,0.19436962890625,0.036169808357954025,0.14784783124923706,0.6537063121795654
1772650072160413700,0.20441357421875,0.029404697939753532,0.23416176438331604,0.7624190449714661
1772650072170457900,0.214457763671875,0.035557135939598083,0.22354695200920105,0.8348588943481445
1772650072180501800,0.224501708984375,0.03727710247039795,0.1291142851114273,0.8356612324714661
1772650072190546700,0.234546630859375,0.045021574944257736,0.0871167704463005,0.8050559163093567
1772650072200590800,0.2445908203125,0.08980993181467056,0.1613539457321167,0.778309166431427
1772650072210634800,0.254634765625,0.1265205293893814,0.1492892950773239,0.7140646576881409
1772650072220679700,0.2646796875,0.12793633341789246,0.06152527779340744,0.6038283705711365
1772650072230723800,0.274723876953125,0.11529164016246796,0.012128166854381561,0.48370862007141113
1772650072240767700,0.284767822265625,0.10365704447031021,0.007116572931408882,0.37772950530052185
1772650072250812700,0.294812744140625,0.09698688983917236,0.03863375261425972,0.3019780218601227
1772650072260856800,0.30485693359375,0.09230276942253113,0.09568927437067032,0.27384769916534424
1772650072270900700,0.314900634765625,0.09059008955955505,0.23588739335536957,0.3016958236694336
1772650072280945700,0.324945556640625,0.0699174702167511,0.2542388439178467,0.32303234934806824
1772650072290989600,0.334989501953125,0.05808265134692192,0.17054502665996552,0.3393724262714386
1772650072301033700,0.34503369140625,0.07135067880153656,0.16046977043151855,0.36697056889533997
1772650072311079000,0.355078857421875,0.08906389772891998,0.17160364985466003,0.3828379511833191
1772650072321122600,0.36512255859375,0.10338339954614639,0.21975833177566528,0.3968203663825989
1772650072331166700,0.375166748046875,0.11760600656270981,0.29609009623527527,0.417692095041275
1772650072341212000,0.3852119140625,0.11436037719249725,0.3245173990726471,0.4099944233894348
1772650072351255600,0.395255615234375,0.13520467281341553,0.37287163734436035,0.4148046374320984
1772650072361299700,0.4052998046875,0.169664204120636,0.3884793519973755,0.388709157705307
1772650072371345000,0.415344970703125,0.15716572105884552,0.31412550806999207,0.33484432101249695
1772650072381388500,0.425388427734375,0.17459963262081146,0.36087387800216675,0.31093913316726685
1772650072391432700,0.4354326171875,0.20137985050678253,0.2968147397041321,0.28747323155403137
1772650072401478000,0.445477783203125,0.174432635307312,0.3088979125022888,0.28483501076698303
1772650072411521800,0.455521728515625,0.17813549935817719,0.2467205971479416,0.29159677028656006
1772650072421565700,0.465565673828125,0.17584270238876343,0.19997967779636383,0.28532037138938904
1772650072431609900,0.47560986328125,0.18318423628807068,0.2179512232542038,0.26404598355293274
1772650072441654800,0.48565478515625,0.17897826433181763,0.12152992933988571,0.2432040125131607
1772650072451698700,0.49569873046875,0.12390170246362686,0.0417671836912632,0.22450809180736542
1772650072461742600,0.50574267578125,0.10038664191961288,0.05502649024128914,0.21278734505176544
1772650072471787800,0.515787841796875,0.14098572731018066,0.11870906502008438,0.17606689035892487
1772650072481831700,0.525831787109375,0.14993366599082947,0.10491140931844711,0.1171686202287674
1772650072491875600,0.53587548828125,0.1187770739197731,0.18388718366622925,0.055428292602300644
1772650072501920800,0.545920654296875,0.13278651237487793,0.30561354756355286,0.024178659543395042
1772650072511964700,0.555964599609375,0.21541880071163177,0.54071044921875,0.018661389127373695
1772650072522008600,0.566008544921875,0.30091607570648193,0.6158974170684814,-0.0064191659912467
1772650072532053800,0.5760537109375,0.37569230794906616,0.5972233414649963,-0.031338632106781006
1772650072542098000,0.586097900390625,0.4555796682834625,0.5025033950805664,-0.04851805046200752
1772650072552141600,0.5961416015625,0.4861687421798706,0.4258948862552643,-0.07862401753664017
1772650072562186800,0.606186767578125,0.4963144361972809,0.3811311423778534,-0.0843655988574028
1772650072572231000,0.61623095703125,0.4673821032047272,0.47782254219055176,-0.03639780357480049
1772650072582274600,0.626274658203125,0.4277378022670746,0.3645041584968567,-0.03002053126692772
1772650072592319700,0.63631982421875,0.3377509117126465,0.12860429286956787,-0.06078642979264259
1772650072602364000,0.646364013671875,0.3139297068119049,0.13662312924861908,-0.0276597049087286
1772650072612407800,0.65640771484375,0.3162059187889099,0.09904858469963074,-0.02789699099957943
1772650072622452700,0.66645263671875,0.28779226541519165,0.06919123977422714,-0.05319855362176895
1772650072632497000,0.676496826171875,0.25954464077949524,0.24106952548027039,-0.011292382143437862
1772650072642540800,0.686540771484375,0.22013714909553528,0.1613311469554901,-0.02964296005666256
1772650072652585700,0.696585693359375,0.1323806792497635,-0.004927881062030792,-0.058029863983392715
1772650072662630000,0.7066298828125,0.09575073421001434,-0.08252941817045212,-0.05791860818862915
1772650072672673800,0.716673828125,0.06735584139823914,-0.18685369193553925,-0.06977926194667816
1772650072682718700,0.72671875,0.00542086735367775,-0.2395334541797638,-0.06944630295038223
1772650072692763000,0.736762939453125,-0.04963918775320053,-0.2672146260738373,-0.06788595765829086
1772650072702806800,0.746806884765625,-0.09959476441144943,-0.2601580321788788,-0.07162423431873322
1772650072712850700,0.7568505859375,-0.15384095907211304,-0.2496875524520874,-0.07600087672472
1772650072722896000,0.766895751953125,-0.20209553837776184,-0.24718424677848816,-0.08798929303884506
1772650072732939800,0.776939697265625,-0.2411004602909088,-0.29653021693229675,-0.11598790436983109
1772650072742984000,0.78698388671875,-0.26806139945983887,-0.42016592621803284,-0.18874280154705048
1772650072753028900,0.79702880859375,-0.25508859753608704,-0.46419066190719604,-0.29224494099617004
1772650072763072800,0.80707275390625,-0.20938661694526672,-0.4166152775287628,-0.39121297001838684
1772650072773117000,0.817116943359375,-0.15131905674934387,-0.35436493158340454,-0.4602982997894287
1772650072783161600,0.82716162109375,-0.11820904910564423,-0.3487391471862793,-0.49408769607543945
1772650072793205800,0.837205810546875,-0.11056683957576752,-0.41358765959739685,-0.4942499101161957
1772650072803250000,0.84725,-0.12507356703281403,-0.4907374680042267,-0.4705176055431366
1772650072813294600,0.857294677734375,-0.15088626742362976,-0.5757346749305725,-0.4377540647983551
1772650072823338800,0.8673388671875,-0.19067035615444183,-0.6358225345611572,-0.42624223232269287
1772650072833383000,0.8773828125,-0.20986641943454742,-0.5914313197135925,-0.42209887504577637
1772650072843427600,0.887427490234375,-0.22517748177051544,-0.5749129056930542,-0.44832614064216614
1772650072853471700,0.8974716796875,-0.23650524020195007,-0.5408416986465454,-0.4762144982814789
1772650072863516000,0.907515869140625,-0.22277270257472992,-0.4566468596458435,-0.4836563169956207
1772650072873560600,0.917560546875,-0.1911093145608902,-0.3461208939552307,-0.45462438464164734
1772650072883604700,0.927604736328125,-0.1578609049320221,-0.19130057096481323,-0.3943272531032562
1772650072893649000,0.93764892578125,-0.14067339897155762,-0.05362259969115257,-0.3260142505168915
1772650072903693600,0.947693603515625,-0.1343921720981598,0.026644159108400345,-0.25553733110427856
1772650072913737700,0.95773779296875,-0.12416055798530579,0.08339345455169678,-0.1957501769065857
1772650072923781600,0.96778173828125,-0.10841551423072815,0.07260940223932266,-0.1698460727930069
1772650072933826600,0.97782666015625,-0.09332577884197235,-0.00592455267906189,-0.16759544610977173
1772650072943870700,0.98787060546875,-0.07945271581411362,-0.10842609405517578,-0.1706588715314865
1772650072953914600,0.99791455078125,-0.05322456732392311,-0.11252523213624954,-0.14369143545627594
1772650072963959800,1.007959716796875,-0.04158881679177284,-0.05732755735516548,-0.10499570518732071
1772650072974003700,1.018003662109375,-0.027782190591096878,-0.001581469550728798,-0.07325667887926102
1772650072984047600,1.028047607421875,-0.054008953273296356,-0.006584958638995886,-0.06314549595117569
1772650072994091800,1.038091796875,-0.06767922639846802,-0.03864915296435356,-0.06234121695160866
1772650073004136700,1.04813671875,-0.05475755035877228,-0.04936214163899422,-0.06592033803462982
1772650073014180600,1.0581806640625,-0.056784216314554214,-0.05860490724444389,-0.08868983387947083
1772650073024224800,1.068224853515625,-0.019917892292141914,-0.03638190031051636,-0.12650462985038757
1772650073034269700,1.078269775390625,0.0045411111786961555,-0.14316479861736298,-0.19180692732334137
1772650073044313600,1.088313720703125,-0.004232841543853283,-0.2578425407409668,-0.25647202134132385
1772650073054357800,1.098357666015625,-0.009971154853701591,-0.20250524580478668,-0.24365182220935822
1772650073064403000,1.10840283203125,0.015430090948939323,-0.04402042180299759,-0.150689497590065
1772650073074447000,1.118447021484375,0.024898162111639977,0.03448477014899254,-0.06845960021018982
1772650073084491300,1.1284912109375,0.01716049201786518,0.06350062042474747,-0.016228454187512398
1772650073094536200,1.1385361328125,0.007256729993969202,0.10171165317296982,0.005479238927364349
1772650073104580000,1.148580078125,-0.0005228894879110157,0.11906681954860687,-0.005714823957532644
1772650073114624300,1.158624267578125,-0.0008994604577310383,0.09923584759235382,-0.036541447043418884
1772650073124669200,1.168669189453125,-0.006084086373448372,0.07782973349094391,-0.07586604356765747
1772650073134713000,1.178713134765625,0.02570953033864498,0.06332136690616608,-0.10714726895093918
1772650073144757200,1.18875732421875,0.05869226157665253,0.03846485912799835,-0.12526406347751617
1772650073154802200,1.19880224609375,0.05156005173921585,-0.007038711104542017,-0.11997049301862717
1772650073164846000,1.20884619140625,0.033660680055618286,-0.037757210433483124,-0.10342800617218018
1772650073174890200,1.21889013671875,-0.0009793228236958385,-0.10909236967563629,-0.0922887995839119
1772650073184935200,1.22893505859375,-0.030443092808127403,-0.1280277520418167,-0.09684190899133682
1772650073194979000,1.23897900390625,-0.04059825465083122,-0.12249104678630829,-0.0937715470790863
1772650073205023000,1.24902294921875,-0.05728920176625252,-0.13920633494853973,-0.0983075425028801
1772650073215068200,1.259068115234375,-0.07639871537685394,-0.1718476414680481,-0.11787911504507065
1772650073225112300,1.2691123046875,-0.08559055626392365,-0.2331683188676834,-0.1306346207857132
1772650073235156000,1.279156005859375,-0.10031011700630188,-0.27013540267944336,-0.1271488070487976
1772650073245201200,1.289201171875,-0.10661894828081131,-0.1774212121963501,-0.0987900048494339
1772650073255245300,1.299245361328125,-0.12146980315446854,-0.1243491992354393,-0.08985669910907745
1772650073265289000,1.3092890625,-0.138889342546463,-0.10182153433561325,-0.10141591727733612
1772650073275333000,1.3193330078125,-0.137656569480896,-0.03314792737364769,-0.11185097694396973
1772650073285378300,1.32937841796875,-0.11446382105350494,0.009125502780079842,-0.11737034469842911
1772650073295422000,1.339421875,-0.0948570966720581,0.014456085860729218,-0.13576534390449524
1772650073305466000,1.349466064453125,-0.09915006905794144,-0.037523433566093445,-0.1582736074924469
1772650073315511300,1.35951123046875,-0.11226054280996323,-0.10522951185703278,-0.19445984065532684
1772650073325555200,1.36955517578125,-0.11737985908985138,-0.14448583126068115,-0.22555594146251678
1772650073335599000,1.37959912109375,-0.1045205146074295,-0.13584519922733307,-0.2313552349805832
1772650073345644300,1.389644287109375,-0.08256419748067856,-0.09760908782482147,-0.21725548803806305
1772650073355688200,1.399688232421875,-0.054270774126052856,-0.07938055694103241,-0.2009476274251938
1772650073365732000,1.409732177734375,-0.034334633499383926,-0.08862369507551193,-0.18504686653614044
1772650073375777300,1.41977734375,-0.026903878897428513,-0.11123126745223999,-0.1961253583431244
1772650073385821200,1.4298212890625,-0.02713216096162796,-0.14329178631305695,-0.22153453528881073
1772650073395865000,1.439864990234375,-0.028295695781707764,-0.17628569900989532,-0.24358046054840088
1772650073405910300,1.44991015625,-0.030244871973991394,-0.18407371640205383,-0.24969694018363953
1772650073415954200,1.4599541015625,-0.02112913690507412,-0.2122475653886795,-0.2659943997859955
1772650073425998300,1.469998291015625,-0.011058153584599495,-0.27248433232307434,-0.2625611424446106
1772650073436043300,1.480043212890625,0.03528431057929993,-0.0609276257455349,-0.19315782189369202
1772650073446087200,1.490087158203125,0.01666278764605522,-0.03594040125608444,-0.18317902088165283
1772650073456131300,1.50013134765625,0.013614267110824585,-0.0728083997964859,-0.1809193193912506
1772650073466176300,1.51017626953125,0.031154563650488853,-0.05310288444161415,-0.15788862109184265
1772650073476220200,1.52022021484375,0.04859480634331703,-0.021722590550780296,-0.1422012597322464
1772650073486264300,1.530264404296875,0.05174259468913078,0.004771301057189703,-0.1290866583585739
1772650073496309200,1.540309326171875,0.056087005883455276,0.037053339183330536,-0.12049264460802078
1772650073506353200,1.550353271484375,0.0531054362654686,0.05387544631958008,-0.1212407797574997
1772650073516397300,1.560397216796875,0.05396457016468048,0.05926435440778732,-0.13069447875022888
1772650073526441200,1.570441162109375,0.04738418012857437,0.04454303905367851,-0.14693133533000946
1772650073536486100,1.580486083984375,0.04440916329622269,0.015194740146398544,-0.14823707938194275
1772650073546530300,1.5905302734375,0.042458102107048035,-0.007444476708769798,-0.1199951246380806
1772650073556574200,1.60057421875,0.040859404951334,-0.01683984324336052,-0.07449448853731155
1772650073566619100,1.610619140625,0.038631852716207504,-0.014231685549020767,-0.04363727197051048
1772650073576663300,1.620663330078125,0.03846833109855652,-0.0020261514000594616,-0.02177698165178299
1772650073586707200,1.630707275390625,0.03342737257480621,0.014624398201704025,-0.01512546930462122
1772650073596752100,1.640752197265625,0.02629515901207924,0.012334879487752914,-0.020223824307322502
1772650073606796300,1.65079638671875,0.01632758229970932,0.0021075247786939144,-0.02489880472421646
1772650073616840200,1.660840087890625,0.015361654572188854,0.00000708969309926033,-0.021113388240337372
1772650073626885000,1.670885009765625,0.019590578973293304,-0.004108577035367489,-0.01287336926907301
1772650073636929300,1.68092919921875,0.031022995710372925,-0.023378144949674606,-0.005869522225111723
1772650073646973200,1.69097314453125,0.04560583829879761,-0.028241459280252457,0.011188358999788761
1772650073657018000,1.70101806640625,0.051962535828351974,-0.0027262456715106964,0.03275197371840477
1772650073667062300,1.711062255859375,0.05676714703440666,0.013935289345681667,0.04394550621509552
1772650073677106200,1.721106201171875,0.05692773312330246,0.006146874278783798,0.05562186613678932
1772650073687151000,1.731151123046875,0.06425812095403671,-0.017752783372998238,0.055560152977705
1772650073697195000,1.741195068359375,0.07084331661462784,-0.02975005842745304,0.06419811397790909
1772650073707239200,1.7512392578125,0.07208830118179321,-0.016254547983407974,0.08215051144361496
1772650073717284000,1.7612841796875,0.06892979145050049,0.003609172999858856,0.0920042097568512
1772650073727328000,1.771327880859375,0.06274629384279251,0.0016345558688044548,0.08393982797861099
1772650073737372200,1.7813720703125,0.06112123653292656,-0.016279462724924088,0.06657202541828156
1772650073747416300,1.791416259765625,0.06610675156116486,-0.035493627190589905,0.0487283430993557
1772650073757461000,1.8014609375,0.0679219663143158,-0.04877587780356407,0.021836809813976288
1772650073767505200,1.811505126953125,0.06508520990610123,-0.055214811116456985,0.013028370216488838
1772650073777549300,1.82154931640625,0.055936723947525024,-0.047691382467746735,0.014762887731194496
1772650073787594000,1.831593994140625,0.04957950487732887,-0.04017183929681778,0.003754877019673586
1772650073797638100,1.84163818359375,0.04968869686126709,-0.038169410079717636,-0.015996988862752914
1772650073807682300,1.851682373046875,0.052422214299440384,-0.05212751030921936,-0.03231474384665489
1772650073817727000,1.86172705078125,0.05319772660732269,-0.04840627685189247,-0.044670477509498596
1772650073827771100,1.871771240234375,0.04935216158628464,-0.03512953221797943,-0.04145864024758339
1772650073837815300,1.881815185546875,0.042586665600538254,-0.005808396730571985,-0.03947698324918747
1772650073847860200,1.891860107421875,0.032382991164922714,0.013415548019111156,-0.0363190695643425
1772650073857904000,1.901904052734375,0.022816918790340424,0.013326064683496952,-0.040271468460559845
1772650073867948000,1.911947998046875,0.012141522951424122,-0.000483448151499033,-0.05398019403219223
1772650073877993200,1.9219931640625,0.0030223268549889326,-0.01458701677620411,-0.062441855669021606
1772650073888037000,1.932037109375,-0.0035605882294476032,-0.04077383503317833,-0.06527581810951233
1772650073898081000,1.9420810546875,-0.0029014560859650373,-0.05361506715416908,-0.06187682971358299
1772650073908126200,1.952126220703125,-0.002943186555057764,-0.030214395374059677,-0.04173184558749199
1772650073918170000,1.962170166015625,-0.00042250449769198895,-0.010042015463113785,-0.03024803102016449
1772650073928214000,1.972214111328125,0.002886940725147724,0.0008179224096238613,-0.026166334748268127
1772650073938258200,1.982258056640625,0.0017433792818337679,0.0029146289452910423,-0.023489592596888542
1772650073948303000,1.99230322265625,0.001534201204776764,-0.005637405905872583,-0.01709784008562565
1772650073958347000,2.002346923828125,0.0025051895063370466,-0.011480914428830147,-0.011829840950667858
1772650073968391200,2.01239111328125,-0.002865841146558523,-0.016939379274845123,-0.006973234470933676
1772650073978436400,2.022436279296875,-0.0019744811579585075,-0.03299158066511154,-0.004059203434735537
1772650073988480000,2.03247998046875,-0.0028058160096406937,-0.03386804461479187,0.0006694394396618009
1772650073998524200,2.042524169921875,-0.00020017928909510374,-0.011049814522266388,0.002904364373534918
1772650074008569300,2.0525693359375,-0.004368646536022425,0.004726610146462917,-0.0005937321693636477
1772650074018613000,2.062613037109375,-0.0062589580193161964,0.02246645838022232,-0.013334294781088829
1772650074028657200,2.0726572265625,-0.007300666533410549,0.02967572957277298,-0.02518659271299839
1772650074038702300,2.082702392578125,-0.003958932124078274,0.03585665673017502,-0.02338496409356594
1772650074048746000,2.09274609375,-0.0019015916623175144,0.054335325956344604,-0.008359176106750965
1772650074058790100,2.1027900390625,-0.0045288000255823135,0.06579597294330597,-0.0069567556492984295
1772650074068834600,2.11283447265625,-0.004176778718829155,0.06084989383816719,-0.02121475338935852
1772650074078878700,2.122878662109375,0.00010585051495581865,0.050160229206085205,-0.04672570526599884
1772650074088922600,2.132922607421875,0.0042935023084282875,0.026512008160352707,-0.06777060776948929
1772650074098967600,2.142967529296875,0.006544406060129404,0.008456308394670486,-0.06520251929759979
1772650074109011700,2.15301171875,0.009815072640776634,-0.002466296311467886,-0.04834118112921715
1772650074119055600,2.1630556640625,0.0109040392562747,-0.013793518766760826,-0.03071664646267891
1772650074129099500,2.173099609375,0.007128573954105377,-0.024289719760417938,-0.013322808779776096
1772650074139144700,2.183144775390625,0.018954340368509293,-0.024699315428733826,-0.009316882118582726
1772650074149188600,2.193188720703125,0.028904492035508156,-0.022901354357600212,-0.007656434550881386
1772650074159232500,2.203232421875,0.03390670567750931,-0.02920958399772644,-0.005853740964084864
1772650074169277400,2.21327734375,0.03402691334486008,-0.02271481789648533,0.01270363014191389
1772650074179321600,2.223321533203125,0.022999029606580734,-0.0205648485571146,0.02218661457300186
1772650074189365500,2.233365478515625,0.019760044291615486,-0.013346407562494278,0.031448058784008026
1772650074199410400,2.243410400390625,0.02664777636528015,-0.010092025622725487,0.03634507954120636
1772650074209454600,2.25345458984375,0.035004012286663055,-0.024163419380784035,0.03541463613510132
1772650074219498800,2.263498779296875,0.0437072217464447,-0.039624668657779694,0.03407799452543259
1772650074229543400,2.27354345703125,0.04699196293950081,-0.04465164989233017,0.027618763968348503
1772650074239587600,2.283587646484375,0.04928068444132805,-0.035538047552108765,0.02844035066664219
1772650074249631700,2.2936318359375,0.0524950735270977,-0.038809265941381454,0.02840070240199566
1772650074259676400,2.303676513671875,0.05331718921661377,-0.03783268481492996,0.03206814080476761
1772650074269720600,2.313720458984375,0.053562767803668976,-0.039708398282527924,0.03073209896683693
1772650074279764700,2.3237646484375,0.04678608849644661,-0.027143605053424835,0.01997639238834381
1772650074289809400,2.333809326171875,0.03920214995741844,-0.011963911354541779,0.0008802282391116023
1772650074299853600,2.343853515625,0.028093308210372925,-0.015439602546393871,-0.01923728920519352
1772650074309897700,2.353897705078125,0.023131703957915306,-0.03681859374046326,-0.03180714324116707
1772650074319942400,2.3639423828125,0.01593797281384468,-0.051736027002334595,-0.0179137010127306
1772650074329986600,2.373986572265625,0.01141967624425888,-0.04263070225715637,0.0073854317888617516
1772650074340030500,2.384030517578125,0.003928736783564091,-0.028971349820494652,0.03461092710494995
1772650074350074600,2.39407470703125,-0.005992457270622253,-0.01462445966899395,0.051259845495224
1772650074360119600,2.40411962890625,-0.018529288470745087,0.001754780299961567,0.0633159726858139
1772650074370163500,2.41416357421875,-0.03190218284726143,0.015488320030272007,0.05715535208582878
1772650074380207600,2.42420751953125,-0.0381142720580101,0.011989724822342396,0.042312491685152054
1772650074390252500,2.43425244140625,-0.04282110184431076,0.0002745632082223892,0.026278728619217873
1772650074400296400,2.44429638671875,-0.04775327816605568,-0.007110915146768093,0.010889919474720955
1772650074410340600,2.454340576171875,-0.05299784615635872,-0.011880503967404366,-0.0028815530240535736
1772650074420385500,2.464385498046875,-0.05366896465420723,-0.018318429589271545,-0.010003112256526947
1772650074430429400,2.474429443359375,-0.05242028832435608,-0.025699656456708908,-0.013639425858855247
1772650074440473600,2.4844736328125,-0.04473999887704849,-0.02938280813395977,-0.007070206105709076
1772650074450518500,2.4945185546875,-0.0371355265378952,-0.02405727468430996,0.01290326938033104
1772650074460562400,2.5045625,-0.03080972284078598,-0.00944530963897705,0.0434127077460289
1772650074470606600,2.514606689453125,-0.028936009854078293,0.007007291074842215,0.06860111653804779
1772650074480651500,2.524651611328125,-0.0277748703956604,0.01710306853055954,0.07455301284790039
1772650074490695400,2.5346953125,-0.02014615759253502,0.016505597159266472,0.060538966208696365
1772650074500739600,2.544739501953125,-0.011021102778613567,0.014353763312101364,0.03981531038880348
1772650074510784500,2.554784423828125,0.00534030981361866,0.006692222785204649,0.032362088561058044
1772650074520828400,2.564828369140625,0.015075761824846268,-0.000027731526643037796,0.026043204590678215
1772650074530872600,2.57487255859375,0.016347171738743782,-0.004347270354628563,0.01735001616179943
1772650074540917800,2.584917724609375,0.016955703496932983,-0.002395173069089651,0.008988754823803902
1772650074550961400,2.59496142578125,0.013112963177263737,-0.004382324405014515,-0.007243344560265541
1772650074561005600,2.605005615234375,0.013042922131717205,0.0034676091745495796,-0.02602076157927513
1772650074571049500,2.615049560546875,0.009352095425128937,0.004584863316267729,-0.04804007709026337
1772650074581094400,2.625094482421875,0.014501849189400673,0.008381465449929237,-0.0528007447719574
1772650074591138600,2.635138671875,0.018649578094482422,0.028026899322867393,-0.04330700635910034
1772650074601182500,2.645182373046875,0.01942349225282669,0.04604371637105942,-0.02976030483841896
1772650074611227400,2.655227294921875,0.023820284754037857,0.06253519654273987,-0.02014552801847458
1772650074621271600,2.665271484375,0.024419495835900307,0.07447894662618637,-0.021808672696352005
1772650074631315500,2.6753154296875,0.02754942700266838,0.07581530511379242,-0.026764849200844765
1772650074641360600,2.685360595703125,0.03131327033042908,0.061538103967905045,-0.030573967844247818
1772650074651404500,2.695404541015625,0.0344865508377552,0.04225184768438339,-0.02823774144053459
1772650074661448400,2.705448486328125,0.03330517187714577,0.028781315311789513,-0.0313778780400753
1772650074671493600,2.71549365234375,0.037592560052871704,0.01660379394888878,-0.03753623366355896
1772650074681537500,2.72553759765625,0.04279344901442528,0.009877447038888931,-0.04956946149468422
1772650074691581400,2.73558154296875,0.04197460785508156,0.003967900760471821,-0.05995762348175049
1772650074701626600,2.745626708984375,0.041112810373306274,0.005056068301200867,-0.05959330499172211
1772650074711670500,2.75567041015625,0.03524019941687584,-0.004569428041577339,-0.05137305334210396
1772650074721714400,2.76571435546875,0.030095506459474564,-0.004689004272222519,-0.03116791881620884
1772650074731759600,2.775759521484375,0.018310774117708206,0.005424591712653637,-0.015747517347335815
1772650074741803500,2.785803466796875,0.006882617250084877,0.005586246028542519,-0.006195557303726673
1772650074751847400,2.795847412109375,-0.003486351575702429,0.0015659956261515617,-0.010807120241224766
1772650074761891600,2.8058916015625,-0.007689086254686117,0.001235763542354107,-0.01276081521064043
1772650074771936800,2.815936767578125,-0.011085051111876965,0.004719028249382973,-0.015563593246042728
1772650074781980400,2.82598046875,-0.01746997982263565,0.0024526789784431458,-0.013128664344549179
1772650074792024600,2.836024658203125,-0.021373091265559196,0.0023672995157539845,-0.0007775559788569808
1772650074802069500,2.846069580078125,-0.021498793736100197,-0.0005163713358342648,0.014800339005887508
1772650074812113400,2.856113525390625,-0.02338283509016037,-0.004395090974867344,0.026969021186232567
1772650074822157600,2.866157470703125,-0.024800434708595276,0.004041803535073996,0.03726373240351677
1772650074832202500,2.876202392578125,-0.02303207293152809,0.008576342836022377,0.033629752695560455
1772650074842246700,2.88624658203125,-0.020817656069993973,0.013493603095412254,0.02397526055574417
1772650074852290600,2.89629052734375,-0.014799781143665314,0.013132445514202118,0.02478792518377304
1772650074862335500,2.90633544921875,-0.012232759967446327,0.02019514888525009,0.02370055578649044
1772650074872379600,2.916379638671875,-0.006594858132302761,0.026217112317681313,0.015397452749311924
1772650074882423600,2.926423583984375,0.0005059281829744577,0.029070956632494926,0.002463278127834201
1772650074892468500,2.936468505859375,0.00961117260158062,0.02707759663462639,-0.015115383081138134
1772650074902512600,2.9465126953125,0.01960441842675209,0.016759447753429413,-0.02860455960035324
1772650074912556500,2.956556640625,0.026537127792835236,0.0038793841376900673,-0.030779097229242325
1772650074922600400,2.966600341796875,0.022457163780927658,-0.006435837596654892,-0.023851148784160614
1772650074932645600,2.976645751953125,0.015078294090926647,-0.01999564655125141,-0.019786067306995392
1772650074942689500,2.986689453125,0.010347189381718636,-0.020149311050772667,-0.011361956596374512
1772650074952733400,2.9967333984375,0.01033112220466137,-0.017321709543466568,-0.009665556252002716
1772650074962778600,3.006778564453125,0.010475732386112213,-0.01234159804880619,-0.010575825348496437
1772650074972822500,3.016822509765625,0.011159067042171955,-0.003850057953968644,-0.009665090590715408
1772650074982866400,3.026866455078125,0.0028508028481155634,0.005841451697051525,-0.006011766381561756
1772650074992911600,3.03691162109375,-0.006544910371303558,0.022443324327468872,-0.00048068008618429303
1772650075002955500,3.04695556640625,-0.01575971394777298,0.031164109706878662,0.0029976745136082172
1772650075012999400,3.05699951171875,-0.012422523461282253,0.023797165602445602,0.0024720667861402035
1772650075023044600,3.067044677734375,-0.00789062213152647,0.0142507990822196,0.001009991392493248
1772650075033088500,3.077088623046875,-0.004192573018372059,-0.0017040413804352283,-0.004360971972346306
1772650075043132400,3.08713232421875,-0.004152892157435417,-0.023885244503617287,-0.004974298179149628
1772650075053177600,3.097177490234375,0.001282032229937613,-0.03743293508887291,-0.006076814606785774
1772650075063221500,3.107221435546875,0.0028535635210573673,-0.03172764554619789,0.01211657002568245
1772650075073265700,3.117265625,0.004715733230113983,-0.013465143740177155,0.03020879067480564
1772650075083310800,3.127310791015625,0.012327846139669418,-0.0021946453489363194,0.036411821842193604
1772650075093355000,3.13735498046875,0.02094786986708641,0.004783784970641136,0.029571296647191048
1772650075103399000,3.14739892578125,0.03448258340358734,0.006763312965631485,0.014824573881924152
1772650075113442800,3.15744287109375,0.045882079750299454,-0.005039700306952,0.0014722158666700125
1772650075123488000,3.167488037109375,0.05066618323326111,-0.012093881145119667,-0.0060845036059618
1772650075133532000,3.177531982421875,0.05739538371562958,-0.02007647417485714,-0.008607449941337109
1772650075143575800,3.187575927734375,0.061121415346860886,-0.02674929052591324,-0.01647895574569702
1772650075153621000,3.19762109375,0.06705677509307861,-0.020501598715782166,-0.030908025801181793
1772650075163665000,3.207664794921875,0.06975509226322174,-0.012932893820106983,-0.05046921223402023
1772650075173708800,3.217708740234375,0.07499194890260696,-0.004875658079981804,-0.06140212342143059
1772650075183754000,3.22775390625,0.07296181470155716,0.013354744762182236,-0.06748770922422409
1772650075193798000,3.2377978515625,0.06419801712036133,0.030069075524806976,-0.07141374051570892
1772650075203842000,3.247842041015625,0.06268187612295151,0.0350947268307209,-0.07845088094472885
1772650075213887000,3.257886962890625,0.05026970058679581,0.021748937666416168,-0.07908693701028824
1772650075223931000,3.267930908203125,0.045132461935281754,-0.003375857602804899,-0.07861635833978653
1772650075233975000,3.27797509765625,0.040003422647714615,-0.022142654284834862,-0.07398605346679688
1772650075244020000,3.28802001953125,0.03905347362160683,-0.021976206451654434,-0.05589493736624718
1772650075254063900,3.29806396484375,0.03220916539430618,-0.022629905492067337,-0.03319025784730911
1772650075264108000,3.30810791015625,0.02544233947992325,-0.026203598827123642,-0.0010501638753339648
1772650075274153000,3.318153076171875,0.023941174149513245,-0.017185304313898087,0.041925396770238876
1772650075284196900,3.32819677734375,0.02006867155432701,-0.0028329966589808464,0.08400574326515198
1772650075294241000,3.338240966796875,0.014417774975299835,0.0068994248285889626,0.11892044544219971
1772650075304285000,3.348284912109375,0.02251698076725006,0.01028004102408886,0.12496715784072876
1772650075314329900,3.358329833984375,0.029303373768925667,0.006159823387861252,0.11439397931098938
1772650075324374000,3.3683740234375,0.03794506564736366,-0.005842510610818863,0.08927344530820847
1772650075334418000,3.37841796875,0.038525596261024475,-0.02066122181713581,0.0607791468501091
1772650075344462800,3.388462890625,0.039902981370687485,-0.019903818145394325,0.040545783936977386
1772650075354507000,3.398507080078125,0.04046392813324928,-0.014280278235673904,0.03709222748875618
1772650075364551000,3.408551025390625,0.039757125079631805,-0.013662159442901611,0.029897432774305344
1772650075374595800,3.418595947265625,0.042069680988788605,-0.017050832509994507,0.01639094576239586
1772650075384640000,3.428639892578125,0.04308328032493591,-0.01724897138774395,0.0030583618208765984
1772650075394684000,3.438683837890625,0.04245056211948395,-0.006660450715571642,-0.0026251235976815224
1772650075404728800,3.448728759765625,0.05038997903466225,0.014278385788202286,-0.002198751550167799
1772650075414773000,3.45877294921875,0.05715591087937355,0.021815283223986626,0.0013156221248209476
1772650075424817000,3.46881689453125,0.06089258939027786,0.016629310324788094,0.00286398408934474
1772650075434861800,3.47886181640625,0.056655216962099075,0.012195304036140442,-0.01136944629251957
1772650075444905700,3.48890576171875,0.05582590773701668,0.020931538194417953,-0.026950538158416748
1772650075454950000,3.498949951171875,0.05585886910557747,0.015394393354654312,-0.04263455793261528
1772650075464994000,3.508994140625,0.05925146862864494,0.003243188839405775,-0.04552595317363739
1772650075475038700,3.519038818359375,0.063877172768116,-0.010433841496706009,-0.043354276567697525
1772650075485083000,3.529082763671875,0.06565377116203308,-0.01023117545992136,-0.03585108742117882
1772650075495127000,3.539126953125,0.06095435842871666,-0.011784862726926804,-0.03678425773978233
1772650075505171700,3.549171630859375,0.05572870373725891,-0.02013573795557022,-0.04060296341776848
1772650075515216000,3.5592158203125,0.05155419558286667,-0.02493741735816002,-0.03561060130596161
1772650075525260000,3.569260009765625,0.0447000190615654,-0.028706055134534836,-0.023483633995056152
1772650075535304700,3.5793046875,0.04098496586084366,-0.035035133361816406,-0.0021698575001209974
1772650075545348900,3.589348876953125,0.04177059605717659,-0.03525031730532646,0.02078872174024582
1772650075555393000,3.59939306640625,0.03984253108501434,-0.03450459986925125,0.03501333296298981
1772650075565437700,3.609437744140625,0.03602861613035202,-0.03646282106637955,0.042105596512556076
1772650075575481900,3.61948193359375,0.034146998077631,-0.037568412721157074,0.04682132229208946
1772650075585526000,3.629526123046875,0.030293399468064308,-0.02870727889239788,0.044005561619997025
1772650075595570700,3.63957080078125,0.024550609290599823,-0.02109457552433014,0.03462773561477661
1772650075605614800,3.64961474609375,0.01553474459797144,-0.022757187485694885,0.02722122147679329
1772650075615658800,3.65965869140625,0.008133884519338608,-0.01953672617673874,0.013436567038297653
1772650075625704000,3.669703857421875,0.0044768317602574825,-0.011203695088624954,0.003311761189252138
1772650075635747800,3.679747802734375,-0.0061912210658192635,-0.008344175294041634,-0.014180612750351429
1772650075645791700,3.689791748046875,-0.015968484804034233,-0.01872171461582184,-0.03752082586288452
1772650075655836000,3.6998359375,-0.025968778878450394,-0.027577217668294907,-0.06010106950998306
1772650075665880800,3.709880859375,-0.03215716779232025,-0.0433170311152935,-0.06303960084915161
1772650075675924700,3.7199248046875,-0.028885716572403908,-0.0372980460524559,-0.050854139029979706
1772650075685969000,3.729968994140625,-0.026774628087878227,-0.028474994003772736,-0.036407556384801865
1772650075696013800,3.740013916015625,-0.020382309332489967,-0.0225866436958313,-0.01980580948293209
1772650075706057700,3.7500576171875,-0.016054140403866768,-0.003232121467590332,0.005088622681796551
1772650075716102000,3.760101806640625,-0.014309123158454895,0.005069176200777292,0.016806896775960922
1772650075726146800,3.770146728515625,-0.011846231296658516,-0.003851881017908454,0.02984440140426159
1772650075736190700,3.780190673828125,-0.01344564463943243,-0.022710248827934265,0.028287285938858986
1772650075746235000,3.79023486328125,-0.01653863862156868,-0.0350758396089077,0.026897914707660675
1772650075756280000,3.800280029296875,-0.0152099234983325,-0.03664400801062584,0.021071316674351692
1772650075766323700,3.81032373046875,-0.014747332781553268,-0.035300977528095245,0.018923742696642876
1772650075776367900,3.820367919921875,-0.014969315379858017,-0.03838815167546272,0.013224678114056587
1772650075786413000,3.8304130859375,-0.010721839964389801,-0.03440646082162857,0.013864370062947273
1772650075796456700,3.840456787109375,-0.012376847676932812,-0.037253472954034805,0.02201780304312706
1772650075806500900,3.8505009765625,-0.015209118835628033,-0.036588747054338455,0.02040179818868637
1772650075816544800,3.860544677734375,-0.019306430593132973,-0.033899568021297455,0.014871678315103054
1772650075826589700,3.870589599609375,-0.02541998401284218,-0.014793786220252514,0.013564331457018852
1772650075836633900,3.8806337890625,-0.03107920102775097,-0.0006622541695833206,0.013624519109725952
1772650075846677800,3.890677734375,-0.033297616988420486,0.0030246255919337273,0.005772721488028765
1772650075856723000,3.900722900390625,-0.030948255211114883,-0.0008697230368852615,0.001105498755350709
1772650075866766800,3.910766845703125,-0.02670450694859028,0.0006685187108814716,-0.004093790426850319
1772650075876810800,3.920810791015625,-0.023295465856790543,-0.000970157328993082,-0.006921935826539993
1772650075886856000,3.93085595703125,-0.01918647438287735,0.0034155361354351044,-0.008985352702438831
1772650075896899800,3.94089990234375,-0.015789225697517395,0.004423101898282766,-0.021113287657499313
1772650075906943700,3.95094384765625,-0.011616053059697151,0.00903596356511116,-0.03198884055018425
1772650075916989000,3.960989013671875,-0.006379593629390001,0.008734269067645073,-0.04150760546326637
1772650075927032800,3.97103271484375,-0.003213095013052225,-0.0007505794055759907,-0.04492417722940445
1772650075937076700,3.98107666015625,-0.001335115171968937,-0.0060390932485461235,-0.03355597332119942
1772650075947122000,3.991121826171875,0.005678852088749409,-0.007937394082546234,-0.01763053983449936
1772650075957166000,4.001166015625,0.013262687250971794,-0.009042398072779179,-0.00906737707555294
1772650075967209700,4.011209716796875,0.025413092225790024,-0.009355586022138596,-0.005663590971380472
1772650075977254000,4.02125390625,0.029162568971514702,-0.009709544479846954,-0.010044857859611511
1772650075987299000,4.031299072265625,0.0333637036383152,-0.0067963129840791225,-0.01121052261441946
1772650075997342700,4.0413427734375,0.02998224087059498,-0.0008298251777887344,-0.001265979721210897
1772650076007387000,4.051386962890625,0.019898980855941772,-0.005018711090087891,0.009159496985375881
1772650076017432000,4.06143212890625,0.015618828125298023,-0.01618107780814171,0.012961458414793015
1772650076027475700,4.071475830078125,0.013990839011967182,-0.030600761994719505,0.020288346335291862
1772650076037520000,4.081519775390625,0.021792026236653328,-0.03701895475387573,0.026681631803512573
1772650076047565000,4.09156494140625,0.033140819519758224,-0.04142249375581741,0.03297867998480797
1772650076057609000,4.10160888671875,0.039765916764736176,-0.04297703877091408,0.032732900232076645
1772650076067652900,4.11165283203125,0.04279526323080063,-0.03419659659266472,0.03126177191734314
1772650076077697800,4.12169775390625,0.03968212381005287,-0.030047273263335228,0.020471639931201935
1772650076087741700,4.13174169921875,0.033623434603214264,-0.043979331851005554,0.00943044014275074
1772650076097785600,4.14178564453125,0.029828744009137154,-0.06053641438484192,0.002556788269430399
1772650076107829500,4.15182958984375,0.01740429922938347,-0.06636074930429459,-0.0017543367575854063
1772650076117874700,4.161874755859375,0.014943989925086498,-0.050845447927713394,0.0018267827108502388
1772650076127918800,4.1719189453125,0.01070823147892952,-0.03618794307112694,0.003187658032402396
1772650076137962500,4.18196240234375,0.007491883356124163,-0.038961149752140045,0.0024968674406409264
1772650076148007700,4.192007568359375,0.0028883428312838078,-0.051421280950307846,0.012472801841795444
1772650076158051800,4.2020517578125,0.0005892142653465271,-0.05930687487125397,0.02590402215719223
1772650076168095500,4.212095458984375,-0.0027455962263047695,-0.052732329815626144,0.029053743928670883
1772650076178140700,4.222140625,-0.016769204288721085,-0.04775657877326012,0.02973298169672489
1772650076188184800,4.232184814453125,-0.028866348788142204,-0.03175417706370354,0.02568950317800045
1772650076198228500,4.242228515625,-0.03431260958313942,-0.026141148060560226,0.02917644754052162
1772650076208273700,4.252273681640625,-0.039399780333042145,-0.013441866263747215,0.0315844789147377
1772650076218317800,4.26231787109375,-0.040173161774873734,-0.0016256864182651043,0.025104207918047905
1772650076228361700,4.27236181640625,-0.0402088463306427,0.00019138865172863007,0.01213727705180645
1772650076238405600,4.282405517578125,-0.04074700176715851,0.000669991597533226,0.0006258966168388724
1772650076248450800,4.292450927734375,-0.04008866846561432,-0.00647979648783803,-0.004046885762363672
1772650076258494700,4.30249462890625,-0.042950764298439026,-0.020462723448872566,-0.012933854013681412
1772650076268538600,4.31253857421875,-0.03920289874076843,-0.01855243742465973,-0.011095740832388401
1772650076278583800,4.322583740234375,-0.034750331193208694,-0.003559956792742014,-0.005513688549399376
1772650076288627700,4.332627685546875,-0.02876593917608261,0.008299099281430244,-0.000954356393776834
1772650076298671600,4.342671630859375,-0.02245553582906723,0.00970810279250145,0.005076603963971138
1772650076308716800,4.352716796875,-0.01723121479153633,0.018392404541373253,0.011062057688832283
1772650076318760700,4.3627607421875,-0.015096049755811691,0.035421837121248245,0.02629580721259117
1772650076328804600,4.3728046875,-0.014888321980834007,0.03256985917687416,0.03779160603880882
1772650076338849800,4.382849853515625,-0.009778803214430809,0.017636209726333618,0.042627476155757904
1772650076348893700,4.392893798828125,-0.005029588006436825,0.00888852309435606,0.02978677675127983
1772650076358937900,4.402937744140625,0.003997397143393755,-0.0013578888028860092,0.017340628430247307
1772650076368982500,4.412982421875,0.009137297980487347,-0.011854471638798714,0.009287761524319649
1772650076379026700,4.423026611328125,0.010037913918495178,-0.010613339021801949,0.01375161949545145
1772650076389070800,4.43307080078125,0.004029556643217802,0.001470488030463457,0.023132603615522385
1772650076399114500,4.443114501953125,0.00008967600297182798,0.013963377103209496,0.03556956723332405
1772650076409159700,4.45315966796875,-0.007700869347900152,0.013904521241784096,0.04267008602619171
1772650076419203800,4.463203857421875,-0.011909065768122673,0.017490800470113754,0.04475214332342148
1772650076429247700,4.473247802734375,-0.01784924603998661,0.017332077026367188,0.052261460572481155
1772650076439292700,4.483292724609375,-0.028639722615480423,0.005559131503105164,0.05110468342900276
1772650076449336800,4.4933369140625,-0.03595222905278206,-0.0030226383823901415,0.04356953874230385
1772650076459380700,4.503380615234375,-0.04309869185090065,-0.004875866696238518,0.03551001101732254
1772650076469425700,4.51342578125,-0.04813366383314133,-0.004399693105369806,0.024336718022823334
1772650076479469800,4.5234697265625,-0.0529896579682827,-0.006025976967066526,0.019150380045175552
1772650076489513700,4.533513671875,-0.05473988875746727,-0.00485764816403389,0.016825973987579346
1772650076499557600,4.5435576171875,-0.056429289281368256,0.003858061507344246,0.01709994487464428
1772650076509602800,4.553602783203125,-0.05784103274345398,0.016963478177785873,0.018989991396665573
1772650076519646700,4.563646728515625,-0.05644296109676361,0.026675354689359665,0.027115261182188988
1772650076529690600,4.573690673828125,-0.050803449004888535,0.03908967971801758,0.02207016944885254
1772650076539735600,4.583735595703125,-0.0435732826590538,0.03137417510151863,0.012246333062648773
1772650076549779700,4.59377978515625,-0.03506288677453995,0.024369530379772186,0.004592142533510923
1772650076559824000,4.603823974609375,-0.03932349383831024,0.022542592138051987,-0.006887712981551886
1772650076569868500,4.61386865234375,-0.03315587714314461,0.018210427835583687,-0.01367238163948059
1772650076579912700,4.62391259765625,-0.03161965310573578,0.021635744720697403,-0.021456703543663025
1772650076589956900,4.633956787109375,-0.027523178607225418,0.01740105077624321,-0.02942061796784401
1772650076600001500,4.64400146484375,-0.024190613999962807,0.020195549353957176,-0.031758975237607956
1772650076610045700,4.654045654296875,-0.02415093220770359,0.021379323676228523,-0.021151602268218994
1772650076620089900,4.66408984375,-0.024646813049912453,0.015354987233877182,-0.0037510418333113194
1772650076630134500,4.674134521484375,-0.019758315756917,0.017822138965129852,0.010020164772868156
1772650076640178700,4.6841787109375,-0.010486372746527195,0.023863695561885834,0.023595793172717094
1772650076650222800,4.694222900390625,0.003445688169449568,0.02420804277062416,0.03147342428565025
1772650076660266800,4.704266845703125,0.01130899228155613,0.006034289486706257,0.03516000509262085
1772650076670311700,4.714311767578125,0.016406016424298286,0.00509206298738718,0.037173885852098465
1772650076680355800,4.72435595703125,0.01414194330573082,0.020014461129903793,0.029065528884530067
1772650076690399700,4.734399658203125,0.018683964386582375,0.02596449851989746,0.018659492954611778
1772650076700444700,4.744444580078125,0.02919647842645645,0.02761613018810749,0.012210946530103683
1772650076710488600,4.754488525390625,0.03374515473842621,0.02364322729408741,0.002400394529104233
1772650076720532700,4.76453271484375,0.02765762060880661,0.03170220926403999,-0.004381645005196333
1772650076730577700,4.77457763671875,0.02380003221333027,0.04226776957511902,-0.02797592058777809
1772650076740621600,4.78462158203125,0.02476608008146286,0.049272771924734116,-0.04023249074816704
1772650076750665700,4.794665771484375,0.027259863913059235,0.03455827757716179,-0.03826121613383293
1772650076760710000,4.8047099609375,0.03428434953093529,0.007793040946125984,-0.03025815077126026
1772650076770754600,4.814754638671875,0.04116356000304222,-0.01070820540189743,-0.019680606201291084
1772650076780798700,4.824798828125,0.04468797147274017,-0.01482449471950531,-0.010939478874206543
1772650076790843000,4.8348427734375,0.04077472165226936,-0.007884297519922256,0.00040984770748764277
1772650076800887600,4.844887451171875,0.03018905594944954,0.005400414578616619,0.02095853164792061
1772650076810931700,4.854931640625,0.02147785574197769,0.011005302891135216,0.03866881877183914
1772650076820975900,4.864975830078125,0.015313733369112015,-0.00043968018144369125,0.04643093794584274
1772650076831020500,4.8750205078125,0.013809580355882645,-0.008085083216428757,0.04719046875834465
1772650076841064700,4.885064697265625,0.014936347492039204,-0.004396979697048664,0.04149966314435005
1772650076851108600,4.895108642578125,0.013762160204350948,-0.008173075504601002,0.036760032176971436
1772650076861153500,4.905153564453125,0.008994058705866337,-0.0002150433138012886,0.025567198172211647
1772650076871197700,4.91519775390625,0.0025087285321205854,0.009020000696182251,0.02372508868575096
1772650076881241600,4.92524169921875,-0.002009715884923935,0.018464943394064903,0.020019467920064926
1772650076891285800,4.93528564453125,-0.012691122479736805,0.02019147016108036,0.015382904559373856
1772650076901330700,4.94533056640625,-0.01974947564303875,0.004894680343568325,0.004913519602268934
1772650076911374600,4.95537451171875,-0.022792404517531395,0.0003683720715343952,0.0008119851117953658
1772650076921418800,4.965418701171875,-0.020256292074918747,0.004538774490356445,-0.002176514361053705
1772650076931463700,4.975463623046875,-0.020781202241778374,0.01040678285062313,-0.007622146047651768
1772650076941507600,4.985507568359375,-0.023451467975974083,0.009843399748206139,-0.014288804493844509
1772650076951551700,4.9955517578125,-0.025982802733778954,0.009519826620817184,-0.016110405325889587
1772650076961596700,5.0055966796875,-0.026815539225935936,0.0030349791049957275,-0.013973153196275234
1772650076971640600,5.015640625,-0.024080738425254822,0.000790200661867857,-0.011055925861001015
1772650076981684700,5.025684814453125,-0.014882447198033333,-0.006769181694835424,-0.003890424966812134
1772650076991729700,5.035729736328125,-0.010459203273057938,-0.010284287855029106,0.004483885131776333
1772650077001773600,5.045773681640625,-0.010315625928342342,-0.01084946095943451,0.020109251141548157
1772650077011817700,5.055817626953125,-0.011066104285418987,-0.002601118292659521,0.033814143389463425
1772650077021861600,5.065861572265625,-0.01420534122735262,0.006440163590013981,0.04457218199968338
1772650077031906600,5.075906494140625,-0.01047531794756651,0.008762972429394722,0.05208895355463028
1772650077041950700,5.08595068359375,-0.012713633477687836,0.01045437902212143,0.049045629799366
1772650077051994600,5.09599462890625,-0.01569131389260292,0.006852985825389624,0.04185562580823898
1772650077062039600,5.10603955078125,-0.006626734975725412,0.009563043713569641,0.033505916595458984
1772650077072083200,5.116083251953125,-0.0012580682523548603,0.013686683028936386,0.022305725142359734
1772650077082127000,5.126127197265625,0.006123382598161697,0.01227179542183876,0.01677320897579193
1772650077092173000,5.136173095703125,0.008634211495518684,0.0053220102563500404,0.020096834748983383
1772650077102217200,5.14621728515625,0.020346729084849358,-0.00198320671916008,0.021274350583553314
1772650077112261000,5.15626123046875,0.02247725799679756,-0.006864514667540789,0.020299632102251053
1772650077122306000,5.16630615234375,0.02461855299770832,0.0008431645110249519,0.018449636176228523
1772650077132350200,5.17635009765625,0.02088639885187149,0.019257325679063797,0.016588618978857994
1772650077142394000,5.18639404296875,0.01926533877849579,0.04011347144842148,0.018392376601696014
1772650077152439000,5.19643896484375,0.017427491024136543,0.05178264528512955,0.025202078744769096
1772650077162483200,5.206483154296875,0.015686826780438423,0.04387760907411575,0.020011944696307182
1772650077172527000,5.216527099609375,0.015302532352507114,0.030281106010079384,0.013668295927345753
1772650077182571300,5.2265712890625,0.01675959676504135,0.011365530081093311,0.01098273042589426
1772650077192616200,5.2366162109375,0.01693510077893734,-0.0036618891172111034,0.016224365681409836
1772650077202660000,5.24666015625,0.01970645599067211,-0.019059719517827034,0.0201883465051651
1772650077212704300,5.256704345703125,0.018469683825969696,-0.014599191024899483,0.023228611797094345
1772650077222749200,5.266749267578125,0.012319677509367466,-0.005611340049654245,0.03262031450867653
1772650077232793000,5.27679296875,0.006292677950114012,-0.006960763595998287,0.03156303986907005
1772650077242837200,5.286837158203125,-0.0032069371081888676,-0.012260278686881065,0.031377051025629044
1772650077252882200,5.296882080078125,-0.002681761747226119,-0.010831227526068687,0.035842373967170715
1772650077262926000,5.306926025390625,-0.0006447097985073924,-0.013847257010638714,0.05139443650841713
1772650077272970200,5.31697021484375,0.003250695765018463,-0.01601480320096016,0.07011778652667999
1772650077283015000,5.327014892578125,0.006697614677250385,-0.009011996909976006,0.08288135379552841
1772650077293059000,5.33705908203125,0.010857205837965012,-0.0009133243001997471,0.08815202116966248
1772650077303103200,5.347103271484375,0.016506651416420937,-0.0009069242514669895,0.08614109456539154
1772650077313147100,5.357147216796875,0.01869363896548748,-0.017116786912083626,0.08934728056192398
1772650077323192000,5.367192138671875,0.01645580120384693,-0.02836959809064865,0.0914635881781578
1772650077333236200,5.377236328125,0.023447930812835693,-0.022013165056705475,0.09752387553453445
1772650077343280000,5.387280029296875,0.025775864720344543,-0.003433989128097892,0.08506814390420914
1772650077353325000,5.397324951171875,0.026566024869680405,0.012272004038095474,0.0659186840057373
1772650077363369200,5.407369140625,0.024746965616941452,0.009301687590777874,0.06065484508872032
1772650077373413000,5.4174130859375,0.022038264200091362,-0.006120943930000067,0.05631442368030548
1772650077383458000,5.4274580078125,0.021207859739661217,-0.013095180504024029,0.0604366660118103
1772650077393502200,5.437502197265625,0.016604585573077202,-0.010975836776196957,0.05283840000629425
1772650077403546000,5.447546142578125,0.008942484855651855,-0.004673457704484463,0.042954910546541214
1772650077413591000,5.457591064453125,0.0028347917832434177,0.0053189885802567005,0.02999810129404068
1772650077423635200,5.46763525390625,-0.001210501417517662,0.02963823452591896,0.023067988455295563
1772650077433679000,5.47767919921875,-0.008309690281748772,0.038140375167131424,0.015610072761774063
1772650077443723300,5.48772314453125,-0.014492630958557129,0.036507684737443924,0.005888569634407759
1772650077453768000,5.497767822265625,-0.014778654091060162,0.035846687853336334,-0.006384874694049358
1772650077463812000,5.50781201171875,-0.020820066332817078,0.021763408556580544,-0.01616699807345867
1772650077473856300,5.517856201171875,-0.023741820827126503,0.0061982981860637665,-0.016318798065185547
1772650077483901000,5.52790087890625,-0.018526868894696236,-0.0136652123183012,-0.00788799673318863
1772650077493945000,5.537945068359375,-0.016490083187818527,-0.02275910973548889,0.01912817545235157
1772650077503989200,5.5479892578125,-0.0174486692994833,-0.016368811950087547,0.041519664227962494
1772650077514034000,5.558033935546875,-0.021274300292134285,-0.0034285124856978655,0.054754775017499924
1772650077524078000,5.568078125,-0.017873432487249374,0.0023670331574976444,0.06018965691328049
1772650077534122200,5.578122314453125,-0.016798047348856926,-0.007006494794040918,0.057957131415605545
1772650077544167200,5.588167236328125,-0.011748922057449818,-0.010006196796894073,0.05048516392707825
1772650077554211000,5.598211181640625,-0.007970163598656654,-0.020789600908756256,0.04631252586841583
1772650077564255200,5.608255126953125,-0.008610805496573448,-0.030525894835591316,0.045676395297050476
1772650077574300200,5.618300048828125,-0.008922128938138485,-0.03428228199481964,0.048066314309835434
1772650077584344000,5.628343994140625,-0.004407234489917755,-0.03552829474210739,0.051909856498241425
1772650077594388000,5.638387939453125,0.004506631754338741,-0.03364171087741852,0.05050716921687126
1772650077604432100,5.64843212890625,0.006539151072502136,-0.020300470292568207,0.042944058775901794
1772650077614477000,5.65847705078125,0.009041457436978817,-0.008349801413714886,0.0396776907145977
1772650077624521000,5.66852099609375,0.01643509417772293,-0.0011633778922259808,0.030391579493880272
1772650077634565000,5.678565185546875,0.017366668209433556,-0.005121634341776371,0.030156956985592842
1772650077644610000,5.688610107421875,0.013423857279121876,-0.00353518920019269,0.02370997704565525
1772650077654654000,5.698654052734375,0.016344547271728516,-0.017390018329024315,0.012461850419640541
1772650077664698000,5.708697998046875,0.019437573850154877,-0.03283800184726715,-0.002858716296032071
1772650077674743300,5.718743408203125,0.022779574617743492,-0.031716011464595795,-0.014699929393827915
1772650077684787000,5.728786865234375,0.028173768892884254,-0.021799014881253242,-0.007675642613321543
1772650077694831000,5.7388310546875,0.030218809843063354,-0.006138296332210302,0.00482630031183362
1772650077704875300,5.748875244140625,0.0310535691678524,0.008009705692529678,0.016573870554566383
1772650077714920000,5.758919921875,0.032690081745386124,0.016515575349330902,0.029885681346058846
1772650077724964000,5.768964111328125,0.028940683230757713,0.021930746734142303,0.03313646838068962
1772650077735008300,5.77900830078125,0.027041317895054817,0.02430601976811886,0.03379613533616066
1772650077745053000,5.789052978515625,0.02376151643693447,0.021476853638887405,0.04298393800854683
1772650077755097000,5.79909716796875,0.01863732747733593,0.01969173550605774,0.0413234569132328
1772650077765141000,5.80914111328125,0.018340319395065308,0.010429894551634789,0.038177069276571274
1772650077775186200,5.819186279296875,0.022309761494398117,0.005787472706288099,0.026739321649074554
1772650077785230000,5.82922998046875,0.02802938222885132,-0.00001694541424512863,0.016480593010783195
1772650077795274000,5.83927392578125,0.034928567707538605,-0.010818993672728539,0.000894443248398602
1772650077805319200,5.849319091796875,0.03607197850942612,-0.021085521206259727,-0.007505865767598152
1772650077815363000,5.859363037109375,0.03275927156209946,-0.020244229584932327,-0.014636745676398277
1772650077825407000,5.869406982421875,0.02827642112970352,-0.009843727573752403,-0.009619117714464664
1772650077835452200,5.8794521484375,0.02495492622256279,-0.009487396106123924,-0.016984090209007263
1772650077845496000,5.88949609375,0.026770273223519325,-0.014291271567344666,-0.021937303245067596
1772650077855540000,5.8995400390625,0.02848854474723339,-0.009149773046374321,-0.031189655885100365
1772650077865584000,5.909584228515625,0.0326695442199707,0.007220128551125526,-0.03608115389943123
1772650077875629300,5.91962939453125,0.03307301178574562,0.02439725026488304,-0.03283023461699486
1772650077885673000,5.9296728515625,0.03307361155748367,0.026198778301477432,-0.01943812519311905
1772650077895717000,5.939717041015625,0.03173244372010231,0.0222727470099926,-0.007967891171574593
1772650077905762300,5.94976220703125,0.02525789476931095,0.01432034932076931,-0.0070488341152668
1772650077915806000,5.959805908203125,0.020707884803414345,-0.0013038846664130688,-0.021027499809861183
1772650077925850000,5.96985009765625,0.021704042330384254,-0.013651165179908276,-0.027349047362804413
1772650077935895300,5.979895263671875,0.020700298249721527,-0.014323879964649677,-0.02372261881828308
1772650077945939000,5.98993896484375,0.022265003994107246,-0.012018796056509018,-0.008124817162752151
1772650077955983000,5.999983154296875,0.023637063801288605,0.004616106860339642,-0.0008546541794203222
1772650077966028300,6.0100283203125,0.022754143923521042,0.02019638940691948,-0.0018547049257904291
1772650077976072200,6.020072265625,0.024440990760922432,0.0238819383084774,-0.0012483031023293734
1772650077986116000,6.0301162109375,0.023495202884078026,0.00032403087243437767,0.0038274815306067467
1772650077996160000,6.040159912109375,0.027590079233050346,-0.0278767142444849,0.013464130461215973
1772650078006205200,6.050205078125,0.025930408388376236,-0.03525635972619057,0.012081850320100784
1772650078016249000,6.0602490234375,0.022720767185091972,-0.03907692804932594,0.0042604124173521996
1772650078026293000,6.07029296875,0.01798068918287754,-0.04464985057711601,-0.004904822912067175
1772650078036338200,6.080338134765625,0.014833098277449608,-0.05097486078739166,-0.007475572172552347
1772650078046382000,6.090382080078125,0.011961014941334724,-0.05900941789150238,0.002806359902024269
1772650078056426000,6.100426025390625,0.0072152623906731606,-0.060534872114658356,0.022103358060121536
1772650078066471200,6.11047119140625,0.00660876277834177,-0.036451760679483414,0.052524715662002563
1772650078076515800,6.120515869140625,0.004976511467248201,-0.00021599093452095985,0.0708262175321579
1772650078086560000,6.13056005859375,0.005827923770993948,0.012293409556150436,0.07292985171079636
1772650078096605200,6.140605224609375,0.005590636283159256,0.007347652222961187,0.058181799948215485
1772650078106648800,6.15064892578125,0.002244608011096716,-0.0006724069826304913,0.03897661343216896
1772650078116693000,6.16069287109375,0.004625740461051464,-0.001589333638548851,0.022285785526037216
1772650078126737200,6.170737060546875,0.0025210767053067684,-0.00369168259203434,-0.0005432976759038866
1772650078136781800,6.18078173828125,0.00041717966087162495,-0.009399103000760078,-0.03552285209298134
1772650078146826000,6.190825927734375,-0.00027799251256510615,-0.015735438093543053,-0.061398159712553024
1772650078156870000,6.200869873046875,0.006308271083980799,-0.017388729378581047,-0.08274605870246887
1772650078166914800,6.210914794921875,0.012013751082122326,-0.0023595867678523064,-0.09214439243078232
1772650078176959000,6.220958984375,0.012918960303068161,0.015335786156356335,-0.09285625070333481
1772650078187003000,6.2310029296875,0.01167256198823452,0.02000182867050171,-0.08791801333427429
1772650078197048000,6.241048095703125,0.008710062131285667,0.020346708595752716,-0.08074026554822922
1772650078207092000,6.251092041015625,0.0026586917228996754,0.021725494414567947,-0.06990279257297516
1772650078217135900,6.261135986328125,-0.0009882411686703563,0.014412718825042248,-0.058465585112571716
1772650078227180000,6.271179931640625,-0.001722137676551938,0.0058522881008684635,-0.0534168966114521
1772650078237225000,6.281224853515625,0.0028313351795077324,-0.0011411732994019985,-0.0450897254049778
1772650078247268900,6.291268798828125,0.010337438434362411,-0.003400974441319704,-0.03667457029223442
1772650078257313000,6.30131298828125,0.011586194857954979,-0.00152530986815691,-0.029570322483778
1772650078267358000,6.31135791015625,0.007672358304262161,0.006117238663136959,-0.010790742002427578
1772650078277401900,6.32140185546875,0.002656028140336275,0.011263531632721424,0.008645540103316307
1772650078287446000,6.331446044921875,-0.006587200332432985,0.02441398985683918,0.022697577252984047
1772650078297491200,6.3414912109375,-0.008713467977941036,0.032562460750341415,0.026715753600001335
1772650078307534800,6.351534912109375,-0.010642210952937603,0.034527067095041275,0.015799423679709435
1772650078317579000,6.3615791015625,-0.006352391093969345,0.028043068945407867,-0.0005723598296754062
1772650078327624200,6.371624267578125,-0.0004970019217580557,0.010446248576045036,-0.017779774963855743
1772650078337667800,6.381667724609375,0.0049747284501791,-0.0013675340451300144,-0.027434000745415688
1772650078347712000,6.3917119140625,0.00726265087723732,0.003643203526735306,-0.025748752057552338
1772650078357756000,6.401755859375,0.008509276434779167,0.01661466248333454,-0.02071324735879898
1772650078367800800,6.41180078125,0.009497042745351791,0.025040103122591972,-0.016770970076322556
1772650078377845000,6.421844970703125,0.011317047290503979,0.026004435494542122,-0.009479233995079994
1772650078387889000,6.431888916015625,0.014121919870376587,0.025306371971964836,-0.007518282625824213
1772650078397934000,6.44193408203125,0.012851325795054436,0.017834339290857315,-0.006834383122622967
1772650078407978000,6.45197802734375,0.01466984674334526,0.015101627446711063,0.0009365543955937028
1772650078418022000,6.46202197265625,0.015825925394892693,0.017550136893987656,0.008061841130256653
1772650078428067000,6.472067138671875,0.012371191754937172,0.02062235213816166,0.003585833590477705
1772650078438111000,6.482111083984375,0.008289364166557789,0.028847260400652885,-0.0002818749053403735
1772650078448155000,6.49215478515625,0.0030178052838891745,0.033315397799015045,-0.009961067698895931
1772650078458200000,6.502199951171875,-0.0025175749324262142,0.035892002284526825,-0.01684906706213951
1772650078468244000,6.512243896484375,-0.007226788904517889,0.01678028702735901,-0.02632755972445011
1772650078478288000,6.522287841796875,-0.008363958448171616,0.00006468873471021652,-0.030360916629433632
1772650078488332000,6.53233203125,-0.007351462263613939,-0.007942454889416695,-0.030904000625014305
1772650078498377000,6.542376953125,-0.006162360776215792,-0.01302802748978138,-0.02888692170381546
1772650078508420900,6.5524208984375,-0.00819881446659565,-0.02176196500658989,-0.025509366765618324
1772650078518465000,6.562465087890625,-0.010365030728280544,-0.02772078663110733,-0.02903352864086628
1772650078528510200,6.57251025390625,-0.01216206606477499,-0.02839440107345581,-0.03357834741473198
1772650078538553900,6.582553955078125,-0.01790996640920639,-0.01310492493212223,-0.03395944461226463
1772650078548598000,6.592597900390625,-0.014081134460866451,-0.003884928533807397,-0.022972308099269867
1772650078558643200,6.602643310546875,-0.013019598089158535,-0.0027235238812863827,-0.00017192016821354628
1772650078568686800,6.612686767578125,-0.012178071774542332,-0.01168767549097538,0.025078242644667625
1772650078578731000,6.62273095703125,-0.010228105820715427,-0.008296139538288116,0.036388423293828964
1772650078588776200,6.632776123046875,-0.010868199169635773,0.005333719775080681,0.03298037499189377
1772650078598820000,6.642820068359375,-0.014138028025627136,0.02055208757519722,0.02269444800913334
1772650078608864000,6.652864013671875,-0.016872959211468697,0.017579134553670883,0.005106664728373289
1772650078618908000,6.662907958984375,-0.015370669774711132,0.005073462147265673,-0.013837732374668121
1772650078628953000,6.672953125,-0.01229662075638771,-0.017325405031442642,-0.023456070572137833
1772650078638997000,6.6829970703125,-0.005072796251624823,-0.020423192530870438,-0.021483732387423515
1772650078649041000,6.693041015625,-0.0022109635174274445,-0.019738759845495224,-0.013385060243308544
1772650078659086000,6.703086181640625,-0.0012197350151836872,-0.01676907017827034,-0.00006153166759759188
1772650078669130000,6.7131298828125,0.007912113331258297,-0.004024045076221228,0.017639702185988426
1772650078679174000,6.723173828125,0.013519666157662868,0.013003142550587654,0.019488466903567314
1772650078689219000,6.733218994140625,0.019261637702584267,0.023882385343313217,0.013024043291807175
1772650078699263000,6.743262939453125,0.02843276597559452,0.0252925306558609,-0.005682798568159342
1772650078709307000,6.753306884765625,0.030332304537296295,0.011506694369018078,-0.028699103742837906
1772650078719352000,6.76335205078125,0.03284339979290962,-0.00546350097283721,-0.0332200825214386
1772650078729396200,6.773396240234375,0.028084825724363327,-0.020747998729348183,-0.02833964303135872
1772650078739439900,6.78343994140625,0.02828802540898323,-0.02446523867547512,-0.01884467341005802
1772650078749484000,6.793484130859375,0.028986306861042976,-0.027504703029990196,-0.009783001616597176
1772650078759529200,6.803529296875,0.030708571895956993,-0.027071673423051834,-0.01091670896857977
1772650078769572900,6.81357275390625,0.031153254210948944,-0.024229981005191803,-0.011136021465063095
1772650078779617000,6.823616943359375,0.030070681124925613,-0.00286450469866395,-0.00248474208638072
1772650078789662000,6.833661865234375,0.023115528747439384,0.013374567963182926,0.003648717887699604
1772650078799705900,6.843705810546875,0.019391098991036415,0.02773965895175934,0.005056730937212706
1772650078809750000,6.85375,0.01699737273156643,0.026788771152496338,-0.00010663969442248344
1772650078819795000,6.863794921875,0.014519035816192627,0.013340339064598083,-0.010661546140909195
1772650078829839000,6.873839111328125,0.010280213318765163,-0.00938061997294426,-0.03179585933685303
1772650078839883000,6.883883056640625,0.009739059023559093,-0.03152480348944664,-0.05325481295585632
1772650078849928000,6.893927978515625,0.006888241972774267,-0.04208865016698837,-0.05686665698885918
1772650078859972000,6.90397216796875,0.006604083348065615,-0.03159686177968979,-0.047955188900232315
1772650078870016000,6.91401611328125,0.0029151919297873974,-0.006706065032631159,-0.024769075214862823
1772650078880060000,6.924059814453125,-0.004475079942494631,0.013036747463047504,-0.00010127958375960588
1772650078890105000,6.93410498046875,-0.002828980330377817,0.023044906556606293,0.02013261988759041
1772650078900149000,6.94414892578125,-0.0013128425925970078,0.019152428954839706,0.024808330461382866
1772650078910193000,6.95419287109375,0.0073632365092635155,0.014868952333927155,0.020819514989852905
1772650078920238000,6.964238037109375,0.012128963135182858,0.009296555072069168,0.015659641474485397
1772650078930282200,6.9742822265625,0.015011932700872421,0.003124527633190155,0.005034360568970442
1772650078940326000,6.984325927734375,0.01603005826473236,0.0016968073323369026,0.0009900840232148767
1772650078950371000,6.99437109375,0.019303318113088608,0.002638550940901041,0.0017295773141086102
1772650078960415000,7.0044150390625,0.02149376831948757,-0.0030430371407419443,-0.0024316119961440563
1772650078970459000,7.014458984375,0.02251943200826645,0.00007366854697465897,-0.015074935741722584
1772650078980504000,7.024504150390625,0.027602607384324074,0.0030838395468890667,-0.017827313393354416
1772650078990548000,7.0345478515625,0.033243268728256226,-0.002347801811993122,-0.018233677372336388
1772650079000592000,7.044591796875,0.029934559017419815,0.0007039145566523075,-0.00224325992166996
1772650079010636000,7.054635986328125,0.026710297912359238,0.00663991691544652,0.011110162362456322
1772650079020681000,7.064680908203125,0.018915224820375443,0.018024664372205734,0.017091089859604836
1772650079030725000,7.07472509765625,0.01703030988574028,0.023826660588383675,0.0035455867182463408
1772650079040769000,7.08476904296875,0.01281585730612278,0.01886705495417118,-0.008394163101911545
1772650079050814000,7.09481396484375,0.005870985798537731,0.002550492063164711,-0.016287673264741898
1772650079060858000,7.104858154296875,0.0009758291998878121,-0.0006090826354920864,-0.03603820875287056
1772650079070901800,7.11490185546875,0.0012596515007317066,-0.0008402783423662186,-0.041932448744773865
1772650079080947000,7.124947021484375,-0.003728449111804366,0.00011872593313455582,-0.036278028041124344
1772650079090990800,7.134990966796875,-0.013477379456162453,0.001822332851588726,-0.021587561815977097
1772650079101034800,7.14503466796875,-0.017460670322179794,-0.00005439668893814087,-0.009658732451498508
1772650079111080000,7.155079833984375,-0.015419041737914085,0.0037036496214568615,-0.0018999120220541954
1772650079121123800,7.165123779296875,-0.012826986610889435,0.006166540551930666,-0.0034884875640273094
1772650079131168000,7.17516796875,-0.018937375396490097,0.005341010168194771,-0.002565502654761076
1772650079141212000,7.1852119140625,-0.020237797871232033,0.0023252470418810844,-0.0024898687843233347
1772650079151256800,7.1952568359375,-0.02003929391503334,0.006577898282557726,-0.01158622745424509
1772650079161301000,7.205301025390625,-0.026399720460176468,0.006217838730663061,-0.02088625356554985
1772650079171345000,7.215344970703125,-0.02564629726111889,-0.0014471625909209251,-0.02683585323393345
1772650079181389800,7.225389892578125,-0.01975245587527752,-0.011575164273381233,-0.020609384402632713
1772650079191434000,7.23543408203125,-0.020795315504074097,-0.020315175876021385,-0.01413277629762888
1772650079201478000,7.245477783203125,-0.016868218779563904,-0.011615694500505924,-0.016407648101449013
1772650079211522800,7.255522705078125,-0.01371787954121828,0.007708610501140356,-0.01968330331146717
1772650079221567000,7.26556689453125,-0.007962255738675594,0.0188203826546669,-0.028692511841654778
1772650079231611000,7.27561083984375,-0.00914928037673235,0.009189402684569359,-0.0373312383890152
1772650079241654800,7.28565478515625,-0.006926873233169317,-0.008409564383327961,-0.04552605003118515
1772650079251700000,7.295699951171875,-0.0008597897831350565,-0.013426493853330612,-0.0442647784948349
1772650079261743900,7.305743896484375,0.003597542643547058,-0.014347415417432785,-0.036597538739442825
1772650079271787800,7.315787841796875,0.00173667271155864,-0.010373537428677082,-0.00907733105123043
1772650079281833000,7.3258330078125,0.0022192373871803284,-0.0033931259531527758,0.02120307832956314
1772650079291876900,7.335876953125,0.0006991594564169645,0.0006390907801687717,0.04136769846081734
1772650079301920800,7.345920654296875,0.0009055545087903738,0.00016531441360712051,0.04413658753037453
1772650079311966000,7.355966064453125,0.002157952170819044,-0.0025544469244778156,0.03644907474517822
1772650079322009900,7.366009765625,-0.0034828893840312958,-0.0023086373694241047,0.02505633793771267
1772650079332054000,7.376053955078125,-0.007276013493537903,-0.004618022125214338,0.017038259655237198
1772650079342099000,7.386098876953125,-0.012127493508160114,-0.00753391720354557,0.012361482717096806
1772650079352142800,7.396142822265625,-0.016563184559345245,-0.006905378308147192,0.008642244152724743
1772650079362187000,7.40618701171875,-0.02482937090098858,-0.006392986048012972,-0.004410707391798496
1772650079372230700,7.416230712890625,-0.02937447279691696,-0.006929920520633459,-0.009364352561533451
1772650079382275800,7.42627587890625,-0.034035272896289825,0.003438031766563654,-0.015470181591808796
1772650079392320000,7.436320068359375,-0.036616358906030655,0.0001786472275853157,-0.018530985340476036
1772650079402364000,7.446364013671875,-0.032763030380010605,0.002755521796643734,-0.018887050449848175
1772650079412408800,7.456408935546875,-0.02878318540751934,0.019565235823392868,-0.01772601343691349
1772650079422453000,7.466452880859375,-0.02980344183743,0.03171350806951523,-0.02158386819064617
1772650079432497000,7.476496826171875,-0.021135034039616585,0.0228290818631649,-0.028542406857013702
1772650079442541800,7.486541748046875,-0.016801005229353905,0.007500192150473595,-0.03707864135503769
1772650079452586000,7.4965859375,-0.010256269946694374,0.0005116341635584831,-0.038808465003967285
1772650079462630000,7.5066298828125,-0.011658424511551857,-0.008856567554175854,-0.035431839525699615
1772650079472674800,7.5166748046875,-0.007012425921857357,-0.011953333392739296,-0.03112221136689186
1772650079482719000,7.526718994140625,0.0006460268050432205,-0.01715422049164772,-0.026633987203240395
1772650079492763000,7.536762939453125,0.004296545870602131,-0.030163004994392395,-0.014011572115123272
1772650079502806800,7.546806884765625,0.009212474338710308,-0.03385015204548836,0.0012057306012138724
1772650079512852000,7.55685205078125,0.0016507230466231704,-0.01884555071592331,0.01243528537452221
1772650079522896000,7.566895751953125,-0.0048673637211322784,-0.008758829906582832,0.024620844051241875
1772650079532940000,7.57693994140625,-0.00967648345977068,-0.004349858500063419,0.040076401084661484
1772650079542985000,7.58698486328125,-0.008846109732985497,-0.015891199931502342,0.047976136207580566
1772650079553028900,7.59702880859375,-0.00945409294217825,-0.029354168102145195,0.0364791676402092
1772650079563073000,7.607072998046875,-0.005678796209394932,-0.04041507840156555,0.029005007818341255
1772650079573118000,7.617117919921875,-0.004540794529020786,-0.051878705620765686,0.02752222679555416
1772650079583161900,7.627161865234375,-0.008667362853884697,-0.04702509194612503,0.03673596307635307
1772650079593206000,7.6372060546875,-0.01167235430330038,-0.04047229140996933,0.04741693660616875
1772650079603251000,7.6472509765625,-0.010469404980540276,-0.03778116777539253,0.05266842246055603
1772650079613294800,7.657294921875,-0.010490894317626953,-0.035438377410173416,0.0577460378408432
1772650079623339000,7.667339111328125,-0.010806744918227196,-0.0338284969329834,0.05821715295314789
1772650079633383000,7.6773828125,-0.012086480855941772,-0.029890090227127075,0.055057015269994736
1772650079643427800,7.687427734375,-0.01185665000230074,-0.029469309374690056,0.049150656908750534
1772650079653472000,7.697471923828125,-0.011918533593416214,-0.0303871501237154,0.03729939088225365
1772650079663516000,7.707515869140625,-0.01450845692306757,-0.030163178220391273,0.029155442491173744
1772650079673560800,7.717560791015625,-0.014775654301047325,-0.03348734602332115,0.013445422053337097
1772650079683605000,7.72760498046875,-0.020658843219280243,-0.04140705615282059,0.0034617637284100056
1772650079693649000,7.73764892578125,-0.024175433441996574,-0.042399920523166656,-0.002124649239704013
1772650079703693800,7.74769384765625,-0.027243396267294884,-0.04746738821268082,-0.006435242015868425
1772650079713738000,7.757738037109375,-0.03221622854471207,-0.04121467471122742,-0.0072903502732515335
1772650079723782000,7.767781982421875,-0.03416406363248825,-0.032834772020578384,-0.009641655720770359
1772650079733826800,7.777826904296875,-0.03815383091568947,-0.02510162629187107,-0.010158075019717216
1772650079743871000,7.78787109375,-0.039288606494665146,-0.03699903190135956,-0.0066067492589354515
1772650079753915000,7.797914794921875,-0.038721952587366104,-0.0428277924656868,-0.006993040908128023
1772650079763959000,7.807958984375,-0.03535944223403931,-0.0434349924325943,-0.0018017410766333342
1772650079774004000,7.81800390625,-0.03337773680686951,-0.02782774530351162,0.009332370012998581
1772650079784047900,7.8280478515625,-0.02905941940844059,-0.019746650010347366,0.03350907936692238
1772650079794092000,7.838092041015625,-0.023032985627651215,-0.021543435752391815,0.0541495755314827
1772650079804137000,7.848136962890625,-0.019118139520287514,-0.030070610344409943,0.07761655747890472
1772650079814180900,7.858180908203125,-0.010700837709009647,-0.030490100383758545,0.08509773761034012
1772650079824225000,7.86822509765625,-0.004724705126136541,-0.01756897382438183,0.07845315337181091
1772650079834269700,7.878269775390625,0.0010925898095592856,0.009287714026868343,0.06283468008041382
1772650079844313900,7.88831396484375,0.006693217903375626,0.007463982328772545,0.05836082994937897
1772650079854358000,7.89835791015625,0.014213218353688717,0.02850343845784664,0.07627598196268082
1772650079864402000,7.90840185546875,0.011965244077146053,0.03475600481033325,0.07843660563230515
1772650079874446800,7.91844677734375,0.011787730269134045,0.0151166170835495,0.05769840255379677
1772650079884491000,7.928490966796875,0.01642189733684063,0.0034189485013484955,0.026380961760878563
1772650079894535000,7.938534912109375,0.01838834211230278,-0.00858866237103939,-0.003476337529718876
1772650079904579800,7.948579833984375,0.016445565968751907,-0.011243034154176712,-0.02548310160636902
1772650079914624000,7.9586240234375,0.013925747945904732,-0.014666096307337284,-0.03988827392458916
1772650079924668000,7.96866796875,0.011636495590209961,-0.020655810832977295,-0.04826951026916504
1772650079934712800,7.978712890625,0.007966659963130951,-0.020111728459596634,-0.04762262850999832
1772650079944757000,7.988757080078125,0.0051269312389194965,-0.01678277552127838,-0.039270419627428055
1772650079954801000,7.99880078125,-0.002335414756089449,-0.004437842406332493,-0.031921226531267166
1772650079964845800,8.008845703125,-0.011609340086579323,0.008249989710748196,-0.03205198794603348
1772650079974890000,8.018889892578125,-0.022039607167243958,0.010465338826179504,-0.027592260390520096
1772650079984934000,8.028933837890625,-0.027269521728157997,0.0027813208289444447,-0.028675101697444916
1772650079994978000,8.03897802734375,-0.03064938820898533,-0.016069922596216202,-0.028764549642801285
1772650080005022700,8.049022705078125,-0.02506740391254425,-0.03476611152291298,-0.018952932208776474
1772650080015067000,8.05906689453125,-0.01990542933344841,-0.029136672616004944,0.002419133670628071
1772650080025111000,8.069111083984374,-0.014846489764750004,-0.013307109475135803,0.021655412390828133
1772650080035155700,8.07915576171875,-0.018903575837612152,-0.007156913634389639,0.03314758464694023
1772650080045200000,8.089199951171874,-0.01672377809882164,-0.01132902130484581,0.028361087664961815
1772650080055244000,8.099244140625,-0.013527767732739449,-0.022638726979494095,0.017804350703954697
1772650080065288700,8.109288818359374,-0.005440546665340662,-0.03255127742886543,0.0061660706996917725
1772650080075332900,8.119332763671874,0.00020139291882514954,-0.03802039474248886,0.004430555272847414
1772650080085376800,8.129376708984376,0.0020227287895977497,-0.04882190749049187,0.01684781163930893
1772650080095421700,8.139421630859376,-0.0014224016340449452,-0.04634799808263779,0.03521469980478287
1772650080105465900,8.1494658203125,-0.005889588035643101,-0.03426763415336609,0.045540306717157364
1772650080115509800,8.159509765625,-0.009386030957102776,-0.023135913535952568,0.04341500252485275
1772650080125554000,8.169553955078126,-0.0072919875383377075,-0.015232449397444725,0.04394630342721939
1772650080135598800,8.179598876953126,-0.004976536612957716,-0.005019377451390028,0.04010995849967003
1772650080145642800,8.189642822265625,-0.004049223847687244,0.003440153319388628,0.036119211465120316
1772650080155687000,8.19968701171875,-0.0032873644959181547,0.005459063220769167,0.028549039736390114
1772650080165731800,8.20973193359375,-0.007012061774730682,0.005070241633802652,0.017900390550494194
1772650080175775700,8.219775634765625,-0.0077221691608428955,-0.0036168149672448635,0.0011005372507497668
1772650080185820000,8.22981982421875,-0.008220713585615158,-0.005525502376258373,-0.015584966167807579
1772650080195864600,8.239864501953125,-0.0036478203255683184,-0.0023299502208828926,-0.027162957936525345
1772650080205908700,8.24990869140625,-0.001329538645222783,0.00046956492587924004,-0.03505709767341614
1772650080215953000,8.259952880859375,0.0015542841283604503,0.007729117292910814,-0.02822273038327694
1772650080225997600,8.26999755859375,-0.0002809002762660384,0.02656938135623932,-0.009397909045219421
1772650080236041700,8.280041748046875,-0.004549599252641201,0.034510403871536255,0.00200711190700531
1772650080246086000,8.2900859375,-0.005308067891746759,0.036139991134405136,0.006611983757466078
1772650080256129800,8.3001298828125,-0.003616145346313715,0.038692206144332886,0.0074539752677083015
1772650080266174700,8.3101748046875,-0.006079036742448807,0.03873614966869354,0.017814738675951958
1772650080276219000,8.320218994140625,-0.016611289232969284,0.027305440977215767,0.01949455961585045
1772650080286262800,8.3302626953125,-0.028001628816127777,0.039335474371910095,0.053840283304452896
1772650080296307700,8.3403076171875,-0.05688091367483139,0.03333904594182968,0.09930583089590073
1772650080306351900,8.350351806640624,-0.04039248451590538,0.022167086601257324,0.09810501337051392
1772650080316395800,8.360395751953124,-0.012403658591210842,0.02837255224585533,0.07395640015602112
1772650080326440700,8.370440673828124,-0.013744826428592205,0.006321844644844532,0.033257972449064255
1772650080336484900,8.38048486328125,-0.031100114807486534,-0.028832681477069855,-0.01375587284564972
1772650080346528800,8.39052880859375,-0.03337418660521507,-0.047361891716718674,-0.05418265983462334
1772650080356573000,8.400572998046876,-0.035901930183172226,-0.035947248339653015,-0.08392990380525589
1772650080366617600,8.41061767578125,-0.049608953297138214,-0.04535619914531708,-0.10111767798662186
1772650080376661800,8.420661865234376,-0.04318602383136749,-0.0649525448679924,-0.10999908298254013
1772650080386706000,8.430705810546876,-0.015818048268556595,0.0016144993714988232,-0.054910797625780106
1772650080396750600,8.44075048828125,-0.03173398599028587,0.018433550372719765,0.027341164648532867
