time,seconds_elapsed,z,y,x
1772795365149248300,0.068248291015625,0.03002221329808235,0.0023251253291848113,0.005324683887790888
1772795365159292400,0.07829248046875,0.021790976047515866,0.011345453431096393,0.015850270020077006
1772795365169337600,0.088337646484375,0.01969780316054821,0.004401815155521035,0.0068050586386583746
1772795365179381200,0.09838134765625,0.01580780998468399,0.009379427754867355,-0.0036085276196710764
1772795365189425400,0.10842529296875,0.017454992669820785,0.01382934495199006,-0.01938472775653936
1772795365199469300,0.11846923828125,0.029125556719303128,-0.006965925455908291,-0.005988134498894214
1772795365209513500,0.128513427734375,0.011915478721261023,-0.007425843718391843,-0.00008304777410812675
1772795365219557600,0.1385576171875,0.004285714495182037,0.0016965725015266797,0.012147890104493126
1772795365229602300,0.148602294921875,0.019248305827379224,-0.011717010706826113,0.015359773956239223
1772795365239646500,0.158646484375,0.027177345260977745,-0.005364723637234419,-0.0007515216202009469
1772795365249690400,0.1686904296875,0.011315759262442588,-0.012141366748872678,-0.0026972397273406384
1772795365259734300,0.178734375,0.01670446656346321,-0.0022862820229842327,0.0006859547038562595
1772795365269778400,0.1887783203125,0.022090835776925086,-0.015419354089791885,0.0022039123855996877
1772795365279822300,0.198822265625,0.008174538627266883,0.0014937274227850138,0.00442028239397332
1772795365289866500,0.208866455078125,0.007426935130357742,-0.009962677852786145,0.007458197918301448
1772795365299911400,0.218911376953125,0.01834931116104126,0.01321913834848674,0.011007140837842598
1772795365309955300,0.228955322265625,0.022537995022535322,-0.0019838809933280573,-0.00447647869377397
1772795365319999500,0.23899951171875,0.02268938619196415,-0.002573369035788346,0.0026519118814263493
1772795365330043400,0.24904345703125,0.02717968334853649,-0.0038253098922199566,-0.005635375538468361
1772795365340087300,0.25908740234375,0.024786066210269925,-0.009919644711946602,-0.011161865608673542
1772795365350131500,0.26913134765625,0.024485621958971023,-0.016534713186859153,-0.005381236380618065
1772795365360176400,0.27917626953125,0.015508534777164459,0.008572862895624712,0.01289879067018628
1772795365370220500,0.289220458984375,0.02119476372003555,-0.004119230787898414,0.007355102870007977
1772795365380264400,0.299264404296875,0.015060206487774848,-0.00974173314506188,0.003499039363209158
1772795365390308400,0.309308349609375,0.018051789519190786,-0.006538313444273081,0.013004561732755974
1772795365400352500,0.3193525390625,0.01251519818007946,0.008566978860821108,0.011167171971453354
1772795365410396400,0.329396484375,0.020747604474425314,0.006317955541727133,-0.012457367045618593
1772795365420440300,0.3394404296875,0.03197042475640774,-0.0045811674775322895,0.0026754936864133924
1772795365430485500,0.349485595703125,0.025386954712867737,0.0025264017886365763,0.030881149948667735
1772795365440529400,0.359529296875,0.0259855051279068,0.011775764289894141,0.002425985037907958
1772795365450573600,0.369573486328125,0.019250059393048285,0.0067394529064069494,0.0051841246396303175
1772795365460617200,0.3796171875,0.02897650363743305,-0.0024922346575534902,-0.00516240599816665
1772795365470661400,0.389661376953125,0.018500702330470083,0.0017830589083139784,-0.013308440050156786
1772795365480705500,0.39970556640625,0.009824059399962424,0.0014413944473490117,-0.0038767957675736394
1772795365490749400,0.40974951171875,0.021648937228322028,-0.00002496776118641719,0.0003903692907653749
1772795365500794400,0.41979443359375,0.014316694644093513,0.0037099056349135934,-0.0064978284535463894
1772795365510838500,0.429838623046875,0.03197217832207679,0.013426307975896633,0.0041354284374509
1772795365520882400,0.43988232421875,0.025239655196666717,0.006380207122978754,-0.0077727802928071466
1772795365530926600,0.449926513671875,0.02254500928521156,-0.002211214342643507,0.013392994794761762
1772795365540970200,0.45997021484375,0.009077624946832657,-0.004530014962318819,0.020723483813321217
1772795365551014400,0.470014404296875,0.014765022933483123,0.004687849572265986,-0.001945133585250005
1772795365561059300,0.480059326171875,0.012522212442755698,-0.0008669646934140473,0.015524198137177153
1772795365571103000,0.49010302734375,0.016112930411100387,-0.01137155598673271,-0.0015954159652814268
1772795365581147100,0.500147216796875,0.014466916769742965,-0.004771598315984011,0.011443778689438477
1772795365591191300,0.51019140625,0.01701075603365898,-0.015451543892920016,0.006780380855128169
1772795365601235200,0.520235107421875,0.007584756040573119,-0.014114954677049535,0.007598793699080124
1772795365611279400,0.530279296875,0.013871288964152335,-0.021521116447437087,0.0007743271070532501
1772795365621323000,0.540322998046875,0.0346691623210907,-0.0066747627728967925,-0.004272581018973142
1772795365631368200,0.5503681640625,0.03092763770520687,-0.0055532570628332905,-0.004454559122910723
1772795365641412400,0.560412353515625,0.014165887996554374,-0.005830964325938839,0.011696986265527084
1772795365651456000,0.5704560546875,0.024940379989147186,-0.014067222528206184,0.010857768095564097
1772795365661500200,0.580500244140625,0.015811901637911796,0.006915519576077349,0.0057427357699256385
1772795365671544300,0.59054443359375,0.018206103298068047,-0.0023354275274905375,-0.0018891199485398828
1772795365681588200,0.600588134765625,0.014914660537242889,0.002733523466985207,0.0011789349857252091
1772795365691633200,0.610633056640625,0.012370236751437187,-0.011608698344009462,0.0015847393076401203
1772795365701677300,0.62067724609375,0.022394202637672424,-0.012900619584380183,-0.008724564592307433
1772795365711721200,0.63072119140625,0.01910334439873695,-0.012205853669694624,-0.0008234543452505022
1772795365721765400,0.640765380859375,0.021797990310192108,0.013232271824695635,0.010603619804559275
1772795365731809000,0.65080908203125,0.012070961543917656,-0.00320563449076144,-0.00407966139591299
1772795365741853200,0.660853271484375,0.019402035084366796,-0.004390268564911094,-0.0015997085479088128
1772795365751897000,0.67089697265625,0.013268646895885467,-0.011661348696565255,0.004065048348670825
1772795365761942300,0.6809423828125,0.025688568007946014,0.009834194918198045,0.013323509755125269
1772795365771986200,0.690986083984375,0.015963877329230308,0.009800256115978118,-0.007635216719331219
1772795365782030000,0.701030029296875,0.018059388303756713,-0.004409322608541697,0.0030323351669125256
1772795365792074200,0.71107421875,0.02778700159192085,0.0056760500421514735,0.003678113124007359
1772795365802118400,0.721118408203125,0.03242401374280453,-0.0013354544214205816,-0.00451799801425077
1772795365812162000,0.731162109375,0.031975685453414913,0.01831956904332619,-0.009277659297268837
1772795365822207200,0.741207275390625,0.020005261674523354,0.0044235109640983865,0.0066367163344286375
1772795365832251400,0.75125146484375,0.028385552006959913,-0.009261354333150666,0.007427355255465954
1772795365842295300,0.76129541015625,0.008033668851852416,0.005951588181057013,0.019612188970018176
1772795365852339200,0.771339111328125,0.006089549046754837,-0.004853093453822658,0.007418633092893287
1772795365862383000,0.781383056640625,0.020604981133341787,-0.005788365009939298,-0.0055791335728950795
1772795365872427300,0.79142724609375,0.03377367478609085,0.009728547153214457,-0.001649100647587329
1772795365882471400,0.801471435546875,0.015668109253048897,0.002874434341595042,-0.014335892534907906
1772795365892516000,0.81151611328125,0.021355507239699364,0.0008670925575774163,-0.010072389871533959
1772795365902560300,0.821560302734375,0.023003274446725844,-0.017697046380944083,0.0019661124411970376
1772795365912604200,0.831604248046875,0.02898644050955772,-0.006852393495279829,0.0070615998161491006
1772795365922648000,0.84164794921875,0.030926468661427495,0.005229151091445237,-0.009282445070240647
1772795365932692200,0.851692138671875,0.023441665863990782,-0.019566365650470832,-0.007094552237680182
1772795365942736100,0.861736083984375,0.012067454412579537,0.0006746318755322135,0.013182630846556275
1772795365952780300,0.8717802734375,0.01954875007867813,0.003459485954244155,-0.007098251165263354
1772795365962825200,0.8818251953125,0.02807809349298477,0.006222790354851167,-0.0008203490727115422
1772795365972869000,0.891869140625,0.031220483171939848,0.007131048323167488,0.002935359332151711
1772795365982913300,0.901913330078125,0.018200842601060866,0.00018527973929885773,0.0021007442720700053
1772795365992957200,0.911957275390625,0.02373801846206188,0.004084063576394692,0.010363737500924616
1772795366003001000,0.9220009765625,0.016554828959703446,0.0059373267602641135,0.008222231960203498
1772795366013045200,0.932045166015625,0.022241057902574538,0.004050394202233292,-0.006114656088547781
1772795366023090200,0.942090087890625,0.01176701016128063,-0.005003107800206635,-0.007998460541153326
1772795366033134300,0.95213427734375,0.018352233770489692,-0.008865279104094952,0.00465780834374018
1772795366043178200,0.96217822265625,0.01970072576999664,-0.0012137551373569294,-0.003624976430973038
1772795366053222100,0.97222216796875,0.013116086682677268,0.011574528929637744,0.003957770315604284
1772795366063266300,0.982266357421875,0.022543255719542504,0.0034382262537954373,0.008897875332599505
1772795366073310200,0.992310302734375,0.02089899564385414,-0.005184332418895792,0.021603700713953
1772795366083354000,1.00235400390625,0.023740356549620627,0.002517476413375698,0.0056050351991318165
1772795366093399300,1.0123994140625,0.022245149555802344,0.008016815898462664,0.0016686547314282505
1772795366103443200,1.022443115234375,0.03661035951673984,0.016361913903220556,-0.0004444740981794894
1772795366113487400,1.0324873046875,0.02583469848036766,0.005792207784706261,-0.00383710307800211
1772795366123531000,1.042531005859375,0.02508651046156883,0.005892405339726246,0.01531753311655484
1772795366133575200,1.0525751953125,0.0023421792119741438,0.000033007220458239315,0.003984165132185444
1772795366143619300,1.062619384765625,0.02717968334853649,0.009529330220108385,0.015673717009928076
1772795366153664000,1.0726640625,0.031220483171939848,-0.0015647605321137234,0.02096660838681273
1772795366163708200,1.082708251953125,0.01625730731785297,0.005684091784711927,0.005114429537439719
1772795366173752300,1.09275244140625,0.025835283002257344,-0.004270806903706397,0.001553650049632415
1772795366183796200,1.102796142578125,0.0189531222730875,0.003516038447071332,0.0016138010053429752
1772795366193840400,1.11284033203125,0.015509703820943832,0.00864471570557216,0.010177804741077124
1772795366203884000,1.122884033203125,0.02658113293349743,-0.004996326432970818,0.012300980040663852
1772795366213928200,1.13292822265625,0.030021628776192664,-0.011840694168710615,0.00986486633438617
1772795366223973400,1.142973388671875,0.034060675033926964,0.002467065966967493,-0.01550284482189454
1772795366234017000,1.15301708984375,0.014157120168209076,-0.006167123778013046,-0.0015649112291634083
1772795366244061200,1.163061279296875,0.008922142124176025,0.0006076333372155204,0.007270639456948265
1772795366254105000,1.17310498046875,0.0162561382740736,0.005468384941108524,-0.0008303498769178986
1772795366264149200,1.183149169921875,0.0250835878521204,-0.004218218199943658,0.016602787154121324
1772795366274193400,1.193193359375,0.030919454398751257,-0.002421391061181202,0.0037305922299157826
1772795366284237000,1.203237060546875,0.026880992662906646,0.0011478982433560303,-0.0033189974880311634
1772795366294282200,1.2132822265625,0.013713468053936957,-0.01057545087271137,0.009862738309381528
1772795366304326400,1.223326416015625,0.015959201154112816,-0.006743213482783176,-0.010249737466126679
1772795366314370000,1.2333701171875,-0.0003524666994810104,0.001958292177633848,-0.0065837349050212645
1772795366324414200,1.243414306640625,-0.0003524666994810104,0.01224529519751668,-0.009265777063230052
1772795366334458000,1.2534580078125,0.019101006311178205,-0.002966133496328257,0.0027327494321390984
1772795366344502300,1.263502197265625,0.027330489996075628,-0.015664337260229512,0.01541059082802385
1772795366354546400,1.27354638671875,0.012216507494449615,-0.008742643671692349,0.011485252344142645
1772795366364591000,1.283591064453125,0.006381225469708442,-0.0007314880457473919,-0.00045719658243469893
1772795366374635300,1.29363525390625,0.028678981995582577,0.003643318088550586,0.01134159695659764
1772795366384679400,1.303679443359375,0.011621464210748672,0.0009299195275641977,0.014608663327991961
1772795366394723000,1.31372314453125,0.025240239718556403,-0.006625667500740382,0.006480018802220001
1772795366404767200,1.323767333984375,0.023445172995328903,0.004235406796762254,0.007866632588719948
1772795366414811100,1.33381103515625,0.024046646019816396,0.007345097499224357,0.0026863895397633312
1772795366424856000,1.34385595703125,0.025094693768024444,-0.0006742049005581066,0.004817236689152196
1772795366434900200,1.353900146484375,0.021503975799679755,-0.007245420534012373,0.012307802507095037
1772795366444944100,1.363944091796875,0.01940671125948429,0.008085278024792204,-0.007892936073755845
1772795366454988300,1.37398828125,0.025241993284225463,-0.012876645053748506,0.010775341375963761
1772795366465032200,1.3840322265625,0.03391922073662281,-0.0008380034604109823,-0.005348950679367408
1772795366475076000,1.394076171875,0.01775660596489906,-0.003071482150501106,0.002465248469216749
1772795366485120300,1.404120361328125,0.019551672688126562,0.0009663334146607667,0.0021485198033973575
1772795366495165200,1.414165283203125,0.007582417953014373,-0.004825214499630965,0.006302369813527911
1772795366505209000,1.424208984375,0.018355740901827813,-0.005128526561451144,-0.006282423004042357
1772795366515253200,1.434253173828125,0.023442834907770157,0.012066678094444797,0.015807325927494092
1772795366525297200,1.444297119140625,0.014013912305235863,-0.007581155294401105,0.0005779642847366631
1772795366535341300,1.45434130859375,0.014162380865216255,-0.01895884419439826,-0.006203786543570459
1772795366545385200,1.46438525390625,0.02792962493300438,-0.0037466277659754265,0.010288891299581155
1772795366555429000,1.47442919921875,0.01476210032403469,-0.0013184279380948282,-0.014811602021567522
1772795366565474300,1.484474365234375,0.023889409631490707,-0.01619995567400474,0.007769300560932606
1772795366575518500,1.4945185546875,0.01730710863173008,0.007396761471091304,0.009085817386442796
1772795366585562000,1.50456201171875,0.013120178335905074,0.008968479183665477,-0.01181942533510737
1772795366595606300,1.514606201171875,0.017010171511769295,0.0023467777552781625,-0.002097575067449361
1772795366605650400,1.524650390625,0.019256489133834837,0.00025864180303178727,0.018059059510193765
1772795366615694300,1.5346943359375,0.006237433084845543,-0.009550752034049946,0.001580200129840523
1772795366625738500,1.544738525390625,0.022996844705939292,-0.005971267845772672,0.0038132290120702233
1772795366635783400,1.554783447265625,0.021949381479620934,0.010682822520611807,0.01700993404975161
1772795366645827300,1.564827392578125,0.025989012259244916,0.005477244100999087,0.006819087164010852
1772795366655871500,1.57487158203125,0.026736031234264372,-0.0004502599515719339,0.007797732070973142
1772795366665915100,1.5849150390625,0.02284662258028984,-0.003418249761557672,-0.012765830206591635
1772795366675959300,1.594959228515625,0.040654081949591636,-0.012609744595736265,0.005642152339126914
1772795366686003500,1.60500341796875,0.014914076015353201,0.0027544931897777133,0.008190138055197894
1772795366696047400,1.61504736328125,0.02224456503391266,-0.007511229580058716,-0.0002682864142116159
1772795366706092300,1.62509228515625,0.023590134423971176,-0.017373330851912033,0.005594961329689249
1772795366716136200,1.63513623046875,0.03301730346083641,0.004739616292121354,-0.004736262141121551
1772795366726180400,1.645180419921875,0.020297522619366643,0.012020959806174505,0.003628392230765894
1772795366736224500,1.655224609375,0.018800562059879303,0.0076491995789110655,0.01304849220602773
1772795366746268200,1.66526806640625,0.02643500246107578,0.0027357040076283735,-0.0002500109720043838
1772795366756312300,1.675312255859375,0.005336100330948829,-0.0004692591962753795,0.005587590873986482
1772795366766357500,1.685357421875,0.012220014625787734,-0.009881680471869185,0.004416574333235621
1772795366776401400,1.6954013671875,0.01865384706556797,0.005651424774259794,-0.0026413356884848324
1772795366786445300,1.7054453125,0.008478490009903908,-0.005659651463199407,-0.006107048170827329
1772795366796489200,1.7154892578125,0.015211597657203674,-0.0004442526191822253,0.003555436592409387
1772795366806533400,1.725533447265625,0.028080431580543515,-0.01010616199368378,0.01359335793876089
1772795366816577500,1.73557763671875,0.024639351215958595,0.007427533351979218,0.0101562048306223
1772795366826621200,1.74562109375,0.012518705311417579,0.01808348156539723,0.001170961741823703
1772795366836666400,1.755666259765625,0.0065332011610269546,-0.001189842255518306,-0.0024638054308015853
1772795366846710500,1.76571044921875,0.017008417946100234,-0.005842433284735307,-0.00524624835671857
1772795366856754200,1.775754150390625,0.02972819878757,0.005209035318600945,0.008282739108940586
1772795366866798300,1.78579833984375,0.023593057033419608,0.002617041497444734,-0.010280799324670806
1772795366876842200,1.79584228515625,0.02823182274997234,0.020948141148360445,0.0033303773985709994
1772795366886886400,1.805886474609375,0.0093763156324625,0.0006940352623234503,0.013434514115238562
1772795366896930300,1.815930419921875,0.011620295166969299,-0.013207662539824376,-0.012209548030700533
1772795366906975200,1.825975341796875,0.01984977885186672,0.004490045994822867,-0.0029853450868744403
1772795366917019400,1.836019287109375,0.022544424763321875,-0.002932119345583487,-0.010687032904848456
1772795366927063300,1.846063232421875,0.013566168537735939,-0.012055161186587065,-0.007382146140560508
1772795366937107200,1.856107177734375,0.025986089649796484,-0.008666836205834989,0.013865553343109786
1772795366947151400,1.8661513671875,0.026584640064835546,-0.00030416144519113,0.009826808479474857
1772795366957195300,1.8761953125,0.014016250392794609,0.0014901677758083678,0.012700930010527372
1772795366967239400,1.886239501953125,0.019253566524386406,0.012175157137331551,0.020180901369219646
1772795366977284400,1.896284423828125,0.03332125484347343,-0.00354554995263461,0.00218171882010065
1772795366987328300,1.906328369140625,0.01820902590751648,-0.008064564030326437,0.0021094664346426725
1772795366997372400,1.916372314453125,0.020156652843952176,0.005478554708673618,0.0016024210948031394
1772795367007416300,1.926416259765625,0.01955751790702343,-0.0015047214575461111,-0.011429311772668734
1772795367017460200,1.936460205078125,0.03242635183036327,-0.003922820016520563,-0.0015608926411718128
1772795367027504400,1.94650439453125,0.02569090609550476,-0.003609255988744553,0.006409501716122031
1772795367037548300,1.95654833984375,0.017458499801158905,-0.004410715414606966,-0.013953076362935826
1772795367047593500,1.966593505859375,0.02418985388278961,0.004828292372706346,0.005210464657284319
1772795367057637000,1.97663720703125,0.019999416455626487,0.009012211010826285,0.005296471573458984
1772795367067681300,1.986681396484375,0.013565584015846252,0.0025930418506381102,0.0012992642966099084
1772795367077725400,1.996725341796875,0.023587796336412427,-0.011705799759645015,-0.0033915330012794583
1772795367087769300,2.006769287109375,0.026284195813536644,0.008450177230872213,-0.0021382176050916313
1772795367097813200,2.016813232421875,0.0006938274830579757,-0.02404022084560711,0.006828192919073626
1772795367107857200,2.026857177734375,0.021195932763814925,0.009721069382946007,0.003228661456611007
1772795367117902300,2.03690234375,0.029127310284972188,0.00349336310767103,-0.002287910007778555
1772795367127946500,2.046946533203125,0.002641454419493675,-0.0055277550121070815,0.013119045824743807
1772795367137990100,2.056990234375,0.027031214788556097,-0.0036422632092027924,0.019064053567964583
1772795367148034300,2.067034423828125,0.0015898995399475098,-0.0035079304891405625,-0.002364591973181814
1772795367158078500,2.077078369140625,0.03989829514622688,0.00650284712195862,0.01957146423398517
1772795367168122400,2.087122314453125,0.020594459739327428,-0.0019471291795140132,-0.003658814768493175
1772795367178166300,2.097166259765625,0.02702770765721798,0.001482886368362233,0.005138495399616658
1772795367188211500,2.10721142578125,0.01356090784072876,-0.00004736682266229763,-0.013826947498926892
1772795367198255400,2.11725537109375,0.021491700839996335,-0.0036177315561450084,0.0008190978305414318
1772795367208299500,2.127299560546875,0.010714870759844779,-0.01379474171277834,0.004384169900976121
1772795367218343200,2.13734326171875,0.03525193064510822,-0.011765825134480837,-0.0061942423970904196
1772795367228387300,2.14738720703125,0.01714402702450752,-0.002147279977670405,-0.004660941015742719
1772795367238431200,2.15743115234375,0.023875381106138228,0.005341557390778325,-0.009428813004679978
1772795367248475400,2.167475341796875,0.02058393834531307,-0.002473493424465414,0.013072594600822775
1772795367258520300,2.177520263671875,0.012504676786065101,0.0011957765226718038,0.0055147904992569234
1772795367268564200,2.187564208984375,0.016693945169448852,0.007167663139663636,-0.018180293003376573
1772795367278608400,2.1976083984375,0.01789046147763729,0.0046870915204402985,0.012441155696334317
1772795367288652500,2.207652587890625,0.008161679145693778,0.0031773354114615357,-0.00582389298104681
1772795367298696200,2.2176962890625,0.01983282771706581,-0.0014882246971828863,0.0013494235812686382
1772795367308740400,2.227740234375,0.02073123786151409,0.009451648174284491,0.004076674854382872
1772795367318784300,2.2377841796875,0.01594458810687065,0.005352718105609528,0.010497565614199265
1772795367328829200,2.2478291015625,0.018040099081397056,-0.007126093586836941,0.005440958078065887
1772795367338873300,2.257873291015625,0.009358195453882216,0.007359235622431151,0.01259252859945409
1772795367348917200,2.267917236328125,0.0009784896433353424,0.0005459639945649542,-0.004925126643572002
1772795367358961400,2.27796142578125,0.005915946045517921,-0.010378704457904677,-0.0021024247725028545
1772795367369005600,2.288005615234375,0.02656535084247589,0.00472003024223959,0.0174486907931976
1772795367379049200,2.29804931640625,0.027462591943144796,-0.010410503818676807,0.006063556088972836
1772795367389093400,2.30809326171875,0.031201778471469876,-0.00529255573345581,0.005229041493590921
1772795367399138300,2.31813818359375,0.01907996352314949,-0.010955675512086599,-0.003247293091844767
1772795367409182200,2.32818212890625,0.018480244064331054,0.00907435299422359,0.0026803433914668858
1772795367419226400,2.338226318359375,0.01698211446106434,0.0018088532199850304,0.006904527824604883
1772795367429270300,2.348270263671875,0.018178046247363088,0.0008695927586290054,0.005487263171514496
1772795367439314400,2.358314453125,0.02446341012716293,-0.015917225175909697,0.006269316927297041
1772795367449358300,2.3683583984375,0.022667758882045745,0.0005143381637288257,-0.003163359401747584
1772795367459402200,2.37840234375,0.01728255871236324,-0.014278435859782621,0.00024254005160182713
1772795367469447400,2.388447509765625,0.02940262009501457,-0.011146008169127163,-0.0016034622744191436
1772795367479491300,2.3984912109375,0.00905307502746582,0.004309058838151395,-0.0052806164172012355
1772795367489535200,2.40853515625,0.02596095520853996,-0.006064620101475156,0.008861507111275568
1772795367499579400,2.418579345703125,0.01563479150533676,-0.009775032626464963,0.0023537874513771383
1772795367509623300,2.428623291015625,0.013538696008920669,-0.006330810456722975,-0.002960110180918127
1772795367519667500,2.43866748046875,0.01742693561911583,-0.007592245227284729,0.003647243061708286
1772795367529711400,2.44871142578125,0.021018238109350204,-0.005074775663774926,-0.009338659636350348
1772795367539756300,2.45875634765625,0.023562661895155906,0.0032118039366439916,0.0008822901267092674
1772795367549800400,2.468800537109375,0.02475976272523403,-0.0030570335000404156,-0.007941423991136252
1772795367559844400,2.47884423828125,0.037328152397274966,-0.0002837990771746263,0.011273920281557366
1772795367569888800,2.488888671875,0.01742693561911583,0.007582908860070165,0.005911562131345272
1772795367579932700,2.4989326171875,0.013685995525121689,-0.008471197186014615,0.015457160782953724
1772795367589976800,2.508976806640625,0.02505903793275356,0.0016204430919722654,-0.008570607006456702
1772795367600021000,2.51902099609375,0.023261633121967315,0.0021906761614023705,0.010777615531440824
1772795367610065700,2.529065673828125,0.024010990184545517,-0.008208813072915655,-0.01235382447275333
1772795367620109800,2.53910986328125,0.016529109996557236,0.007567060553678311,0.010856516853393986
1772795367630154000,2.549154052734375,0.016826631638407707,-0.0032451901830150742,-0.0014145429730415343
1772795367640197600,2.55919775390625,0.020266542959213256,-0.003040844983642455,-0.010806001375708729
1772795367650241800,2.56924169921875,0.035679216146469114,0.007834826378081925,0.00025955511848442254
1772795367660285700,2.57928564453125,0.009492635488510131,-0.005456089431827422,-0.005128585926955566
1772795367670329900,2.589329833984375,0.0067991586208343505,0.002102726166602224,0.01941099470895715
1772795367680374800,2.599374755859375,0.02550269004702568,0.0003871041880222037,0.003471183241903782
1772795367690418700,2.609418701171875,0.03687456341087818,0.001674990857380908,0.005360851179715246
1772795367700462800,2.619462890625,0.014576806885004043,-0.007982915912149474,0.012110060578444971
1772795367710506800,2.6295068359375,0.023855507361888885,0.010290405119943898,0.0023046967457979917
1772795367720550700,2.639550537109375,0.011885083582997322,0.008742983881698455,-0.00575199678861536
1772795367730594800,2.6495947265625,0.011287702211737633,-0.004484531852777581,-0.008374856105493381
1772795367740638700,2.659638671875,0.031189503511786457,0.007318003996321931,0.0017592738906387238
1772795367750684000,2.669683837890625,0.011883914539217949,-0.003225563033937942,-0.006008400968788192
1772795367760727800,2.679727783203125,-0.0005377601385116576,-0.016236106982908675,0.005391063654888421
1772795367770771700,2.689771728515625,0.015621932023763656,-0.0008998577494407072,-0.013717322245147079
1772795367780816000,2.69981591796875,0.019809446841478347,0.0035530870884074826,0.006515829901117831
1772795367790859800,2.70985986328125,0.012775894942879677,-0.0014823520788224413,0.010932943090470507
1772795367800903700,2.719903564453125,0.0057435120880603785,0.006260377852304372,0.012460992907965556
1772795367810947800,2.72994775390625,0.019808277797698972,-0.0064330903709749684,0.006688957978319377
1772795367820992800,2.73999267578125,0.015916531056165695,-0.0020736781686311588,-0.00028704591360874474
1772795367831037000,2.750036865234375,0.01786123538315296,0.011081135372526477,-0.0018222287247888743
1772795367841080800,2.760080810546875,0.015017536389827727,-0.0002812714766594581,-0.010791863252501935
1772795367851124700,2.770124755859375,0.02698912921249866,-0.010817066192417405,0.0015325889952946454
1772795367861169000,2.7801689453125,0.015916531056165695,-0.0052437550055328755,-0.0020346202332992107
1772795367871212800,2.790212890625,0.01651449694931507,0.0020246559617109593,-0.0018966091352514921
1772795367881256700,2.800256591796875,0.023698855495452878,-0.0042956171179772355,0.016431193446880207
1772795367891302000,2.810302001953125,0.017265023055672644,0.004004481834429316,0.007799905761750415
1772795367901345800,2.820345703125,0.019359364986419676,-0.005937511706643272,0.0023611396407708526
1772795367911390000,2.830389892578125,0.019659224715828896,0.003111973991093691,0.0012008910892065613
1772795367921433600,2.84043359375,0.027142273947596548,0.013267110242636408,-0.010070965099427849
1772795367931477800,2.850477783203125,0.024297405910491943,0.015068465142755302,-0.018269743118807674
1772795367941522000,2.86052197265625,0.021902035206556317,0.010888261415238958,0.0008025302882306277
1772795367951565800,2.87056591796875,0.019805939710140226,-0.004358128994132858,0.016008428857009857
1772795367961609700,2.880609619140625,0.009930442383885383,-0.004435048421553802,0.001965326989907771
1772795367971655000,2.890655029296875,0.01756196017563343,0.007144775454420596,0.007952557306503877
1772795367981698800,2.90069873046875,0.014120879811048507,0.006840264666068833,-0.010260277126450092
1772795367991743000,2.910742919921875,0.010230886635184287,0.0009327051396947353,0.005971128565166145
1772795368001786600,2.92078662109375,0.021455460482835767,0.004231484106893185,-0.0034954591666348277
1772795368011830800,2.930830810546875,0.023400164809823036,0.006018436022324021,-0.018183946265187115
1772795368021875000,2.940875,0.024299159476161,0.0026770554558373984,0.0008628365075681358
1772795368031918800,2.9509189453125,0.0235498024135828,-0.005168548044585623,0.019370589633332564
1772795368041963800,2.9609638671875,0.020855741024017334,-0.017736394293932242,0.007665493126586079
1772795368052007700,2.971007568359375,0.02040624369084835,-0.0070388491282239556,-0.008374399447767064
1772795368062051800,2.9810517578125,0.022503508231043814,-0.008097004995204042,-0.005120375221036374
1772795368072095700,2.991095703125,0.019510171633958816,0.008524050751258618,-0.004829265053663403
1772795368082139600,3.0011396484375,0.026692192092537877,-0.011221073566179256,0.0018554368746466934
1772795368092183800,3.011183837890625,0.001554243704676628,-0.012266335702256765,0.00923733642003499
1772795368102227700,3.021227783203125,0.02055880390405655,0.0049824760041316035,-0.007061353220976889
1772795368112272600,3.031272705078125,0.030583354312181472,0.0017068130510393528,-0.027463943650014696
1772795368122316800,3.04131689453125,0.016667641684412954,-0.000182749855495058,-0.007215666999854147
1772795368132360700,3.051360595703125,0.016669395250082014,0.01815864971043775,0.015189011366060002
1772795368142404900,3.06140478515625,0.01203062953352928,0.009001639384462032,0.004865852470695972
1772795368152448800,3.07144873046875,0.013377367967367172,0.007516659240424633,-0.0021823946735356004
1772795368162492700,3.08149267578125,0.025797873601317405,0.0011557048071874304,-0.00019407040053047239
1772795368172536800,3.091536865234375,0.018314239847660063,0.0008320806097006425,-0.002572371238656342
1772795368182582000,3.10158203125,0.015620762979984283,-0.006812904018396512,-0.0006126063398551195
1772795368192625700,3.111625732421875,0.028490181425213812,0.010272784981573932,-0.014067551321769133
1772795368202669800,3.121669921875,0.022953590086102486,-0.00851894988445565,0.016464502061437816
1772795368212713700,3.131713623046875,0.010383446848392486,-0.012722039013926404,-0.008256819216394796
1772795368222758000,3.1417578125,0.02040975082218647,0.0023419531663996167,0.0030008166506420818
1772795368232801800,3.1518017578125,0.011579963156580924,-0.004179329227970447,0.028657857009163124
1772795368242845700,3.161845703125,0.01038110876083374,-0.015467670760524924,0.005062699350202456
1772795368252889900,3.171889892578125,0.010081249031424521,0.003636054947413504,0.003532375377230346
1772795368262934800,3.181934814453125,0.031331542330980296,-0.0018813955830992198,0.008729998819250613
1772795368272978700,3.191978759765625,0.02385141570866108,-0.0005576110498746857,-0.007790471213124692
1772795368283022800,3.20202294921875,0.00559270544052124,-0.015788913487968965,-0.0019797391077503563
1772795368293066800,3.212066650390625,0.03656768941879272,-0.002977798817947041,0.017934501548763363
1772795368303111000,3.22211083984375,0.021903788772225378,0.002572423754294868,0.0021240429492667317
1772795368313154800,3.23215478515625,0.022054010897874832,-0.0012935560750309378,-0.0011474530020728706
1772795368323198700,3.24219873046875,0.02339899576604366,-0.010686676711821929,-0.01385758009920828
1772795368333244000,3.252243896484375,0.016364859345555306,0.01107584955934435,-0.002280895745102316
1772795368343287800,3.262287841796875,0.030579262658953665,-0.0026438313229591582,-0.014477529495302587
1772795368353331700,3.272331787109375,0.0251923089236021,-0.0005304581814678385,0.007680087907519191
1772795368363375900,3.2823759765625,0.014568039056658743,0.005993650924228131,-0.010454411459062249
1772795368373419800,3.292419677734375,0.008581365862488746,-0.01042357792938128,-0.0037763036683201787
1772795368383464000,3.3024638671875,0.012920271849632263,0.003250777390296571,0.0026045290757436305
1772795368393507800,3.3125078125,0.021450784307718275,0.008160347988421563,-0.01216142543950118
1772795368403552800,3.322552734375,0.014717092138528823,-0.00014873798803891985,0.0010270049601793288
1772795368413597000,3.332596923828125,0.009778466692566871,-0.013742424720362759,-0.0016859255266375838
1772795368423640800,3.342640869140625,0.025937574332952497,-0.013624422080593649,-0.021990745536470784
1772795368433684700,3.352684814453125,0.0196545485407114,-0.00536189235933125,-0.0048282878061290824
1772795368443728600,3.362728759765625,0.030430209577083586,-0.0039398213836713694,-0.007416605532588437
1772795368453772800,3.372772705078125,0.027735563665628432,-0.0007959156010649166,-0.0067175082193687554
1772795368463817000,3.38281689453125,0.0178594818174839,0.004337887640413828,0.0017731106197461485
1772795368473860900,3.39286083984375,0.022943653213977813,0.003996659287577494,0.008717312867613508
1772795368483905800,3.40290576171875,0.024739888980984687,-0.020215723804139996,-0.0045882593720220025
1772795368493950000,3.412949951171875,0.024290391647815702,-0.008528763458994216,-0.006834102070052177
1772795368503993900,3.422993896484375,0.02024900730252266,-0.0011495718939229845,0.005651787817152217
1772795368514037800,3.433037841796875,0.011270166555047034,-0.005678509144007694,-0.0019897125124931333
1772795368524081700,3.44308154296875,0.03715981009304523,-0.0077614026655559425,-0.006779065680876373
1772795368534125800,3.453125732421875,0.012320552390813826,0.007135167375858873,-0.0033355284977238625
1772795368544170000,3.463169921875,0.030423779836297033,0.0035084693452576174,-0.008570817069010809
1772795368554214700,3.473214599609375,0.015609657064080237,0.001629144704947248,0.002979874327313155
1772795368564258000,3.483258056640625,-0.0009995324313640593,0.0018488769864081404,0.010965402321657165
1772795368574302200,3.49330224609375,0.028329437905550002,-0.0031925786463660186,0.01454451205059886
1772795368584346000,3.50334619140625,0.015460019460320471,0.006209006141382269,-0.0025414555105846373
1772795368594390300,3.513390380859375,0.006629062750935554,-0.0031152938927640206,-0.015374259139318018
1772795368604434200,3.52343408203125,0.021446108132600783,-0.005642440033494495,-0.010388132156664506
1772795368614478000,3.53347802734375,0.02369184123277664,-0.01697236938518472,-0.002671475098421797
1772795368624523300,3.543523193359375,-0.004141337588429451,0.000004511778336018324,0.00371629884308204
1772795368634567200,3.553567138671875,0.027131168031692503,0.0007806540998513809,-0.005204573772614822
1772795368644611000,3.563611083984375,0.022642039918899536,-0.007445103257999289,-0.010928385646361857
1772795368654655200,3.5736552734375,0.021445523610711097,0.0011828736586146987,-0.014484114499716087
1772795368664699100,3.58369921875,0.02907937949001789,0.002801825763110537,-0.001505819719377905
1772795368674743300,3.593743408203125,0.03147416567206383,-0.0036947103490703737,0.0000026577479671686888
1772795368684787200,3.603787109375,0.02519289344549179,-0.011158895050163846,0.0008404602789785713
1772795368694831000,3.6138310546875,0.005440729749202728,0.016981589304679072,0.008163514909753575
1772795368704876300,3.623876220703125,0.0196545485407114,-0.010682598758325912,-0.010193294571153819
1772795368714920000,3.633919921875,0.03162438779771328,-0.00605112586566247,-0.0060890832558739925
1772795368724964000,3.643964111328125,0.012321136912703513,0.005372562167106662,-0.008800031848158687
1772795368735008300,3.65400830078125,0.02474281159043312,0.003005778236838523,0.0031621264258865265
1772795368745052200,3.66405224609375,0.022498247534036633,-0.0035338458151090886,-0.010184115750854834
1772795368755096300,3.674096435546875,0.012471943560242652,0.005057299372588749,-0.010536144058918579
1772795368765140000,3.684139892578125,0.014118541723489761,0.0072922142512281424,-0.0024260307036805895
1772795368775185200,3.69418505859375,0.025940496942400932,-0.0011794076264719478,0.010363883631397038
1772795368785229300,3.704229248046875,0.030727731218934056,0.007307934693456627,-0.007670562027348205
1772795368795273000,3.71427294921875,0.03147591923773289,0.009565225800685584,0.004301752314530313
1772795368805317000,3.724317138671875,0.022797522741556168,-0.008731809467135462,-0.012590765900630503
1772795368815361300,3.734361328125,0.02309504438340664,-0.0006309845300507731,-0.020316419116081667
1772795368825405200,3.7444052734375,0.017857143729925154,0.008207548131013754,-0.008398858035588637
1772795368835449300,3.754449462890625,0.01725683974921703,0.0011895933770574628,-0.01599346874989569
1772795368845493000,3.764492919921875,0.017853636598587037,0.0024565171734895557,-0.0002641947609838098
1772795368855538200,3.7745380859375,0.013815174862742424,0.0019592968246317467,0.0041587088483385735
1772795368865582300,3.784582275390625,0.0061836570709943766,-0.0035175888000521806,0.004162645237939432
1772795368875626000,3.7946259765625,0.008577858731150627,-0.0004403801616630517,-0.001709945723041892
1772795368885670100,3.804670166015625,0.013965981510281562,-0.011379131938412319,0.000008247238537296653
1772795368895714000,3.814714111328125,0.021748305949568746,-0.0057564720343332735,-0.011886417023558169
1772795368905758200,3.82475830078125,0.017260346880555152,0.002871514015435241,-0.00402171153044328
1772795368915802400,3.83480224609375,0.016811434069275856,-0.009313438430125824,-0.004426657335832715
1772795368925847000,3.844846923828125,0.023246435552835464,-0.005664462352346163,-0.01143067261269316
1772795368935891200,3.85489111328125,0.014117957201600074,-0.004064297146711033,0.003978447777451947
1772795368945935400,3.864935302734375,0.010230302113294601,-0.0022566951688961123,-0.009001034312974662
1772795368955979000,3.87497900390625,0.03207797678411007,-0.007796962602704297,-0.003439491195697337
1772795368966023200,3.885023193359375,0.026241525715589523,-0.0014458148941397667,0.009663334146607666
1772795368976067000,3.895067138671875,0.0150187054336071,0.012119908402313011,-0.007991729406267405
1772795368986111200,3.905111328125,0.03147650375962257,0.007239856159617193,-0.008728674511844291
1772795368996155100,3.915155029296875,0.020855156502127645,0.008572963360324502,0.012099612249666825
1772795369006200000,3.925199951171875,0.023998130702972412,0.01207239316588966,0.00034565336620435115
1772795369016244200,3.935244140625,0.01711363188624382,-0.0008729446263401768,0.0019189670975320041
1772795369026288400,3.945288330078125,0.027435703936219212,-0.004503074439754709,0.010130823794193566
1772795369036332000,3.95533203125,0.012620412120223044,0.00619560780369211,-0.01344190283725038
1772795369046376200,3.965376220703125,0.011422726768255233,-0.01038576895293081,0.011064168254705145
1772795369056420000,3.975420166015625,0.008729249900579453,-0.006174553599220234,0.010458101253490894
1772795369066464300,3.98546435546875,0.015761632755398748,-0.009168205290136393,-0.0006274111833423375
1772795369076508200,3.995508056640625,0.01202069266140461,-0.005374107953510247,-0.0010763696603942662
1772795369086552000,4.005552001953125,0.018155834415555,-0.0016170592582202515,0.0001093421259894967
1772795369096596200,4.01559619140625,0.02758183440864086,0.010373927818087395,0.0012549502308480441
1772795369106640100,4.02564013671875,0.0269832839936018,0.007312161060713696,-0.012198725242586805
1772795369116685000,4.03568505859375,0.014563947403430939,-0.022250917142885736,-0.02431764498092234
1772795369126729200,4.045729248046875,0.011422726768255233,-0.002513505774445366,-0.004189597176946699
1772795369136773000,4.055773193359375,0.025784429597854614,0.004225145697651897,0.009349555489700286
1772795369146817300,4.0658173828125,0.015757541102170942,0.0019434142689104192,0.0013291662445291876
1772795369156861200,4.075861083984375,0.01006955859363079,-0.015807718653138726,0.002240883395122364
1772795369166905000,4.085905029296875,0.02787760248482227,-0.011533712862059474,-0.003931320700095966
1772795369176949200,4.09594921875,0.015458265894651413,0.00515199648529524,-0.0071890712538734075
1772795369186993200,4.1059931640625,-0.005039163210988044,0.013992017850547562,-0.0032777612953446803
1772795369197038000,4.1160380859375,0.006783376529812812,0.009412332227337174,-0.006170742790494114
1772795369207082200,4.126082275390625,0.023093875339627264,-0.004780617306078784,0.006713672294467688
1772795369217126100,4.136126220703125,0.019800094491243363,-0.0023107954097329637,0.001520597163401544
1772795369227170300,4.14617041015625,0.014561609315872191,-0.006699255610047839,0.015961457043280825
1772795369237214200,4.156214111328125,0.014410802668333052,-0.004715986538073048,-0.008507496908679604
1772795369247258000,4.166258056640625,0.028178631258010862,0.00784529982303502,-0.0011295063534285874
1772795369257302000,4.176302001953125,0.020547113466262815,0.011148211542656645,-0.0038457795748021452
1772795369267347200,4.18634716796875,0.006481178712844848,0.00594337519184919,0.0012054667996242642
1772795369277391000,4.19639111328125,0.017705752560496328,-0.010114265385037288,0.0071569225499406456
1772795369287435000,4.20643505859375,0.01680909598171711,-0.00266240815926576,0.0009680687140207737
1772795369297479200,4.216479248046875,0.0033411271214485168,0.0014434128744993358,0.001246876522246748
1772795369307523300,4.2265234375,0.007229366731643676,0.0069709623906295745,0.004696989576658234
1772795369317567200,4.236567138671875,0.010070727637410163,-0.006689800511824433,0.011804556559538468
1772795369327611100,4.246611083984375,0.033415362867712975,0.0004140812432044185,-0.009963522669579833
1772795369337655000,4.256655029296875,0.02668167069852352,0.004079202454898041,0.015162671348406001
1772795369347700200,4.2667001953125,0.016506313642859458,0.01188532561159227,-0.003982274569198489
1772795369357744000,4.276744140625,0.016655366724729538,-0.0038931486807530745,0.0053751354333944614
1772795369367788000,4.2867880859375,0.01695581097602844,-0.0011530493425088934,-0.0026471626410726457
1772795369377832200,4.296832275390625,0.015608488020300864,0.0022592912680702284,0.0007792133447248488
1772795369387876400,4.30687646484375,0.012914426630735396,-0.011223452752933372,0.00884690319718793
1772795369397920300,4.316920166015625,0.02473404376208782,-0.0034339656372088935,0.002477806556690484
1772795369407965200,4.326965087890625,0.02084229702055454,0.00043690727965440597,-0.0017947470628190785
1772795369418010000,4.337010009765625,0.020692659416794774,-0.004489975212875288,-0.000324711042875424
1772795369428054000,4.347053955078125,0.013958967247605323,0.00686602244512178,-0.000318162571080029
1772795369438098200,4.35709814453125,0.0036316345006227493,-0.004999858680483885,0.011805506407609209
1772795369448142000,4.36714208984375,0.025477555605769156,0.004288641671207733,-0.010442145632533355
1772795369458186200,4.377186279296875,0.023830957442522047,-0.0035184929823502895,0.001342765511618927
1772795369468230100,4.387230224609375,0.027870003700256347,-0.000314513875846751,-0.004740865251002833
1772795369478274000,4.397274169921875,0.02502338209748268,-0.004039322535658721,0.002684909968730062
1772795369488318200,4.407318115234375,0.033999884757399554,-0.0005822797002503649,-0.008929329916788265
1772795369498363100,4.417363037109375,0.03175356713533401,-0.013151155712769832,-0.00905477379420772
1772795369508407000,4.427406982421875,0.02516892804801464,-0.008553612489171792,0.005708696503005922
1772795369518451200,4.437451171875,0.017535656690597534,-0.013850842114456462,0.014995434155873953
1772795369528495000,4.4474951171875,0.014541735571622848,0.0005773249639198184,0.000877413022192195
1772795369538539300,4.457539306640625,0.014991817426681518,0.00036808439372107383,-0.02478042192077264
1772795369548583200,4.467583251953125,0.015592705929279327,0.01990895256004296,-0.004834434419125318
1772795369558627000,4.477626953125,0.008860767325758934,-0.004564401289110538,0.0018654376788530497
1772795369568671700,4.487671630859375,0.0018277999490499495,0.00018777309048455208,-0.005637056038901209
1772795369578716700,4.497716552734375,0.025469372299313543,-0.010837638622988015,0.0028068284485023467
1772795369588760600,4.507760498046875,0.02082885301709175,-0.022488401993457228,0.008850592991616576
1772795369598804700,4.5178046875,0.02456862406730652,0.006112073689105454,-0.01577931454256177
1772795369608849000,4.527848876953125,0.025766309419274328,0.001549608628754504,0.0024996439291629937
1772795369618892500,4.537892578125,0.017387772652506826,0.0039641726569272576,-0.001173911750735715
1772795369628936700,4.547936767578125,0.008859598281979561,0.016250635548471472,-0.015293887379486113
1772795369638980600,4.557980712890625,0.013948445853590964,-0.014482541313848922,0.002903375025000423
1772795369649025800,4.56802587890625,0.006318097105622291,0.00042578309744130817,-0.011062067629164084
1772795369659069700,4.578069580078125,0.03445055113434791,-0.0029426681390614245,-0.021037874391581862
1772795369669113600,4.588113525390625,0.021880407896637914,0.005049323845398612,-0.004141538517829031
1772795369679157800,4.59815771484375,0.021582886254787444,0.005241215988574549,-0.010620972798159345
1772795369689201700,4.60820166015625,0.03474982634186744,-0.007810589269257616,-0.006357278338540345
1772795369699245600,4.61824560546875,0.017989245676994323,-0.009713198887032922,-0.006556746433395892
1772795369709289700,4.628289794921875,0.028913959795236584,0.00032483890703879296,0.005618826262466609
1772795369719333600,4.638333740234375,0.01709434266388416,0.017058912874187808,-0.0058023844021372496
1772795369729378800,4.64837890625,0.03026362083852291,0.01268269795080414,-0.010661816265201195
1772795369739422700,4.658422607421875,0.027721535140275953,-0.0009717448087176307,-0.008907912669423966
1772795369749466600,4.668466552734375,0.00647241088449955,0.004460230811871588,-0.013889600938977674
1772795369759510800,4.6785107421875,0.012007833179831505,-0.003060417333792429,-0.000019672814849764107
1772795369769554700,4.6885546875,0.02442775429189205,-0.001972957740514539,0.0014435772712808102
1772795369779598600,4.6985986328125,0.024279285731911657,0.0009415391834103502,-0.002515636082738638
1772795369789642800,4.708642822265625,0.016049802047014235,0.0025865687273675573,0.004705711739230901
1772795369799686700,4.718686767578125,0.018145897543430326,0.015933909165940712,-0.005098391718091443
1772795369809731800,4.72873193359375,0.014707155266404152,-0.00010604505720548332,-0.02859183343509212
1772795369819775700,4.738775634765625,0.010667524486780166,-0.0012403097841423003,-0.025664913137722758
1772795369829819600,4.748819580078125,0.022640286353230475,0.0017031072735902853,-0.004317397408233955
1772795369839863800,4.75886376953125,0.010970306825637816,0.0067093066466040905,-0.005969694659905508
1772795369849907700,4.76890771484375,0.021743629774451254,-0.010453877169522455,0.00029051651232875884
1772795369859951600,4.77895166015625,0.009324293184280396,0.0009353628876619041,0.002898717116191983
1772795369869995500,4.78899560546875,0.008427052083611488,0.011316199937148485,0.004429159820172936
1772795369880040700,4.799040771484375,0.008427052083611488,-0.014614695776556618,0.0034044107491616156
1772795369890084900,4.8090849609375,0.021147417446970938,-0.0046008128929184745,0.0019924341925419867
1772795369900128500,4.81912841796875,0.017556699478626252,0.00810827302460093,0.0017292440785560755
1772795369910172700,4.829172607421875,0.029528876823186872,0.00830150774149224,-0.013483139029936864
1772795369920216800,4.839216796875,0.029529461345076558,0.0045270375539432275,-0.011532087160553782
1772795369930260700,4.8492607421875,0.012471943560242652,0.006239823688042816,0.003955477893818169
1772795369940304600,4.8593046875,0.013669044390320777,-0.006883172226033639,0.019375795531412585
1772795369950348500,4.8693486328125,0.022498247534036633,0.0044772915445268156,0.010998007683316244
1772795369960393700,4.879393798828125,0.009026771542429923,0.0044070187703124245,-0.004235865737777203
1772795369970438000,4.88943798828125,0.01276654259264469,-0.0020435045093647203,-0.0026710275738500056
1772795369980481500,4.8994814453125,0.02159749930202961,0.006123115672927815,0.011091960443928838
1772795369990525700,4.909525634765625,0.02399170096218586,0.00500184970817063,-0.002258656513830647
1772795370000569900,4.91956982421875,0.019053660038113592,-0.008878924036957322,-0.005400817863922566
1772795370010613800,4.92961376953125,0.03925590558946133,-0.006598813743144274,0.009779763600509613
1772795370020657700,4.93965771484375,0.029679683470726012,-0.002204946715349797,0.0032651392757892606
1772795370030701600,4.94970166015625,0.009178747233748435,0.012725781323993577,-0.002896178099233657
1772795370040746800,4.959746826171875,0.01591243940293789,0.00018730958289233965,-0.0027501937572844324
1772795370050791000,4.969791015625,0.011574117937684059,0.0054916904681711455,-0.0011576273362152278
1772795370060834600,4.97983447265625,0.025042671319842336,-0.0022053554240148514,0.003998851244663819
1772795370070878700,4.989878662109375,0.02728898894190788,0.005196043406287208,0.004096201538760215
1772795370080922600,4.999922607421875,0.005740589478611946,-0.015065665830892975,-0.011381253113551065
1772795370090966800,5.009966796875,0.016961656194925307,-0.0027799632744630797,-0.013867197310924529
1772795370101010700,5.0200107421875,0.002446224108338356,-0.002244863167207222,-0.014037795504322275
1772795370111054600,5.0300546875,0.015465864679217338,0.005406443887110799,-0.005778336806269362
1772795370121099800,5.040099853515625,0.014117957201600074,0.00021483691063476726,0.013019211312616243
1772795370131144000,5.05014404296875,0.02115267814397812,-0.0026918831322109327,0.00208528184145689
1772795370141187600,5.0601875,0.0233972422003746,0.008332494251511524,0.011209084017574786
1772795370151231700,5.070231689453125,0.015465864679217338,-0.0006174103791359812,-0.00768119301921688
1772795370161275600,5.080275634765625,0.03177870157659054,0.003988377799710724,-0.002093748275702819
1772795370171319800,5.09031982421875,0.02654138544499874,-0.011816135116189251,0.009765780740929767
1772795370181363700,5.10036376953125,0.034472762966156006,-0.00918379786820151,0.0037806875824928283
1772795370191408600,5.11040869140625,0.02429623686671257,-0.003986169859603979,0.0041587088483385735
1772795370201452800,5.120452880859375,0.0132236387103796,-0.010694022051349747,-0.014216348675312473
1772795370211496700,5.13049658203125,0.022500001099705694,-0.0023283036669599824,-0.00811321862777695
1772795370221540600,5.14054052734375,0.022799860829114914,-0.007872646770975551,0.004787188610760495
1772795370231584800,5.150584716796875,0.021454291439056396,-0.001125510598323308,-0.0015720716223120688
1772795370241628700,5.160628662109375,0.031032851645350454,0.003446815985627472,-0.008333720377506688
1772795370251672800,5.1706728515625,0.010680968490242958,-0.0031395584010519085,-0.010658482663799077
1772795370261716500,5.180716552734375,0.025642975300550458,-0.0064649262643652035,0.007650797880953178
1772795370271761700,5.19076171875,0.02684066065251827,0.005908431742631364,0.0022676070052664726
1772795370281805800,5.200805908203125,0.02743979558944702,0.006296277999458835,-0.004107069992646575
1772795370291849700,5.210849609375,0.021751813080906866,-0.002111859321128577,-0.015133527452312409
1772795370301893600,5.2208935546875,0.016063830572366714,-0.004655470256181434,-0.004317744468105957
1772795370311937800,5.230937744140625,0.021750644037127495,0.011766039763612207,-0.008081024258071556
1772795370321981700,5.240981689453125,0.01636193673610687,0.009257849485101178,0.006802391757536679
1772795370332025900,5.25102587890625,0.04075228162705898,0.0028602619690587744,-0.010045337467826902
1772795370342069500,5.261069580078125,0.02533843939602375,0.012140848442353308,0.0023262235910166055
1772795370352114700,5.27111474609375,0.017708090648055074,0.01256432313498808,0.00043366044322028756
1772795370362158800,5.281158935546875,0.01815934154689312,0.00503107808594359,-0.011712905353866517
1772795370372202800,5.29120263671875,0.030729484784603116,0.00401861995763611,0.0007461969911120831
1772795370382246700,5.30124658203125,0.02010463039577007,-0.0018948327366961166,-0.0069231137940660116
1772795370392290600,5.31129052734375,0.028033085307478903,-0.012371796237572561,0.014612435320811345
1772795370402334700,5.321334716796875,0.007383095988631248,-0.00025221434553386645,0.010868234690651297
1772795370412379000,5.33137890625,0.02294599130153656,-0.006416440630273427,0.0027993666612543162
1772795370422422500,5.341422607421875,0.03102525286078453,0.004049232008319813,0.010223424847936258
1772795370432467700,5.3514677734375,-0.003989946419000625,0.0038863147978787306,0.0019592808416113256
1772795370442512000,5.361511962890625,0.01052490114569664,-0.015994747391529382,-0.01109059960390441
1772795370452555800,5.3715556640625,0.018606500792503356,-0.014021591004903893,0.006625628684833645
1772795370462599700,5.381599609375,0.013966566032171248,0.0006284888955764472,-0.017662863266840575
1772795370472643600,5.3916435546875,0.018754969352483747,0.0158013848104747,-0.008546002288162708
1772795370482687700,5.401687744140625,0.01142155772447586,0.009717916161345782,-0.002623151577822864
1772795370492732000,5.41173193359375,0.02264437800645828,0.008315670980873983,-0.002013714442588389
1772795370502776600,5.421776611328125,0.00768061763048172,0.015570589995593763,0.008426129635004326
1772795370512820700,5.43182080078125,0.015312135422229766,0.00649059727845015,-0.010891031044349074
1772795370522865000,5.441864990234375,0.013067571365833282,0.008002997435664292,-0.005795050479052588
1772795370532908800,5.45190869140625,0.01680734241604805,-0.00610759616009891,0.011345816473988815
1772795370542952700,5.46195263671875,0.020099369698762894,0.0004368045316659845,-0.004516984234098345
1772795370552996600,5.47199658203125,0.022943653213977813,0.001640910491265822,0.00001498750657774508
1772795370563040800,5.482040771484375,0.02219312710762024,-0.0015298399157822132,0.011973994842311366
1772795370573084200,5.492084228515625,0.01530979733467102,-0.0011251749548944643,0.0006016739538870752
1772795370583128000,5.502128173828125,0.009773790517449378,-0.007091887639847118,0.01770717733260244
1772795370593173000,5.512173095703125,0.020100538742542265,-0.014756355569837613,0.0013348288003355263
1772795370603217200,5.522217041015625,0.021148001968860623,-0.00814575320748845,0.005054159850720316
1772795370613261000,5.532260986328125,0.033417116433382035,-0.0025436451843823303,-0.001748432836215943
1772795370623305000,5.542304931640625,0.021294716963171957,-0.006231747696152888,-0.005471106621157378
1772795370633348900,5.552348876953125,0.022041735938191413,0.0006239383013336919,0.0026724523459561167
1772795370643393000,5.56239306640625,0.027875848919153214,-0.01062599603314884,0.0028965251591056584
1772795370653437200,5.572437255859375,0.01021510454416275,-0.003130696957872715,0.0009810377934481949
1772795370663481900,5.58248193359375,0.016648936983942986,-0.0012815436935401522,-0.016089165943022815
1772795370673526000,5.592526123046875,0.02203530619740486,0.002408622911153361,-0.0017725352310109883
1772795370683570200,5.602570068359375,0.03026537440419197,-0.0009693747551180422,-0.009104978744639083
1772795370693614000,5.612614013671875,0.013654431343078612,0.00932155552121112,-0.0036326300144661214
1772795370703658000,5.622657958984375,0.0058732759475708,0.007666632487613242,-0.00516483541727066
1772795370713702000,5.632701904296875,0.02832125459909439,0.003942412916268222,0.004735485822986811
1772795370723746000,5.64274609375,0.02667465643584728,0.0031084508767351506,-0.0026307777618523685
1772795370733790000,5.6527900390625,0.0239811795681715,-0.010847080021479633,-0.011345332416798918
1772795370743835000,5.6628349609375,0.01680032815337181,0.013541155110776889,0.006576291384082287
1772795370753879000,5.672879150390625,0.023235329636931416,-0.0029193146629375405,0.003900514569878578
1772795370763923000,5.6829228515625,0.015602642801403999,0.010505305962660349,-0.003908104221289978
1772795370773967000,5.692967041015625,0.004382160606980323,-0.000034068949671927834,-0.009594716756651177
1772795370784011000,5.703010986328125,0.02637888835966587,-0.00538253785513807,-0.007512868981296196
1772795370794055000,5.713054931640625,0.027274960416555402,0.016506866198708302,-0.001765283506317064
1772795370804099000,5.72309912109375,0.016201777738332746,0.013009413721098099,-0.01431421955921687
1772795370814143000,5.73314306640625,0.02084112797677517,0.0039300443417509085,0.0002227576388977468
1772795370824188000,5.74318798828125,0.017998598027229307,-0.0016946773719624616,0.012837616801168768
1772795370834232000,5.753232177734375,0.02308744559884071,0.005547859368508216,-0.0037163262425456193
1772795370844276000,5.76327587890625,0.026080197674036024,-0.002108843096846249,0.0007638787782751023
1772795370854320000,5.773320068359375,0.023685996013879773,-0.0038544720546226014,0.008100907135475427
1772795370864364000,5.783364013671875,0.018299626800417898,0.000025787461805157363,0.014264042008249088
1772795370874408000,5.793407958984375,0.01291208854317665,-0.009211681388970465,-0.015237270954577251
1772795370884452000,5.8034521484375,0.019795418316125867,0.002848751911066938,0.0010566511797718704
1772795370894496000,5.81349609375,0.036106501647830004,0.009099731747363693,0.01080695122377947
1772795370904541000,5.823541015625,0.01156535010933876,-0.004540887982782442,0.0062880216277670115
1772795370914585000,5.833585205078125,0.008422375908493995,-0.00717648120035883,-0.0030280425842851397
1772795370924629000,5.84362890625,0.0284732302904129,0.0011948426576214842,-0.005609090319741517
1772795370934673200,5.853673095703125,0.022335165926814077,0.0006677066611126065,-0.007280585462227463
1772795370944717000,5.863717041015625,0.012459668600559234,0.016438203142979183,0.0038201062774285673
1772795370954761000,5.873760986328125,0.025330256089568137,0.002791213037550915,-0.0011401190789882094
1772795370964805000,5.88380517578125,0.012760697373747824,0.0007131737876334227,-0.005198518491163849
1772795370974849000,5.89384912109375,0.029517770907282827,-0.005633590006758458,0.0016898527830839156
1772795370984894000,5.90389404296875,0.026374212184548378,0.001868403670785483,0.012984697121661155
1772795370994938000,5.913938232421875,0.007967617878317833,0.003733624437218532,0.0024581428749952464
1772795371004982000,5.92398193359375,0.024725275933742522,-0.001647842555551324,-0.007539062868477776
1772795371015026200,5.934026123046875,0.021282442003488538,-0.00549553552622674,0.005088363514421507
1772795371025070000,5.944070068359375,0.01873626465201378,0.00884136850554496,-0.0088318517585285
1772795371035114000,5.954114013671875,0.020083003085851668,-0.0008883111588307656,-0.0038965964465867728
1772795371045158100,5.964158203125,0.03340250338613987,-0.0033337749320548025,-0.004071414157375693
1772795371055202000,5.9742021484375,0.01245499242544174,-0.002901310932077467,-0.011083347879210486
1772795371065247000,5.9842470703125,0.02442424716055393,0.0016569597270572557,-0.006131936016911641
1772795371075291100,5.994291015625,0.024724691411852837,-0.0026770737221464514,-0.014905746578425168
1772795371085335000,6.0043349609375,0.013652677777409552,-0.0011793802270083688,-0.026205915546091273
1772795371095379200,6.014379150390625,0.015448913544416427,-0.003904640472435858,0.0018011950699146836
1772795371105422800,6.0244228515625,0.02218085214793682,0.00534553259628592,-0.00025676037319935854
1772795371115467000,6.034467041015625,0.0145481653124094,-0.013213822852552402,0.003413936629332602
1772795371125511000,6.044510986328125,0.021283026525378227,-0.0025531642146874216,0.0013613423479255289
1772795371135555000,6.05455517578125,0.01888999390900135,0.018660180908231995,0.00490239422195591
1772795371145600000,6.06460009765625,0.01993862617909908,-0.013553932393959257,-0.008204358376795425
1772795371155644000,6.074643798828125,0.016498130336403845,0.0016305489274556747,-0.01142827059305273
1772795371165688000,6.08468798828125,0.013804653468728065,0.007129219408973585,0.015357956458488479
1772795371175732200,6.094732177734375,0.0069195701301097865,0.005359360192238818,-0.002726465821824968
1772795371185775900,6.10477587890625,0.02143500221669674,-0.005895177252124995,0.008990832579368726
1772795371195820000,6.114820068359375,0.029812954461574552,-0.002424831977149006,0.010081815287005155
1772795371205864000,6.124864013671875,0.03220481803417206,0.0012236463437089696,0.0064840921891387545
1772795371215908000,6.134908203125,0.029809447330236435,-0.006763603250263258,-0.004374242162005976
1772795371225953000,6.144953125,0.007213584640622139,0.007554331219557207,-0.015042387703293934
1772795371235997000,6.154996826171875,0.011254384464025496,-0.004543657611892559,-0.006018164310976863
1772795371246041000,6.165041015625,0.013050035709142684,-0.013574381526943761,-0.01933937251116149
1772795371256085000,6.1750849609375,0.015745266142487526,0.006355931198247708,0.005731419791467488
1772795371266129000,6.18512890625,0.017990999242663383,-0.004665822686837054,-0.006606220731465146
1772795371276173000,6.195173095703125,0.019637597405910492,-0.0006428918802645057,-0.00987563432357274
1772795371286217000,6.205217041015625,0.025022797575592993,0.009705209660110995,-0.0014670951441861687
1772795371296261000,6.21526123046875,0.02427519407868385,-0.0013033445333945565,-0.01054222673983313
1772795371306306000,6.22530615234375,0.020983751317858696,-0.00784327226273017,0.007618466513929888
1772795371316350000,6.235349853515625,0.012156886261701583,-0.012012712567637208,-0.013664660476148128
1772795371326394000,6.24539404296875,0.01305412736237049,-0.01319005381789757,-0.01325088291033171
1772795371336438000,6.25543798828125,0.023978256958723066,-0.0017480583768803625,0.014770046168472616
1772795371346482000,6.26548193359375,0.015449498066306114,-0.008059456313657573,0.007339960099803283
1772795371356526000,6.275526123046875,0.009616554129123687,-0.0035003910700790583,0.011283345697028562
1772795371366570000,6.285570068359375,0.03281038271188736,-0.000977443897142075,-0.0021591416621115057
1772795371376614100,6.2956142578125,0.02862052980661392,-0.00953261587244924,-0.0021414872744120656
1772795371386659000,6.3056591796875,0.028770167410373686,-0.0008153144212788902,-0.010823235638299957
1772795371396703000,6.315702880859375,0.03340893312692642,0.0080788300176966,-0.015286763518955557
1772795371406747100,6.3257470703125,0.02024023947417736,0.004683136864530388,0.005309495451813563
1772795371416791000,6.335791015625,0.0214367557823658,0.003339099561143666,0.0013749416150152683
1772795371426835000,6.3458349609375,0.016948212191462517,0.0041305056671611965,-0.000040715602878481145
1772795371436878800,6.35587890625,0.013506547304987907,-0.006318464715091977,-0.005113041297951713
1772795371446923000,6.365923095703125,0.01515256094634533,-0.002997987656027544,-0.010161173266684635
1772795371456967200,6.37596728515625,0.008269815695285797,-0.0004435630660154856,-0.0019484397871885448
1772795371467011800,6.38601171875,0.02353402032256126,0.001900575207604561,0.004249136211303994
1772795371477056000,6.396055908203125,0.03281330532133579,-0.004597903983201831,-0.003295068623172119
1772795371487100200,6.40610009765625,0.027725042271614073,0.013315534227935131,0.006271645881701261
1772795371497144000,6.41614404296875,0.01710194144845009,0.002443824371986557,-0.006996955348411575
1772795371507188000,6.42618798828125,0.01725041000843048,-0.01096702117329696,-0.008270875141210854
1772795371517231900,6.43623193359375,0.020993688189983366,-0.003089307784847915,-0.005873540809052065
1772795371527276000,6.446276123046875,0.016953472888469694,-0.02285310483671492,-0.008706937604071572
1772795371537320200,6.4563203125,0.0190489838629961,-0.0024067369147436693,0.004049120127176866
1772795371547364900,6.46636474609375,0.02593348267972469,0.014807905377272982,-0.00035829365206882356
1772795371557409000,6.476408935546875,0.026382980012893676,-0.004689733285387046,-0.015889460386149586
1772795371567453400,6.486453369140625,0.010968553259968757,0.008859696463390718,-0.008683839856274425
1772795371577497600,6.49649755859375,0.021593407648801802,0.005653356436442118,-0.009592515666410326
1772795371587541200,6.506541259765625,0.03251403011381626,-0.004334990147140343,-0.000352740694116801
1772795371597585400,6.51658544921875,0.021591069561243056,-0.00745365874050185,-0.002285398390283808
1772795371607629300,6.52662939453125,0.015006430473923683,-0.008490726153680588,-0.00278460748353973
1772795371617673500,6.536673583984375,0.012461422166228293,0.019298720840364693,0.004042726919008419
1772795371627717400,6.54671728515625,0.013207856619358062,-0.01084497711264994,-0.00471505495631136
1772795371637762300,6.55676220703125,0.01605097109079361,-0.0006502988685853779,-0.009676851215306669
1772795371647806500,6.566806396484375,0.019491466933488844,0.0023481682780547995,0.0004645122392103076
1772795371657850600,6.5768505859375,0.019043723165988923,-0.02140268683269387,0.010246047671698033
1772795371667894300,6.586894287109375,0.025929975548386573,-0.007094070463778916,-0.009017528790049254
1772795371677938400,6.5969384765625,0.03386076854765415,0.0026231584276887585,-0.01022071230104193
1772795371687982300,6.606982421875,0.01770166090726852,-0.006733792633889243,-0.007415966211771592
1772795371698026500,6.617026611328125,0.01695405741035938,-0.002920077281340491,0.003989389296574518
1772795371708070400,6.6270703125,0.03999941743314266,0.006325981301267165,0.0018029029698111115
1772795371718115300,6.637115234375,0.02039572229683399,0.003373908296332229,-0.006226564630959183
1772795371728159500,6.647159423828125,0.02622983527779579,-0.004050953607948031,-0.008609158051712439
1772795371738203600,6.65720361328125,0.010070143115520477,0.0063931214034790166,-0.005366276273503899
1772795371748247300,6.667247314453125,0.016806173372268675,0.013946648905437904,0.0031442437093239274
1772795371758291500,6.67729150390625,0.03491349247097969,-0.003960480579209979,0.0021608495620079335
1772795371768335400,6.68733544921875,0.018454525101184845,-0.002339610512263607,0.0011900043690111488
1772795371778379500,6.697379638671875,0.013669044390320777,0.009195396974449977,0.007030501424986868
1772795371788423400,6.70742333984375,0.007832008799910545,-0.0048608589184586885,0.0027777850171085447
1772795371798468400,6.71746826171875,0.016360183170437814,-0.0034426763833384027,0.006001149244094267
1772795371808512500,6.727512451171875,0.017408815440535543,0.011001204287400469,-0.009050937869306653
1772795371818556400,6.737556396484375,0.029678514426946637,0.007910019639297388,-0.007477076148707419
1772795371828600300,6.747600341796875,0.010673954227566718,-0.0064558638917864295,0.022121294847270472
1772795371838644500,6.75764453125,0.026387071666121482,0.0014289368245750664,0.011249790487298742
1772795371848688400,6.7676884765625,0.034465748703479765,0.012823175000573974,0.005447826210269704
1772795371858732500,6.777732666015625,0.00573649782538414,0.00677044854958076,-0.008869343357859178
1772795371868776400,6.7877763671875,0.018457447710633276,-0.0029375398727948775,-0.009777096719387918
1772795371878821400,6.7978212890625,0.0266869313955307,0.0007779141534934751,0.0013970255826599896
1772795371888865500,6.807865478515625,0.018157003459334374,-0.011601366704213432,-0.006728002213919535
1772795371898909400,6.817909423828125,0.024293898779153823,-0.002955963728763163,-0.008262353908037767
1772795371908953300,6.827953369140625,0.021003040540218353,-0.003378458890574984,-0.01807169066290371
1772795371918997500,6.83799755859375,0.025641806256771087,0.005073661418922711,0.010951620391476898
1772795371929041400,6.84804150390625,0.01995440827012062,-0.00043227448702091347,-0.015134669096628204
1772795371939085600,6.85808544921875,0.029532383954524993,0.009538949715113267,-0.003097198830358684
1772795371949129200,6.868129150390625,0.01471943022608757,-0.004264016403316054,0.00089638258414343
1772795371959174400,6.87817431640625,0.026840076130628585,0.004680967740330379,-0.002842968340963125
1772795371969218600,6.888218505859375,0.018308394628763196,-0.009451885636302176,0.0019188757659867404
1772795371979262500,6.898262451171875,0.021000702452659607,-0.0018678739478229544,-0.003117465300252661
1772795371989306400,6.908306396484375,0.026687515917420385,0.013194736842880956,-0.015319030953897162
1772795371999350300,6.918350341796875,0.02324526650905609,0.004362462675955612,0.00002782872184179723
1772795372009394400,6.92839453125,0.018754969352483747,-0.0020249664889648556,-0.0100357019898016
1772795372019438600,6.9384384765625,0.028031331741809842,-0.010085788209224119,-0.008343565918086096
1772795372029482200,6.948482177734375,0.015908932271599768,-0.00636162800338352,0.0006900098244659602
1772795372039526400,6.9585263671875,-0.0015998364120721816,-0.0069670351341832425,-0.001955326185701415
1772795372049571600,6.968571533203125,0.018901099824905395,0.001983732579567004,-0.0005585380650591105
1772795372059615500,6.978615478515625,0.03117372142076492,0.0008073685768409632,0.016043271841527894
1772795372069659400,6.988659423828125,0.018153496327996253,-0.012945497622434049,0.003091170948371291
1772795372079703300,6.998703369140625,0.023689503145217894,-0.010306146111770068,0.0010752371492329985
1772795372089747500,7.00874755859375,0.02294073060452938,-0.008606972944492008,-0.011696246480010448
1772795372099791600,7.01879150390625,0.01530979733467102,-0.01090875164741883,-0.009431744747282936
1772795372109835300,7.028835205078125,0.027280221113562583,-0.0017009769652970134,0.0011590886409394443
1772795372119879400,7.03887939453125,0.025932898157835005,-0.003312800642685033,0.00857409587148577
1772795372129924400,7.04892431640625,0.019797756403684613,-0.011903523421986029,-0.008189124275045468
1772795372139968500,7.058968505859375,0.012464344775676726,-0.0006632245655287988,-0.0021249197321012614
1772795372150012400,7.069012451171875,0.022341011145710944,0.01160587848254945,-0.007482373378332704
1772795372160056300,7.079056396484375,0.031467735931277274,-0.004244106126448605,0.01129281677827239
1772795372170100500,7.0891005859375,0.029371640434861183,0.0004590163634740747,-0.004811638065427542
1772795372180144400,7.099144287109375,0.027875264397263524,0.005794536739110481,0.00042766909385100004
1772795372190188300,7.109188232421875,0.01575169588327408,-0.010884635552891994,0.007913513070903717
1772795372200232400,7.119232421875,0.022635610178112983,-0.004479049676773138,0.007484921528445557
1772795372210277400,7.12927734375,0.02278524778187275,-0.0017868377509992568,-0.0127325124588795
1772795372220321500,7.139321533203125,0.0387953023403883,-0.01702264511756366,-0.028344105751719324
1772795372230365400,7.149365478515625,0.014702479091286658,-0.015700337872083765,-0.0030047439070884138
1772795372240409300,7.159409423828125,0.01485270121693611,-0.008759119882457889,-0.00852255748049356
1772795372250453500,7.16945361328125,0.023083938467502594,-0.017290723752509802,0.0008403324148152023
1772795372260497400,7.179497314453125,0.019643442624807356,-0.0011558121217531152,0.017840786250168456
1772795372270541300,7.189541259765625,0.013658522996306419,-0.005019063421164174,0.009055413115024566
1772795372280585500,7.19958544921875,0.009918751946091651,-0.012340859959903172,0.0008806278925854712
1772795372290630400,7.20963037109375,0.009772621473670005,0.005344055308541282,-0.017787028502626343
1772795372300674600,7.219674560546875,0.00678045392036438,0.007346837365161627,-0.005602806709427386
1772795372310718200,7.22971826171875,0.004534720820188522,-0.006738429993099999,0.015298134296340866
1772795372320762400,7.239762451171875,0.014110942938923834,0.0006326216479996219,-0.003000798384333029
1772795372330806500,7.249806640625,0.01889700817167759,-0.0025968275431892834,0.005385209302837029
1772795372340850400,7.259850341796875,0.028774259063601492,0.003814560169342439,-0.009955595091450959
1772795372350894300,7.269894287109375,0.016203531304001807,-0.005272969683574047,-0.0001570080594625324
1772795372360938200,7.279938232421875,0.010965630650520324,-0.000329862142028287,0.000557880477933213
1772795372370982400,7.289982421875,0.026976269730925557,0.0017844539976678787,-0.007565028426796197
1772795372381027600,7.300027587890625,0.02443476855456829,-0.009517128325661178,0.0023257304006721823
1772795372391071200,7.3100712890625,0.013960720813274383,0.006290076587535441,0.004141958642937243
1772795372401115400,7.320115478515625,0.03910042276680469,0.001321889403660316,-0.002402951222192496
1772795372411159600,7.33015966796875,0.023238836768269537,-0.014986981421359813,-0.0041775231466628605
1772795372421203500,7.340203369140625,0.03520984506905079,0.001818198720354121,-0.010753038212610408
1772795372431247400,7.350247314453125,0.019797756403684613,0.009510310425807255,0.007974897002475336
1772795372441291300,7.360291259765625,0.01875087769925594,-0.006479879521613475,0.007864586762106046
1772795372451335400,7.37033544921875,0.022042904981970785,-0.00009465144693385809,0.0013000954136718065
1772795372461380600,7.380380615234375,0.026681086176633832,0.004861779083777219,0.008137841612379997
1772795372471424300,7.39042431640625,0.01934825907051563,-0.0077166935908608136,0.004958234328730032
1772795372481468400,7.400468505859375,0.02638064192533493,-0.012342515344161075,-0.02215580903822556
1772795372491512300,7.41051220703125,0.02293839251697063,-0.008598184566549025,0.0035746527495328336
1772795372501556500,7.420556396484375,0.010070143115520477,0.0002947474461630918,-0.01224301190888509
1772795372511600400,7.430600341796875,0.025333178699016568,0.0059608172337058925,-0.011940969355544074
1772795372521644300,7.440644287109375,0.01051964044868946,-0.010768381912214681,0.005445159329148009
1772795372531688400,7.4506884765625,0.023539281019568443,-0.009150710732641164,0.014190474448539317
1772795372541732400,7.460732421875,0.018000351592898367,-0.01512615243003238,-0.01676551256831735
1772795372551777300,7.47077734375,0.03640577685534954,0.004909634530206677,-0.006627217853721231
1772795372561821400,7.480821533203125,0.038052959540486334,0.004715817574714311,-0.005202235685056075
1772795372571865900,7.490865966796875,0.0238373871833086,-0.007449430089956149,-0.016315713841049
1772795372581910000,7.500909912109375,0.022041151416301728,-0.0010417641378939152,-0.0019913199476897714
1772795372591953700,7.51095361328125,0.019046645775437354,-0.010958376642537768,-0.008344104774203151
1772795372601997800,7.520997802734375,0.00872106659412384,-0.007622665481723379,-0.006754068236937746
1772795372612041700,7.531041748046875,0.02128945626616478,-0.002122211751784198,-0.00610914879636839
1772795372622086000,7.5410859375,0.02308276942372322,-0.006592082608258352,-0.002801458153640851
1772795372632130800,7.551130859375,0.021136311531066893,0.002216767300595529,0.018052830698806793
1772795372642174700,7.5611748046875,0.015601473757624626,0.0031678551970631815,-0.001296177290380001
1772795372652219000,7.571218994140625,0.009019172757863998,0.008497927646024618,-0.008793291580118238
1772795372662263000,7.581262939453125,0.03386018402576446,-0.00025833127577789124,0.014793874568631871
1772795372672306700,7.591306640625,0.031465397843718525,-0.018275140813132747,-0.000542920370819047
1772795372682350800,7.601350830078125,0.007823825493454933,-0.007023174351768102,0.003448003295715898
1772795372692394800,7.611394775390625,-0.000405073669552803,0.0056128645958495324,-0.0021480266130529343
1772795372702439000,7.62143896484375,0.015604396367073059,-0.017441667397366835,-0.011662344210408628
1772795372712483800,7.63148388671875,0.03191606422066688,-0.012010278581955936,-0.005325085746590048
1772795372722527700,7.64152783203125,0.029073534271121023,-0.0007541108695091679,0.010739219749812037
1772795372732572000,7.651572021484375,0.019797171881794928,-0.010214207211730535,-0.002797750092903152
1772795372742616000,7.661615966796875,0.019796002838015556,-0.002161313069600146,-0.00931000893060118
1772795372752659700,7.67165966796875,0.028926234754920004,-0.011332717247109395,-0.0019935941031668336
1772795372762704000,7.681703857421875,0.03700783440172672,-0.004665320363338105,0.00702250991477631
1772795372772747800,7.691747802734375,0.025035657057166098,-0.012096449894912074,0.004858829074865207
1772795372782792000,7.7017919921875,0.013065233278274536,-0.00029529086885740977,-0.006628934886772186
1772795372792835800,7.7118359375,0.028178631258010862,0.010263663243490736,-0.010654071350162848
1772795372802880800,7.721880859375,0.022790508478879926,0.0128671899555251,-0.004890000531263649
1772795372812925000,7.731925048828125,0.027130583509802818,-0.0018074878133833407,-0.0018492719953414052
1772795372822968800,7.74196875,0.021297055050730703,-0.00843120995220961,-0.003316056612273678
1772795372833012700,7.7520126953125,0.01710486405789852,-0.0037324005945120003,-0.003161852431250736
1772795372843057000,7.762056884765625,0.014110358417034148,0.006041460704884957,0.005835528619913384
1772795372853100800,7.772100830078125,0.017100772404670714,-0.01029158558016643,0.0021599453797098247
1772795372863145000,7.78214501953125,0.02802548652291298,-0.004279803060914855,0.003292346943123266
1772795372873188600,7.792188720703125,0.02593231363594532,0.005551590262132231,0.01162049609636888
1772795372883232800,7.802232666015625,0.03251695272326469,0.004594239304948132,-0.005226913468586281
1772795372893278000,7.81227783203125,0.021294716963171957,0.0028924654719186945,-0.017767921943357214
1772795372903321900,7.82232177734375,0.02473755089342594,-0.0022999886046396567,0.009838261455250904
1772795372913365800,7.83236572265625,0.010371756410598754,-0.004280613628379069,0.001312142044492066
1772795372923410000,7.842409912109375,0.029976620590686797,-0.010158600000396836,0.013142435833485797
1772795372933453800,7.852453857421875,0.019202713119983672,-0.005206889027287252,-0.022768123117135837
1772795372943498000,7.862498046875,0.03461713987290859,-0.0016547198209096677,0.0009505056578665972
1772795372953541600,7.872541748046875,0.02504208679795265,-0.0010418189368210733,0.012144821364572272
1772795372963585800,7.882585693359375,0.00469078816473484,-0.0029374531078268772,0.004486105038644746
1772795372973631000,7.892630859375,0.007535656201839446,0.010593744581227655,0.003241831465438008
1772795372983675000,7.9026748046875,0.022798107263445853,-0.010915491915459279,-0.009657571126101537
1772795372993718800,7.91271875,0.015317396119236945,0.002827562992565799,-0.004062527598021551
1772795373003762700,7.9227626953125,0.015316227075457572,-0.006376085786998737,0.005453552698157727
1772795373013806800,7.932806884765625,0.020703765332698822,-0.0009650798892020247,-0.0008059369548689574
1772795373023851000,7.94285107421875,0.0334229616522789,-0.005710502584313507,-0.0009223664087709039
1772795373033894700,7.952894775390625,0.015616086804866789,-0.007626960347639396,-0.008443290832359344
1772795373043938800,7.962938720703125,0.007234627428650856,-0.0018815371469943782,-0.014087671661190689
1772795373053982700,7.972982666015625,0.012171499308943748,-0.012045891034742816,-0.00022694975682534276
1772795373064028000,7.98302783203125,0.019951485660672185,0.007896310774353332,0.00017036073138006032
1772795373074071000,7.993071044921875,0.010675123271346091,0.0027966678140917793,0.005908091532625258
1772795373084114700,8.00311474609375,0.013818097472190856,0.009444238902674987,0.0025023199434392155
1772795373094158800,8.013158935546874,0.02294599130153656,-0.004800890625838656,-0.004954571933764964
1772795373104202800,8.02320263671875,0.0060369420766830445,-0.0074891067965072574,-0.0010456731280311942
1772795373114247000,8.033246826171874,0.0189051914781332,0.008516894924687221,-0.013620264211995527
1772795373124290800,8.043290771484376,0.014565116447210312,0.0036084545544348653,-0.0062966433256398885
1772795373134334700,8.053334716796876,0.0036351416319608688,0.005674170895607676,-0.01230787557233125
1772795373144380000,8.0633798828125,0.03972060049176216,-0.013437822600465733,0.023714464056538417
1772795373154423800,8.073423828125,0.014702479091286658,0.016968122468329964,0.007807659809943288
1772795373164467700,8.0834677734375,0.009915829336643218,0.0035922843043459576,0.012505937161389738
1772795373174511900,8.093511962890625,0.0039221418797969814,0.007219071383203845,0.01260927880485542
1772795373184555800,8.1035556640625,0.015000585255026816,0.005722081140964292,-0.014360378522193058
1772795373194600000,8.113599853515625,0.08055237709581851,-0.013650408188509754,0.011891138864448293
1772795373204643800,8.123643798828125,-0.053823944646120066,-0.0029608636661665514,-0.0063224901529494665
1772795373214687700,8.133687744140625,0.039403205105662344,0.0033242376354406587,-0.0019587785181123763
