time,seconds_elapsed,z,y,x
1772795365149248300,0.068248291015625,0.0005377489142119884,-0.0012394250370562077,0.0008839485235512257
1772795365159292400,0.07829248046875,0.00021950120572000742,0.002039725426584482,-0.002611184027045965
1772795365169337600,0.088337646484375,-0.0003203104715794325,-0.0012576929293572903,0.0007302465382963419
1772795365179381200,0.09838134765625,-0.0005695823347195983,-0.0008188039064407349,-0.00013794400729238987
1772795365189425400,0.10842529296875,0.0010214241920039058,0.0004261150024831295,0.0010480199707672
1772795365199469300,0.11846923828125,0.0011492558987811208,0.0004852372221648693,0.0002730400301516056
1772795365209513500,0.128513427734375,0.0008468402083963156,-0.0003758193925023079,0.0014046755386516452
1772795365219557600,0.1385576171875,-0.0011476011713966727,0.0006526936776936054,-0.00012158195022493601
1772795365229602300,0.148602294921875,-0.002199978567659855,-0.0012525483034551144,0.0014187495689839125
1772795365239646500,0.158646484375,0.0010868950048461556,0.0019320594146847725,-0.0012630535056814551
1772795365249690400,0.1686904296875,-0.0003668433055281639,0.0007716743275523186,0.0003592354478314519
1772795365259734300,0.178734375,0.0018222752260044217,-0.0006784168072044849,0.0033355841878801584
1772795365269778400,0.1887783203125,-0.00014200829900801182,0.000994985457509756,-0.0005541691789403558
1772795365279822300,0.198822265625,0.0008199253352358937,-0.0003286055289208889,-0.0006465808837674558
1772795365289866500,0.208866455078125,-0.00017200573347508907,-0.0002148328348994255,-0.000341320235747844
1772795365299911400,0.218911376953125,0.0008535775123164058,0.0004296521656215191,0.0022334239911288023
1772795365309955300,0.228955322265625,-0.0005309322732500732,-0.0018006362952291965,-0.0015361951664090157
1772795365319999500,0.23899951171875,-0.000786063086707145,-0.0019521703943610191,-0.0006554877618327737
1772795365330043400,0.24904345703125,-0.0008065319852903485,0.00035391421988606453,0.000026055029593408108
1772795365340087300,0.25908740234375,-0.002420940436422825,-0.0007672766223549843,-0.00019392208196222782
1772795365350131500,0.26913134765625,0.001436669030226767,0.0001967218704521656,-0.0001953833270817995
1772795365360176400,0.27917626953125,0.0023983363062143326,-0.0005372450686991215,-0.002547487150877714
1772795365370220500,0.289220458984375,0.0018601898336783051,-0.0013577397912740707,-0.0005917705129832029
1772795365380264400,0.299264404296875,-0.00013558310456573963,0.00005133915692567825,-0.0007502286462113261
1772795365390308400,0.309308349609375,0.0006894844118505716,0.0009608645923435688,-0.0006606290116906166
1772795365400352500,0.3193525390625,-0.00003196601755917072,0.0010769781656563282,-0.002164782490581274
1772795365410396400,0.329396484375,-0.00009818875696510077,-0.0013914527371525764,0.0017958300886675715
1772795365420440300,0.3394404296875,-0.0020553458016365767,0.00003946386277675629,0.0015034150565043092
1772795365430485500,0.349485595703125,-0.0014738477766513824,-0.0009355065412819386,0.000012343167327344418
1772795365440529400,0.359529296875,-0.00020378618501126766,0.0003294949419796467,0.00005655165296047926
1772795365450573600,0.369573486328125,-0.0036832219921052456,-0.00014313403517007828,-0.0016564549878239632
1772795365460617200,0.3796171875,-0.00025972852017730474,0.0006725918501615524,-0.003423728747293353
1772795365470661400,0.389661376953125,0.0006958431331440806,-0.002005212474614382,0.0007020172197371721
1772795365480705500,0.39970556640625,-0.00043946236837655306,-0.00282120518386364,0.0004908285336568952
1772795365490749400,0.40974951171875,0.0012600786285474896,-0.0019113146699965,0.002370850183069706
1772795365500794400,0.41979443359375,0.0014467661967501044,-0.0004268684424459934,0.001358582521788776
1772795365510838500,0.429838623046875,-0.00002857681829482317,-0.00035714171826839447,-0.003651142120361328
1772795365520882400,0.43988232421875,-0.0007159387459978461,0.0000042496249079704285,0.0023191324435174465
1772795365530926600,0.449926513671875,0.0025106698740273714,0.0011453311890363693,-0.0005671679391525686
1772795365540970200,0.45997021484375,-0.000727201288100332,-0.0007684165611863136,0.001082926639355719
1772795365551014400,0.470014404296875,0.0005228789523243904,-0.00044679129496216774,-0.00018782576080411673
1772795365561059300,0.480059326171875,-0.00045396859059110284,0.0002610771916806698,-0.00043549976544454694
1772795365571103000,0.49010302734375,-0.0016348850913345814,-0.0008347295224666595,0.002273187041282654
1772795365581147100,0.500147216796875,-0.0005610985099337995,-0.00035296380519866943,-0.0009803969878703356
1772795365591191300,0.51019140625,-0.00034023611806333065,-0.0006160726770758629,-0.0016986890695989132
1772795365601235200,0.520235107421875,-0.00038710772059857845,-0.0015830667689442635,-0.0010395566932857037
1772795365611279400,0.530279296875,-0.0004985177074559033,-0.0011518141254782677,-0.004445602186024189
1772795365621323000,0.540322998046875,0.0006189446430653334,0.000020775478333234787,0.000825059600174427
1772795365631368200,0.5503681640625,-0.002441476797685027,0.002197282388806343,0.00040807912591844797
1772795365641412400,0.560412353515625,0.001700004911981523,-0.0029287701472640038,0.0005377751076593995
1772795365651456000,0.5704560546875,-0.0032025566324591637,-0.0002511246129870415,0.0020045507699251175
1772795365661500200,0.580500244140625,-0.0006493843393400311,-0.0001169014722108841,-0.000624255568254739
1772795365671544300,0.59054443359375,0.0015789218014106154,-0.0021037752740085125,0.002546383999288082
1772795365681588200,0.600588134765625,0.0010345716727897525,-0.00021346332505345345,0.00034661300014704466
1772795365691633200,0.610633056640625,0.00014463241677731276,0.0018229437991976738,-0.00019314629025757313
1772795365701677300,0.62067724609375,0.0012149568647146225,-0.0016120010986924171,0.000997553113847971
1772795365711721200,0.63072119140625,-0.000047710840590298176,-0.0014114957302808762,0.0003498871810734272
1772795365721765400,0.640765380859375,-0.002290891483426094,-0.0002024201676249504,-0.0033953161910176277
1772795365731809000,0.65080908203125,0.0014650612138211727,0.0008744136430323124,0.0016407717484980822
1772795365741853200,0.660853271484375,0.00038488302379846573,0.001714108046144247,0.0006503420881927013
1772795365751897000,0.67089697265625,-0.0005335934110917151,-0.000005952548235654831,0.0021399320103228092
1772795365761942300,0.6809423828125,-0.001708580064587295,-0.0014174277894198895,0.0005122079746797681
1772795365771986200,0.690986083984375,0.001218602992594242,-0.000653750728815794,0.001739798579365015
1772795365782030000,0.701030029296875,-0.0005643833428621292,-0.0013440418988466263,-0.0012061902089044452
1772795365792074200,0.71107421875,-0.00117665552534163,0.0005271960981190205,-0.0011930291075259447
1772795365802118400,0.721118408203125,-0.00045999884605407715,0.0012515760026872158,-0.0022447113879024982
1772795365812162000,0.731162109375,-0.0013156210770830512,-0.0017451420426368713,0.000467770267277956
1772795365822207200,0.741207275390625,-0.0032437494955956936,0.00006314460188150406,-0.001584994257427752
1772795365832251400,0.75125146484375,0.0018635900923982263,-0.00023709377273917198,0.000559125910513103
1772795365842295300,0.76129541015625,0.0010425375076010823,0.0005834260955452919,0.00025019922759383917
1772795365852339200,0.771339111328125,0.001971616642549634,-0.00291881849989295,-0.00025766005273908377
1772795365862383000,0.781383056640625,0.000006736372597515583,0.00038616452366113663,-0.002489122562110424
1772795365872427300,0.79142724609375,-0.0014553023502230644,0.00010903086513280869,0.000880188075825572
1772795365882471400,0.801471435546875,-0.0016656920779496431,0.000608107540756464,0.0010700714774429798
1772795365892516000,0.81151611328125,-0.0009577931487001479,0.0013363291509449482,-0.0005387230776250362
1772795365902560300,0.821560302734375,-0.0011258386075496674,-0.0009342818520963192,-0.002454334869980812
1772795365912604200,0.831604248046875,-0.00009778991807252169,0.0023030624724924564,0.0004149293527007103
1772795365922648000,0.84164794921875,0.00024682306684553623,0.003052476327866316,-0.0004428747924976051
1772795365932692200,0.851692138671875,-0.0008712715934962034,0.0019825962372124195,0.000751616433262825
1772795365942736100,0.861736083984375,0.0014344933442771435,-0.0003724368289113045,0.0012166042579337955
1772795365952780300,0.8717802734375,0.0014888009754940867,0.00032539572566747665,-0.001106511102989316
1772795365962825200,0.8818251953125,-0.00035277497954666615,0.0012433878146111965,0.0013843434862792492
1772795365972869000,0.891869140625,0.0002798057394102216,0.001086017582565546,0.0007977579953148961
1772795365982913300,0.901913330078125,0.0005972544895485044,-0.0001576784998178482,-0.0014411614974960685
1772795365992957200,0.911957275390625,0.0007224098080769181,0.0012299111112952232,0.0018815071089193225
1772795366003001000,0.9220009765625,0.0010606312425807118,0.0006858273409307003,0.0020322417840361595
1772795366013045200,0.932045166015625,0.00009424809832125902,0.0011773430742323399,-0.0015184441581368446
1772795366023090200,0.942090087890625,-0.0005449105519801378,-0.0017686458304524422,-0.00113015528768301
1772795366033134300,0.95213427734375,0.0006413448136299849,0.000011282972991466522,0.002453574910759926
1772795366043178200,0.96217822265625,0.00019952631555497646,-0.0013032532297074795,-0.0012484854087233543
1772795366053222100,0.97222216796875,-0.0009083081968128681,0.00016792071983218193,-0.0006415172247216105
1772795366063266300,0.982266357421875,0.0004914492601528764,-0.000020098406821489334,0.0016932761063799262
1772795366073310200,0.992310302734375,-0.0025362714659422636,0.0020636278204619884,-0.000029906397685408592
1772795366083354000,1.00235400390625,0.002206551842391491,-0.0003641098737716675,0.001290488988161087
1772795366093399300,1.0123994140625,-0.0005849456647410989,-0.0001217457465827465,-0.0015552624827250838
1772795366103443200,1.022443115234375,-0.0005114424275234342,0.0005661491304636002,-0.001591481501236558
1772795366113487400,1.0324873046875,0.00007203465793281794,0.0012174625881016254,-0.000993579626083374
1772795366123531000,1.042531005859375,-0.0017018970102071762,-0.0004326323978602886,0.0019827689975500107
1772795366133575200,1.0525751953125,-0.0013994756154716015,-0.0003605503588914871,-0.0006645513931289315
1772795366143619300,1.062619384765625,-0.0007834865245968103,0.0020690513774752617,-0.0010701508726924658
1772795366153664000,1.0726640625,0.00034363975282758474,0.0006746510043740273,0.0007098151836544275
1772795366163708200,1.082708251953125,0.001289860811084509,-0.00015439139679074287,-0.004249789752066135
1772795366173752300,1.09275244140625,-0.0009577044984325767,-0.0007567470893263817,-0.001373378443531692
1772795366183796200,1.102796142578125,-0.0009846024913713336,-0.000689635518938303,-0.0003190329298377037
1772795366193840400,1.11284033203125,0.002368350513279438,0.0020746299996972084,0.0009968368103727698
1772795366203884000,1.122884033203125,-0.0002402156824246049,-0.0005829385481774807,0.002312704920768738
1772795366213928200,1.13292822265625,-0.0015154086286202073,0.0004127807915210724,0.0011250240495428443
1772795366223973400,1.142973388671875,0.0008641257882118225,0.0006668465211987495,0.0020355586893856525
1772795366234017000,1.15301708984375,-0.0017330991104245186,-0.0009785685688257217,-0.0018437302205711603
1772795366244061200,1.163061279296875,-0.00007155293133109808,-0.0015189237892627716,-0.0014961876440793276
1772795366254105000,1.17310498046875,-0.0014636688865721226,-0.0010915547609329224,-0.0004058541962876916
1772795366264149200,1.183149169921875,-0.0010399599559605122,0.0011875787749886513,0.002402182901278138
1772795366274193400,1.193193359375,-0.0014398444909602404,-0.00046037090942263603,-0.001062088878825307
1772795366284237000,1.203237060546875,0.00040066614747047424,-0.0005908659659326077,-0.0022945997770875692
1772795366294282200,1.2132822265625,0.0023129088804125786,-0.000505390577018261,0.0003442377783358097
1772795366304326400,1.223326416015625,-0.00177024956792593,0.000254675280302763,-0.000002505723387002945
1772795366314370000,1.2333701171875,-0.0007595301722176373,0.001102376263588667,0.00038078613579273224
1772795366324414200,1.243414306640625,-0.00007563037797808647,-0.0008302796632051468,0.0008846560958772898
1772795366334458000,1.2534580078125,-0.0010353592224419117,0.0011014142073690891,0.000057710916735231876
1772795366344502300,1.263502197265625,-0.00034054048592224717,0.0011861021630465984,-0.0012637496693059802
1772795366354546400,1.27354638671875,0.002072487026453018,-0.0006796200759708881,0.00005800044164061546
1772795366364591000,1.283591064453125,0.0006626095855608582,-0.0018205181695520878,0.0014276641886681318
1772795366374635300,1.29363525390625,-0.002679471392184496,-0.0014300583861768246,0.0018182015046477318
1772795366384679400,1.303679443359375,-0.000011782976798713207,-0.0006862375885248184,0.001396889565512538
1772795366394723000,1.31372314453125,0.0006103696068748832,0.00100740697234869,-0.0008077479433268309
1772795366404767200,1.323767333984375,0.0013083841186016798,-0.0023311316035687923,0.00018587743397802114
1772795366414811100,1.33381103515625,-0.00010878127068281174,-0.0027277846820652485,0.002612839452922344
1772795366424856000,1.34385595703125,0.00007444422226399183,0.0007396512664854527,0.0013283967273309827
1772795366434900200,1.353900146484375,-0.00000706082209944725,-0.0005218409933149815,-0.002760048024356365
1772795366444944100,1.363944091796875,-0.00033116748090833426,-0.000952740665525198,0.0008983364095911384
1772795366454988300,1.37398828125,-0.00018063571769744158,0.0000015301629900932312,0.0018664825474843383
1772795366465032200,1.3840322265625,0.0010505437385290861,0.0022764024324715137,0.0015889812493696809
1772795366475076000,1.394076171875,-0.002693911548703909,0.0003020535223186016,0.0011605856707319617
1772795366485120300,1.404120361328125,-0.0011034716153517365,-0.0011600218713283539,0.0009232979500666261
1772795366495165200,1.414165283203125,0.0019808642100542784,-0.0005697924643754959,0.000938252080231905
1772795366505209000,1.424208984375,-0.0003624511300586164,-0.0013620825484395027,0.00032119767274707556
1772795366515253200,1.434253173828125,-0.0008692130213603377,0.001271914690732956,-0.00110405043233186
1772795366525297200,1.444297119140625,0.002191824372857809,0.001698818989098072,0.0011716206790879369
1772795366535341300,1.45434130859375,-0.00011346640530973673,0.0021084710024297237,-0.0005246635992079973
1772795366545385200,1.46438525390625,-0.00045328581472858787,0.0004535829648375511,0.002252214588224888
1772795366555429000,1.47442919921875,-0.00006603950168937445,0.0007017655298113823,0.0009759730892255902
1772795366565474300,1.484474365234375,-0.00005032680928707123,0.00014756154268980026,-0.00016465887892991304
1772795366575518500,1.4945185546875,-0.0015167717356234789,-0.001942670438438654,-0.0011891850735992193
1772795366585562000,1.50456201171875,-0.0024707159027457237,0.0009266193956136703,0.00010910595301538706
1772795366595606300,1.514606201171875,0.00021492911037057638,-0.002907969057559967,-0.001765335677191615
1772795366605650400,1.524650390625,0.0014730063267052174,0.0002081957645714283,-0.00022629491286352277
1772795366615694300,1.5346943359375,0.0007640516851097345,0.0018123779445886612,-0.0015953518450260162
1772795366625738500,1.544738525390625,-0.00022797583369538188,0.000501836184412241,0.0011378504568710923
1772795366635783400,1.554783447265625,0.0033186818473041058,-0.0004473952576518059,0.000694519723765552
1772795366645827300,1.564827392578125,-0.0005394392646849155,0.0008402434177696705,0.0013997247442603111
1772795366655871500,1.57487158203125,0.0015147393569350243,-0.0013131173327565193,0.0029849018901586533
1772795366665915100,1.5849150390625,-0.00183578347787261,-0.001100596971809864,-0.0001176807563751936
1772795366675959300,1.594959228515625,-0.0002850178861990571,0.000703176949173212,-0.0003185738460160792
1772795366686003500,1.60500341796875,0.00014881102833896875,-0.0005775373429059982,0.0029214280657470226
1772795366696047400,1.61504736328125,0.0013335385592654347,0.0024903113953769207,0.00007092603482306004
1772795366706092300,1.62509228515625,-0.000044647371396422386,0.00014779483899474144,-0.0006065820925869048
1772795366716136200,1.63513623046875,-0.0011658393777906895,0.0014475914649665356,0.0008140082936733961
1772795366726180400,1.645180419921875,-0.0019863592460751534,0.0008086985908448696,0.00005793687887489796
1772795366736224500,1.655224609375,-0.0014249634696170688,0.0008495291694998741,-0.0016471766866743565
1772795366746268200,1.66526806640625,-0.0015368162421509624,-0.0007877820171415806,0.0002545866882428527
1772795366756312300,1.675312255859375,-0.0016797201242297888,0.0013239113613963127,-0.0022099316120147705
1772795366766357500,1.685357421875,-0.00013002665946260095,0.00016144150868058205,-0.0001230787020176649
1772795366776401400,1.6954013671875,0.0002118656411767006,0.002261086832731962,0.0007479796186089516
1772795366786445300,1.7054453125,-0.0011370254214853048,0.0016091451980173588,-0.0017013296019285917
1772795366796489200,1.7154892578125,-0.0025391876697540283,0.0004785992205142975,-0.0012211481807753444
1772795366806533400,1.725533447265625,-0.0011855027405545115,-0.00019997451454401016,-0.0014001125236973166
1772795366816577500,1.73557763671875,0.001217577955685556,-0.00015672296285629272,-0.0007613037014380097
1772795366826621200,1.74562109375,-0.002120161894708872,-0.0007375585846602917,-0.0013783581089228392
1772795366836666400,1.755666259765625,0.00009504682384431362,-0.0011126324534416199,0.0015382670098915696
1772795366846710500,1.76571044921875,-0.0012956559658050537,-0.0015653697773814201,-0.0017238389700651169
1772795366856754200,1.775754150390625,-0.0014236001297831535,-0.0006892913952469826,0.002045219298452139
1772795366866798300,1.78579833984375,0.0012544747442007065,0.000008190516382455826,0.0002209538361057639
1772795366876842200,1.79584228515625,-0.0004999379743821919,0.0010718661360442638,0.0009875979740172625
1772795366886886400,1.805886474609375,-0.0013169958256185055,0.002094786148518324,0.0010555086191743612
1772795366896930300,1.815930419921875,-0.0005379904760047793,0.0006766770966351032,-0.00223362073302269
1772795366906975200,1.825975341796875,-0.0003070944221690297,-0.0017699692398309708,0.001106782117858529
1772795366917019400,1.836019287109375,0.0004920035135000944,-0.001720744650810957,-0.0005491955089382827
1772795366927063300,1.846063232421875,-0.00029709114460274577,-0.0027157012373209,0.000410874024964869
1772795366937107200,1.856107177734375,-0.0005345442914403975,0.00020177988335490227,0.0007092171581462026
1772795366947151400,1.8661513671875,0.0013962474185973406,0.0017384239472448826,-0.00230255164206028
1772795366957195300,1.8761953125,0.0008451924659311771,-0.0018501561135053635,-0.0012413510121405125
1772795366967239400,1.886239501953125,-0.0025484736543148756,-0.0007018009200692177,-0.00037395948311313987
1772795366977284400,1.896284423828125,-0.0012066372437402606,-0.0018412568606436253,-0.0009286596905440092
1772795366987328300,1.906328369140625,-0.0007890536217018962,-0.000007404014468193054,-0.00019362731836736202
1772795366997372400,1.916372314453125,-0.000503671239130199,-0.0013041459023952484,-0.002342458348721266
1772795367007416300,1.926416259765625,-0.001312739565037191,-0.0013768505305051804,0.0007859569741412997
1772795367017460200,1.936460205078125,0.0004842769121751189,0.0013982020318508148,-0.0007417917368002236
1772795367027504400,1.94650439453125,0.00080279097892344,0.0009124414063990116,0.0022430792450904846
1772795367037548300,1.95654833984375,0.0026762792840600014,0.003046758472919464,-0.00016004580538719893
1772795367047593500,1.966593505859375,-0.002007688395678997,-0.0006007067859172821,-0.001308933482505381
1772795367057637000,1.97663720703125,-0.00038813776336610317,-0.0017451602034270763,-0.0013566408306360245
1772795367067681300,1.986681396484375,0.0002827125135809183,0.00017897365614771843,0.0021584653295576572
1772795367077725400,1.996725341796875,0.003188745118677616,0.0011985697783529758,0.0015863747103139758
1772795367087769300,2.006769287109375,0.0015961750177666545,-0.0009109200909733772,0.000084884581156075
1772795367097813200,2.016813232421875,-0.0007971955928951502,0.0043608951382339,0.002281744498759508
1772795367107857200,2.026857177734375,-0.0009255600161850452,-0.003978260792791843,0.002139265416190028
1772795367117902300,2.03690234375,-0.00013492262223735452,0.0025651860050857067,-0.003680489957332611
1772795367127946500,2.046946533203125,0.001860317774116993,-0.002821057802066207,0.0012426296016201377
1772795367137990100,2.056990234375,0.001446555950678885,0.0007750913500785828,0.0003399484558030963
1772795367148034300,2.067034423828125,0.0013208548771217465,-0.0009141517803072929,0.0020696716383099556
1772795367158078500,2.077078369140625,0.0018077725544571877,-0.0005987798795104027,-0.00007646938320249319
1772795367168122400,2.087122314453125,-0.00017228751676157117,0.000548776239156723,0.00045190181117504835
1772795367178166300,2.097166259765625,0.0004858458414673805,0.0010480200871825218,0.0015321070095524192
1772795367188211500,2.10721142578125,0.00033164885826408863,-0.0015919716097414494,0.0024160100147128105
1772795367198255400,2.11725537109375,0.0014512307243421674,0.0007856534793972969,-0.00030697620240971446
1772795367208299500,2.127299560546875,-0.0021818536333739758,0.0020213606767356396,0.003029964864253998
1772795367218343200,2.13734326171875,0.0005484036519192159,0.0012674317695200443,0.0011239261366426945
1772795367228387300,2.14738720703125,-0.0015328567242249846,0.0010727550834417343,-0.0002768966369330883
1772795367238431200,2.15743115234375,-0.0012195524759590626,-0.0013550096191465855,-0.0009949340019375086
1772795367248475400,2.167475341796875,0.0004814085550606251,-0.000032217707484960556,0.00091109040658921
1772795367258520300,2.177520263671875,0.0010671125492081046,-0.00022105872631072998,0.0008362156804651022
1772795367268564200,2.187564208984375,0.001767523935995996,0.0012985412031412125,-0.0009544938802719116
1772795367278608400,2.1976083984375,-0.0002107557957060635,0.0008792392909526825,-0.002852652920410037
1772795367288652500,2.207652587890625,0.000024134991690516472,0.0005958788096904755,-0.0018036337569355965
1772795367298696200,2.2176962890625,-0.0020296082366257906,-0.0013148179277777672,-0.000011921976692974567
1772795367308740400,2.227740234375,0.00047775806160643697,-0.0005989605560898781,0.0002072561765089631
1772795367318784300,2.2377841796875,0.0004276282852515578,-0.00046894093975424767,-0.000314300530590117
1772795367328829200,2.2478291015625,0.0018162005580961704,-0.000974409282207489,0.0009893167298287153
1772795367338873300,2.257873291015625,0.0019871063996106386,-0.00008995411917567253,0.0009256312623620033
1772795367348917200,2.267917236328125,-0.0004547460121102631,0.0008741100318729877,0.0003735580248758197
1772795367358961400,2.27796142578125,-0.001906521269120276,-0.00028274813666939735,-0.0002415097551420331
1772795367369005600,2.288005615234375,-0.000954707560595125,0.0021119662560522556,-0.0018966643838211894
1772795367379049200,2.29804931640625,-0.0007539695361629128,0.0016881432384252548,0.00019025546498596668
1772795367389093400,2.30809326171875,0.0000689472071826458,-0.0016887448728084564,0.0010499239433556795
1772795367399138300,2.31813818359375,0.0006993260467424989,0.00012543052434921265,0.0016059312038123608
1772795367409182200,2.32818212890625,0.0006407365435734391,0.00108763063326478,0.00018593377899378538
1772795367419226400,2.338226318359375,-0.00040377327241003513,0.0016331509687006474,0.00007323443423956633
1772795367429270300,2.348270263671875,0.002651937771588564,0.00007120659574866295,-0.0008980204584077001
1772795367439314400,2.358314453125,-0.0008204981568269432,0.0004892251454293728,-0.0011372463777661324
1772795367449358300,2.3683583984375,-0.0003696249914355576,-0.001663940493017435,0.0002635763958096504
1772795367459402200,2.37840234375,0.0025737641844898462,-0.0004167947918176651,-0.0006292497855611145
1772795367469447400,2.388447509765625,-0.002137101488187909,0.000030349940061569214,0.00017156277317553759
1772795367479491300,2.3984912109375,0.0009301215759478509,-0.001685580238699913,-0.0004581080283969641
1772795367489535200,2.40853515625,0.00016579433577135205,0.0017541591078042984,0.001223145518451929
1772795367499579400,2.418579345703125,-0.00026055355556309223,-0.0015265061520040035,0.0011995910899713635
1772795367509623300,2.428623291015625,0.0008949920884333551,0.0029095206409692764,-0.00040869181975722313
1772795367519667500,2.43866748046875,-0.0013420679606497288,0.0006301570683717728,0.0007479834603145719
1772795367529711400,2.44871142578125,-0.0005266080261208117,-0.001799444667994976,0.0015120444586500525
1772795367539756300,2.45875634765625,0.0007897462346591055,0.0006314688362181187,0.000019252649508416653
1772795367549800400,2.468800537109375,-0.0016779388533905149,-0.0003373888321220875,-0.0003424046444706619
1772795367559844400,2.47884423828125,0.002263825386762619,0.0010030888952314854,-0.0003787754103541374
1772795367569888800,2.488888671875,-0.0006320959655568004,-0.0006499351002275944,-0.0011976974783465266
1772795367579932700,2.4989326171875,0.0001614288194105029,0.000008958391845226288,-0.0009005926549434662
1772795367589976800,2.508976806640625,0.00013080250937491655,0.0009961919859051704,0.0005404438124969602
1772795367600021000,2.51902099609375,-0.0009870813228189945,0.0003323229029774666,-0.000687642430420965
1772795367610065700,2.529065673828125,0.0020023169927299023,-0.0029944980051368475,-0.0021984537597745657
1772795367620109800,2.53910986328125,0.0015341200632974505,0.0005098422989249229,-0.0002149201463907957
1772795367630154000,2.549154052734375,0.0004403599305078387,0.0023117372766137123,-0.0018532967660576105
1772795367640197600,2.55919775390625,0.001604852033779025,-0.0005523930303752422,-0.0012461449950933456
1772795367650241800,2.56924169921875,0.0011502504348754883,0.001005023717880249,0.00007584807462990284
1772795367660285700,2.57928564453125,-0.001085268915630877,-0.002503806259483099,-0.00036363216349855065
1772795367670329900,2.589329833984375,0.0007512468728236854,0.0011452571488916874,-0.0008070485200732946
1772795367680374800,2.599374755859375,0.0005226044449955225,0.0022261328995227814,-0.0012313217157498002
1772795367690418700,2.609418701171875,0.00005282287020236254,0.0015600761398673058,0.00022409576922655106
1772795367700462800,2.619462890625,0.002996800234541297,0.00040952395647764206,-0.0007860175101086497
1772795367710506800,2.6295068359375,0.0000635947217233479,0.00017596501857042313,-0.0023381076753139496
1772795367720550700,2.639550537109375,0.00024807924637570977,-0.0007496490143239498,0.0008483817800879478
1772795367730594800,2.6495947265625,0.00033782777609303594,0.0010607680305838585,-0.0025578010827302933
1772795367740638700,2.659638671875,0.000005852896720170975,0.0029828930273652077,-0.0013132916064932942
1772795367750684000,2.669683837890625,0.0006223747041076422,-0.00026350002735853195,-0.0015252792509272695
1772795367760727800,2.679727783203125,0.0001860876800492406,0.002017492428421974,0.00001605937723070383
1772795367770771700,2.689771728515625,0.00008169177453964949,-0.00004299543797969818,-0.0007946068653836846
1772795367780816000,2.69981591796875,-0.0007767800707370043,0.000609932467341423,0.002257607877254486
1772795367790859800,2.70985986328125,0.000024565088097006083,-0.00013122521340847015,-0.002230351325124502
1772795367800903700,2.719903564453125,-0.00018233072478324175,-0.0002639354206621647,0.0007000321056693792
1772795367810947800,2.72994775390625,0.0013047782704234123,0.0006974656134843826,-0.0005194293335080147
1772795367820992800,2.73999267578125,0.0003312246408313513,0.001953928265720606,-0.0007107451092451811
1772795367831037000,2.750036865234375,0.00042443524580448866,-0.0005481112748384476,-0.0009887791238725185
1772795367841080800,2.760080810546875,0.0008548492332920432,0.0011870358139276505,0.0012858046684414148
1772795367851124700,2.770124755859375,0.0010647062445059419,-0.00011445116251707077,0.0018107136711478233
1772795367861169000,2.7801689453125,-0.0006517008878290653,-0.0006203074008226395,0.002080244943499565
1772795367871212800,2.790212890625,0.0023941562976688147,-0.00149622093886137,0.0003294829512014985
1772795367881256700,2.800256591796875,-0.0024159271270036697,0.00011927122250199318,-0.0026921790558844805
1772795367891302000,2.810302001953125,0.00024963088799268007,-0.00141976960003376,0.0008812504820525646
1772795367901345800,2.820345703125,0.0004739080322906375,0.0016935337334871292,0.0012736128410324454
1772795367911390000,2.830389892578125,0.0003679142100736499,-0.0009927968494594097,0.0013511107536032796
1772795367921433600,2.84043359375,-0.0023417375050485134,0.0014091194607317448,0.00027885427698493004
1772795367931477800,2.850477783203125,0.00040850904770195484,0.0015262984670698643,0.0006082872860133648
1772795367941522000,2.86052197265625,0.0006345401052385569,0.00016191601753234863,-0.00001329183578491211
1772795367951565800,2.87056591796875,0.0007237560348585248,0.00045752665027976036,-0.0018689825665205717
1772795367961609700,2.880609619140625,0.0010484845843166113,-0.00037252064794301987,0.00079727778211236
1772795367971655000,2.890655029296875,0.001632781932130456,-0.0010082167573273182,-0.0004671910428442061
1772795367981698800,2.90069873046875,-0.0003839885466732085,0.0003164932131767273,0.0007050830172374845
1772795367991743000,2.910742919921875,0.0005601020529866219,0.00034046173095703125,0.00014209060464054346
1772795368001786600,2.92078662109375,-0.0033508320339024067,0.002950777765363455,-0.0002344923559576273
1772795368011830800,2.930830810546875,0.0016870698891580105,-0.0018450426869094372,0.000015844707377254963
1772795368021875000,2.940875,-0.0006543791969306767,-0.0006997776217758656,-0.0012887283228337765
1772795368031918800,2.9509189453125,0.00032566406298428774,0.0020179785788059235,0.0016988057177513838
1772795368041963800,2.9609638671875,-0.0005204574554227293,0.0008251089602708817,-0.00017406453844159842
1772795368052007700,2.971007568359375,0.0007650504121556878,-0.0017597549594938755,0.000052037881687283516
1772795368062051800,2.9810517578125,-0.0014114939840510488,-0.00033384375274181366,-0.002412907313555479
1772795368072095700,2.991095703125,0.0002963911974802613,0.0013093268498778343,0.00027768441941589117
1772795368082139600,3.0011396484375,0.0014716407749801874,0.0008228546939790249,0.0002943492727354169
1772795368092183800,3.011183837890625,-0.0021369424648582935,-0.0016546840779483318,-0.0021253987215459347
1772795368102227700,3.021227783203125,-0.00044175295624881983,-0.00009583216160535812,-0.0007299182470887899
1772795368112272600,3.031272705078125,0.00007942761294543743,0.0006157644093036652,-0.0029038565699011087
1772795368122316800,3.04131689453125,0.0014456856297329068,0.00039255013689398766,-0.00034793413942679763
1772795368132360700,3.051360595703125,-0.0014723400818184018,0.00015046866610646248,0.0001679201377555728
1772795368142404900,3.06140478515625,-0.0015791479963809252,-0.00023298803716897964,-0.0023767766542732716
1772795368152448800,3.07144873046875,0.00116816908121109,0.00030443770810961723,0.001078408444300294
1772795368162492700,3.08149267578125,0.000630259863100946,0.0008839666843414307,-0.0015769926831126213
1772795368172536800,3.091536865234375,-0.0004216887755319476,0.0011992854997515678,-0.00030240381602197886
1772795368182582000,3.10158203125,-0.0004234404768794775,0.00011970056220889091,0.0013233848148956895
1772795368192625700,3.111625732421875,0.00141999963670969,0.0001756269484758377,-0.0009003547020256519
1772795368202669800,3.121669921875,-0.0012453513918444514,-0.0013163895346224308,0.0009554679272696376
1772795368212713700,3.131713623046875,-0.0015995517605915666,-0.00045432429760694504,0.002386916894465685
1772795368222758000,3.1417578125,0.0009032390080392361,0.00005199341103434563,-0.0005123362643644214
1772795368232801800,3.1518017578125,0.001030804356560111,0.0020389780402183533,0.0003997964086011052
1772795368242845700,3.161845703125,0.0017757004825398326,0.0018960246816277504,0.0011471775360405445
1772795368252889900,3.171889892578125,-0.00014656921848654747,-0.002293393947184086,-0.0013945434475317597
1772795368262934800,3.181934814453125,-0.0017212331295013428,0.00053444504737854,-0.0012560229515656829
1772795368272978700,3.191978759765625,0.00012993020936846733,0.00045934412628412247,-0.0009095456916838884
1772795368283022800,3.20202294921875,0.0014637676067650318,-0.00047817081212997437,0.001362520270049572
1772795368293066800,3.212066650390625,0.0009460491128265858,-0.0006813700310885906,-0.0012934502447023988
1772795368303111000,3.22211083984375,-0.0006599961780011654,-0.0009867330081760883,0.0011424568947404623
1772795368313154800,3.23215478515625,-0.004872051998972893,0.0011259526945650578,-0.0008980572456493974
1772795368323198700,3.24219873046875,0.0006571173435077071,0.0011469470337033272,-0.0003654921893030405
1772795368333244000,3.252243896484375,0.002187103498727083,0.0023158080875873566,0.002125894883647561
1772795368343287800,3.262287841796875,-0.0032444666139781475,0.0002441825345158577,0.00014420610386878252
1772795368353331700,3.272331787109375,-0.0016516299219802022,0.0010015852749347687,0.0004613886121660471
1772795368363375900,3.2823759765625,0.00033930863719433546,-0.0005506393499672413,-0.0009800021070986986
1772795368373419800,3.292419677734375,0.00022399367298930883,0.0018944088369607925,0.0002663572086021304
1772795368383464000,3.3024638671875,-0.0038506374694406986,-0.0007956204935908318,0.0005432760808616877
1772795368393507800,3.3125078125,-0.0015267629642039537,-0.0009482195600867271,0.001677782740443945
1772795368403552800,3.322552734375,-0.0009146095253527164,0.00333582004532218,-0.0008627347415313125
1772795368413597000,3.332596923828125,-0.001344976364634931,-0.00004612794145941734,0.0007972136372700334
1772795368423640800,3.342640869140625,0.0013262451393529773,-0.0017082053236663342,0.0013191961916163564
1772795368433684700,3.352684814453125,0.0022809882648289204,-0.0011737090535461903,-0.0020395827013999224
1772795368443728600,3.362728759765625,-0.0008765384554862976,0.00013184361159801483,0.0012667045230045915
1772795368453772800,3.372772705078125,-0.0009878585115075111,0.0010069580748677254,-0.0015503871254622936
1772795368463817000,3.38281689453125,-0.0002592679811641574,0.003090452402830124,-0.0008084209403023124
1772795368473860900,3.39286083984375,-0.0002608658978715539,0.0011359583586454391,-0.0014925869181752205
1772795368483905800,3.40290576171875,0.0004400277975946665,-0.000047422945499420166,0.0009473739191889763
1772795368493950000,3.412949951171875,0.00016998325008898973,0.0004583112895488739,-0.0002326727844774723
1772795368503993900,3.422993896484375,0.0009019153658300638,0.0010661352425813675,0.0010694056982174516
1772795368514037800,3.433037841796875,0.0000558291794732213,0.0017481711693108082,0.0013562283711507916
1772795368524081700,3.44308154296875,-0.002381226047873497,-0.0004023783840239048,-0.0006550120306201279
1772795368534125800,3.453125732421875,0.0016601209063082933,0.0002666078507900238,0.0005095882806926966
1772795368544170000,3.463169921875,0.001162184402346611,-0.00003090128302574158,0.0007331888191401958
1772795368554214700,3.473214599609375,0.0009560559410601854,-0.0018562315963208675,0.0006831214996054769
1772795368564258000,3.483258056640625,0.00003271736204624176,0.00019844667986035347,0.0002540143905207515
1772795368574302200,3.49330224609375,-0.001959859859198332,-0.0009845294989645481,-0.0010543966200202703
1772795368584346000,3.50334619140625,0.001187979127280414,0.00016817264258861542,0.0035417950712144375
1772795368594390300,3.513390380859375,-0.0003052552929148078,0.0005785655230283737,0.0008208435028791428
1772795368604434200,3.52343408203125,0.0007459865882992744,-0.0024038138799369335,0.0020227604545652866
1772795368614478000,3.53347802734375,-0.0008519099792465568,-0.0011257627047598362,0.0020565823651850224
1772795368624523300,3.543523193359375,-0.0018541781464591622,0.0004686308093369007,-0.0012460408033803105
1772795368634567200,3.553567138671875,-0.00031460472382605076,0.0008340161293745041,0.0013542696833610535
1772795368644611000,3.563611083984375,0.002226087497547269,-0.0009507951326668262,0.000004650559276342392
1772795368654655200,3.5736552734375,-0.0006583823123946786,0.0001861085183918476,-0.0009823169093579054
1772795368664699100,3.58369921875,-0.0006258722860366106,-0.0006840419955551624,-0.0005994518287479877
1772795368674743300,3.593743408203125,0.0017616517143324018,-0.0028593118768185377,-0.002361665479838848
1772795368684787200,3.603787109375,-0.00039618718437850475,-0.0004264265298843384,0.00018370547331869602
1772795368694831000,3.6138310546875,-0.00027634488651528955,0.0021216855384409428,-0.0005196353886276484
1772795368704876300,3.623876220703125,0.0004934375174343586,0.00003146147355437279,-0.0015131090767681599
1772795368714920000,3.633919921875,-0.0007244260632432997,0.0019880863837897778,-0.0006822028663009405
1772795368724964000,3.643964111328125,0.0018529235385358334,-0.0013004569336771965,0.0007047376129776239
1772795368735008300,3.65400830078125,-0.0015287583228200674,-0.001661048736423254,-0.001922204508446157
1772795368745052200,3.66405224609375,0.0003208768321201205,-0.0005401242524385452,-0.000217683264054358
1772795368755096300,3.674096435546875,-0.0015380096156150103,-0.0015225643292069435,0.0011248161317780614
1772795368765140000,3.684139892578125,0.0012099528685212135,-0.0009398176334798336,-0.00010871142148971558
1772795368775185200,3.69418505859375,-0.0014979493571445346,-0.001072176732122898,0.001160817570053041
1772795368785229300,3.704229248046875,-0.0005383460083976388,-0.0014309408143162727,0.0001134948106482625
1772795368795273000,3.71427294921875,-0.0004664406878873706,0.0014700409956276417,-0.0013610974419862032
1772795368805317000,3.724317138671875,0.001862688222900033,0.0017111231572926044,-0.00023305765353143215
1772795368815361300,3.734361328125,0.0033721679355949163,0.0006418642587959766,0.002295613754540682
1772795368825405200,3.7444052734375,-0.0012576241279020905,0.0009495015256106853,-0.001642468268983066
1772795368835449300,3.754449462890625,0.0001570470631122589,0.002575627528131008,-0.0016049176920205355
1772795368845493000,3.764492919921875,-0.0011792605509981513,-0.0002888208255171776,-0.000030333176255226135
1772795368855538200,3.7745380859375,-0.002357443096116185,-0.0006307708099484444,-0.0006220875075086951
1772795368865582300,3.784582275390625,0.00044460431672632694,-0.00025214068591594696,-0.00009274482727050781
1772795368875626000,3.7946259765625,0.0003737641964107752,0.000830700621008873,-0.0005018063238821924
1772795368885670100,3.804670166015625,-0.00014426850248128176,-0.0013989610597491264,0.0018107718788087368
1772795368895714000,3.814714111328125,0.0007497547194361687,-0.0009195921011269093,-0.0010073852026835084
1772795368905758200,3.82475830078125,0.0011847381247207522,0.00008221762254834175,0.0015776022337377071
1772795368915802400,3.83480224609375,-0.001327421865426004,-0.0009441645815968513,0.0002034112112596631
1772795368925847000,3.844846923828125,-0.00008303974755108356,-0.0008116676472127438,0.000468816957436502
1772795368935891200,3.85489111328125,0.00017368898261338472,-0.0028095711022615433,0.001330882078036666
1772795368945935400,3.864935302734375,-0.0013169924495741725,-0.0005651768296957016,-0.0011289186077192426
1772795368955979000,3.87497900390625,-0.0002847512369044125,0.0016508395783603191,0.0007270382484421134
1772795368966023200,3.885023193359375,-0.0004292191588319838,0.0008128825575113297,-0.0017968608299270272
1772795368976067000,3.895067138671875,0.001685330644249916,0.0016770781949162483,0.0015264978865161538
1772795368986111200,3.905111328125,0.00027860200498253107,0.0012504546903073788,0.00030236097518354654
1772795368996155100,3.915155029296875,-0.0028317037504166365,-0.0016342815943062305,-0.0016052613500505686
1772795369006200000,3.925199951171875,-0.0006978253368288279,0.0012615323066711426,0.0005870788590982556
1772795369016244200,3.935244140625,0.001120048458687961,-0.00017204741016030312,0.0021642029751092196
1772795369026288400,3.945288330078125,-0.0016952338628470898,0.0018312260508537292,0.0021096374839544296
1772795369036332000,3.95533203125,0.000374841270968318,0.001741478219628334,-0.001281365635804832
1772795369046376200,3.965376220703125,-0.0016612132312729955,0.0003474745899438858,0.001110415207222104
1772795369056420000,3.975420166015625,0.002110355533659458,0.00028675422072410583,0.0002885636640712619
1772795369066464300,3.98546435546875,-0.0009338853415101767,-0.001212220173329115,-0.0005077305831946433
1772795369076508200,3.995508056640625,0.000008341041393578053,0.0005566515028476715,0.0010478218318894506
1772795369086552000,4.005552001953125,0.0010473844595253468,-0.0008439603261649609,-0.000040311249904334545
1772795369096596200,4.01559619140625,-0.0010852748528122902,0.001941706519573927,0.0002015038626268506
1772795369106640100,4.02564013671875,-0.001531847519800067,0.00033624470233917236,-0.0010104976827278733
1772795369116685000,4.03568505859375,0.001145960995927453,-0.0010025263763964176,-0.0034456923604011536
1772795369126729200,4.045729248046875,0.0016004987992346287,0.0003197966143488884,-0.0014298028545454144
1772795369136773000,4.055773193359375,0.0004076689947396517,0.001803443767130375,-0.0009429770288988948
1772795369146817300,4.0658173828125,-0.002598668448626995,0.003310432191938162,-0.0026865415275096893
1772795369156861200,4.075861083984375,0.0013539951760321856,-0.0010030902922153473,0.0018264513928443193
1772795369166905000,4.085905029296875,-0.0005080400151200593,-0.0014716344885528088,0.0008879436645656824
1772795369176949200,4.09594921875,0.0011622945312410593,0.00018991203978657722,-0.000680924451444298
1772795369186993200,4.1059931640625,0.001743059721775353,-0.00020108791068196297,0.0006456930423155427
1772795369197038000,4.1160380859375,-0.0014487388543784618,-0.0022671683691442013,0.0005450255703181028
1772795369207082200,4.126082275390625,0.0007755124242976308,0.0001581902615725994,0.0022958717308938503
1772795369217126100,4.136126220703125,-0.0010737866396084428,0.0009462195448577404,0.0021848175674676895
1772795369227170300,4.14617041015625,0.00020230794325470924,0.00043743662536144257,-0.000034435070119798183
1772795369237214200,4.156214111328125,-0.0016435290453955531,0.0010712691582739353,-0.0016895896987989545
1772795369247258000,4.166258056640625,0.002325457986444235,-0.0020932923071086407,-0.000617643294390291
1772795369257302000,4.176302001953125,0.0012633894803002477,0.0018745511770248413,-0.0019015532452613115
1772795369267347200,4.18634716796875,0.00003649329300969839,-0.0016412208788096905,-0.0009440872236154974
1772795369277391000,4.19639111328125,-0.00009453424718230963,-0.0007250937633216381,-0.0004306297632865608
1772795369287435000,4.20643505859375,0.0009719462832435966,-0.000390802975744009,0.0014063460985198617
1772795369297479200,4.216479248046875,0.0006339912069961429,-0.0002991901710629463,0.0001392139820381999
1772795369307523300,4.2265234375,-0.0026807496324181557,0.0008985581807792187,0.0021214308217167854
1772795369317567200,4.236567138671875,-0.000038361409679055214,0.0005648643709719181,-0.001657860935665667
1772795369327611100,4.246611083984375,0.00040202122181653976,-0.00015990156680345535,0.0007386787328869104
1772795369337655000,4.256655029296875,-0.0008677739533595741,0.000787118449807167,-0.0014898544177412987
1772795369347700200,4.2667001953125,-0.0009632107685320079,-0.00022040074691176414,-0.0022020083852112293
1772795369357744000,4.276744140625,-0.000719531555660069,0.0005684276111423969,-0.0011633755639195442
1772795369367788000,4.2867880859375,0.001463059103116393,-0.0028142808005213737,0.001197132864035666
1772795369377832200,4.296832275390625,0.0007762297755107284,0.0014608916826546192,0.0007430639816448092
1772795369387876400,4.30687646484375,-0.0016530819702893496,-0.0011235624551773071,0.0006591766141355038
1772795369397920300,4.316920166015625,-0.00024879706325009465,0.0018490576185286045,0.002584908390417695
1772795369407965200,4.326965087890625,-0.001606564735993743,0.0013880091719329357,-0.0003262958489358425
1772795369418010000,4.337010009765625,-0.0014473076444119215,-0.00013718334957957268,-0.0006674468168057501
1772795369428054000,4.347053955078125,0.00007584027480334044,0.002105983439832926,0.0009719020454213023
1772795369438098200,4.35709814453125,0.00023163517471402884,-0.0008770227432250977,-0.00022971618454903364
1772795369448142000,4.36714208984375,-0.0014944354770705104,0.0024002958089113235,0.000025900080800056458
1772795369458186200,4.377186279296875,-0.0012693983735516667,-0.0004918971098959446,-0.00012376962695270777
1772795369468230100,4.387230224609375,0.00007622397970408201,0.002224261872470379,-0.0010670917108654976
1772795369478274000,4.397274169921875,-0.0013440399197861552,-0.0003656619228422642,-0.0008005093550309539
1772795369488318200,4.407318115234375,-0.0007821274921298027,0.0031275302171707153,0.0019830490928143263
1772795369498363100,4.417363037109375,0.00036249915137887,-0.00005281716585159302,-0.0017600238788872957
1772795369508407000,4.427406982421875,-0.001425586175173521,0.0020697563886642456,-0.00019933190196752548
1772795369518451200,4.437451171875,0.000023439875803887844,0.0017813360318541527,0.0021924530155956745
1772795369528495000,4.4474951171875,-0.0011432112660259008,0.00010407296940684319,-0.001049756072461605
1772795369538539300,4.457539306640625,-0.0018566721118986607,-0.000950539018958807,0.0009761105757206678
1772795369548583200,4.467583251953125,0.000514863757416606,-0.0007388987578451633,0.00123102858196944
1772795369558627000,4.477626953125,0.0023332699202001095,-0.0004432881250977516,-0.0007586190477013588
1772795369568671700,4.487671630859375,-0.0004902369109913707,0.0004620850086212158,-0.00004501070361584425
1772795369578716700,4.497716552734375,0.0010551955783739686,0.0018285531550645828,-0.000009058043360710144
1772795369588760600,4.507760498046875,0.00019848241936415434,-0.0003685439005494118,-0.0002107142936438322
1772795369598804700,4.5178046875,-0.00003054947592318058,0.001014169305562973,-0.0003334860666655004
1772795369608849000,4.527848876953125,0.0003882956225425005,-0.0008998592384159565,-0.0006399149424396455
1772795369618892500,4.537892578125,0.0005446231225505471,-0.001853270921856165,0.0009334806818515062
1772795369628936700,4.547936767578125,-0.0003448600182309747,-0.0012348745949566364,-0.00015922286547720432
1772795369638980600,4.557980712890625,-0.0015760393580421805,0.00032360712066292763,0.0034352457150816917
1772795369649025800,4.56802587890625,0.001283477176912129,-0.0010549654252827168,0.0034713088534772396
1772795369659069700,4.578069580078125,0.00034817506093531847,-0.0001289844512939453,0.0012427758192643523
1772795369669113600,4.588113525390625,0.0007476214086636901,-0.0013673766516149044,0.0019900724291801453
1772795369679157800,4.59815771484375,-0.0008446825668215752,0.0018073772080242634,-0.0005471209296956658
1772795369689201700,4.60820166015625,-0.0003349615726619959,0.0012279786169528961,0.001236008945852518
1772795369699245600,4.61824560546875,0.00011857470963150263,0.0018988288938999176,0.0008748841937631369
1772795369709289700,4.628289794921875,0.000496728578582406,-0.0008236938156187534,-0.0004855738370679319
1772795369719333600,4.638333740234375,0.0007028572726994753,-0.0016676494851708412,-0.000670397188514471
1772795369729378800,4.64837890625,0.0010100607760250568,-0.0021234038285911083,0.0014008110156282783
1772795369739422700,4.658422607421875,-0.0011377785122022033,-0.0001324247568845749,0.0007520649814978242
1772795369749466600,4.668466552734375,0.002339900005608797,-0.00041291769593954086,0.003451154800131917
1772795369759510800,4.6785107421875,-0.0013445833465084434,0.0014033582992851734,-0.0014748943503946066
1772795369769554700,4.6885546875,0.0019797058776021004,-0.0010561910457909107,-0.0006578054162673652
1772795369779598600,4.6985986328125,-0.0008443102124147117,-0.0019057397730648518,0.0010458187898620963
1772795369789642800,4.708642822265625,-0.0011225343914702535,0.00011662254109978676,-0.0011774059385061264
1772795369799686700,4.718686767578125,-0.0011475681094452739,-0.0020288201048970222,-0.000013870885595679283
1772795369809731800,4.72873193359375,-0.0004075148608535528,0.00045702653005719185,-0.0014455148484557867
1772795369819775700,4.738775634765625,-0.0022267200984060764,-0.0013608476147055626,0.0022410990204662085
1772795369829819600,4.748819580078125,-0.00017934321658685803,-0.0020373938605189323,0.0034681125544011593
1772795369839863800,4.75886376953125,0.0004811207763850689,-0.00042644795030355453,0.0009487622883170843
1772795369849907700,4.76890771484375,-0.0003709601587615907,0.0004692263901233673,-0.001168772578239441
1772795369859951600,4.77895166015625,-0.001160054816864431,-0.0011055003851652145,-0.00045477913226932287
1772795369869995500,4.78899560546875,-0.001441888278350234,-0.0014575347304344177,0.0006783084245398641
1772795369880040700,4.799040771484375,0.0017824007663875818,-0.0013520736247301102,0.002260758774355054
1772795369890084900,4.8090849609375,-0.0011380866635590792,0.0015469379723072052,-0.0010005731601268053
1772795369900128500,4.81912841796875,-0.001815861207433045,-0.001407040748745203,0.002275647595524788
1772795369910172700,4.829172607421875,-0.001380330533720553,0.001190992072224617,-0.0013530810829252005
1772795369920216800,4.839216796875,0.0011089261388406157,0.00027486495673656464,-0.001232439884915948
1772795369930260700,4.8492607421875,0.002296756487339735,-0.0003709928132593632,0.00015019869897514582
1772795369940304600,4.8593046875,0.00023653532844036818,-0.000014928169548511505,-0.0014724653447046876
1772795369950348500,4.8693486328125,-0.0008225359488278627,0.0023202928714454174,-0.00238881167024374
1772795369960393700,4.879393798828125,0.0008315533632412553,0.0011623506434261799,0.0011601168662309647
1772795369970438000,4.88943798828125,-0.0008023524424061179,-0.0003220834769308567,-0.0010311768855899572
1772795369980481500,4.8994814453125,0.0012133942218497396,0.0007551652379333973,0.0003440794534981251
1772795369990525700,4.909525634765625,0.0008024036651477218,-0.00018579186871647835,-0.0014230302767828107
1772795370000569900,4.91956982421875,0.0019326491747051477,-0.000818558968603611,-0.001551660941913724
1772795370010613800,4.92961376953125,0.0020988741889595985,-0.0003997785970568657,0.0013906449312344193
1772795370020657700,4.93965771484375,0.0005640944000333548,-0.0022898241877555847,-0.00014653161633759737
1772795370030701600,4.94970166015625,0.00016319204587489367,0.00039322348311543465,-0.0007902156794443727
1772795370040746800,4.959746826171875,0.001056149834766984,-0.001758077647536993,-0.0008085914887487888
1772795370050791000,4.969791015625,0.001225207932293415,-0.00036269519478082657,0.0007051153806969523
1772795370060834600,4.97983447265625,0.000153285451233387,-0.0019779023714363575,-0.0011055677896365523
1772795370070878700,4.989878662109375,0.0003586959792301059,0.0032720891758799553,-0.0017474819906055927
1772795370080922600,4.999922607421875,0.0007656270172446966,-0.0006526107899844646,-0.0005301510682329535
1772795370090966800,5.009966796875,-0.0010952898301184177,0.0028584697283804417,-0.00008834549225866795
1772795370101010700,5.0200107421875,0.0006189869018271565,0.00025389809161424637,-0.0010438876925036311
1772795370111054600,5.0300546875,0.0018272193847224116,-0.0002271002158522606,-0.0016414598794654012
1772795370121099800,5.040099853515625,-0.0025137332268059254,-0.00040712999179959297,-0.0003370436024852097
1772795370131144000,5.05014404296875,0.0007411765400320292,0.0009144730865955353,-0.0007131407619453967
1772795370141187600,5.0601875,0.0013055003946647048,-0.0010139220394194126,0.0009358886163681746
1772795370151231700,5.070231689453125,-0.00040008191717788577,0.0008535175584256649,0.0002835197374224663
1772795370161275600,5.080275634765625,0.0009711796883493662,-0.0001819194294512272,0.002762123476713896
1772795370171319800,5.09031982421875,-0.0003964536590501666,0.0014830045402050018,-0.00012689572758972645
1772795370181363700,5.10036376953125,-0.00245960452593863,0.0017647668719291687,0.00033409742172807455
1772795370191408600,5.11040869140625,-0.0007495351601392031,-0.001653982326388359,0.0011971950298175216
1772795370201452800,5.120452880859375,-0.0006973372073844075,0.0009551169350743294,-0.0005066954763606191
1772795370211496700,5.13049658203125,0.00038779410533607006,-0.0007527116686105728,0.0016631345497444272
1772795370221540600,5.14054052734375,-0.0012705563567578793,-0.0009037130512297153,0.0004591195611283183
1772795370231584800,5.150584716796875,-0.0007729253266006708,-0.0014722063206136227,0.0009513436816632748
1772795370241628700,5.160628662109375,-0.0014136817771941423,-0.0006186631508171558,0.0013513504527509212
1772795370251672800,5.1706728515625,-0.0009325401042588055,0.0007884996011853218,-0.0005678334273397923
1772795370261716500,5.180716552734375,-0.0013125732075423002,0.00044575054198503494,-0.00015424448065459728
1772795370271761700,5.19076171875,-0.00036839902168139815,0.0015972820110619068,0.00014623173046857119
1772795370281805800,5.200805908203125,-0.00008317444007843733,0.00021217204630374908,0.0007699440466240048
1772795370291849700,5.210849609375,-0.00023065455025061965,0.0007453262805938721,-0.0008279652101919055
1772795370301893600,5.2208935546875,0.0004082378000020981,0.0012097819708287716,-0.0026274630799889565
1772795370311937800,5.230937744140625,-0.0015655267052352428,0.0006716144271194935,-0.001598424045369029
1772795370321981700,5.240981689453125,-0.0008347553666681051,-0.0006738146767020226,-0.0010594002669677138
1772795370332025900,5.25102587890625,0.0015571295516565442,0.0008919318206608295,-0.0006053105462342501
1772795370342069500,5.261069580078125,-0.0016085701063275337,0.0007483875378966331,-0.0035758004523813725
1772795370352114700,5.27111474609375,0.002729511819779873,0.00006667478010058403,-0.002676770556718111
1772795370362158800,5.281158935546875,-0.00047533621545881033,-0.0012803520075976849,0.0025973536539822817
1772795370372202800,5.29120263671875,-0.0014500750694423914,0.0011118086986243725,0.0000823081936687231
1772795370382246700,5.30124658203125,0.0005939010297879577,0.00012777093797922134,0.00042985077016055584
1772795370392290600,5.31129052734375,0.0009251626906916499,0.001515913289040327,-0.001178215490654111
1772795370402334700,5.321334716796875,-0.000024787033908069134,0.00009005656465888023,-0.0004772714455612004
1772795370412379000,5.33137890625,-0.0010870583355426788,-0.0007579722441732883,-0.000828965101391077
1772795370422422500,5.341422607421875,0.0005182950990274549,0.0016540526412427425,0.0010198012460023165
1772795370432467700,5.3514677734375,-0.0015553837874904275,0.0009871707297861576,-0.0017646562773734331
1772795370442512000,5.361511962890625,-0.0035460968501865864,0.00009341351687908173,-0.00216013565659523
1772795370452555800,5.3715556640625,0.0009847022593021393,0.0015097376890480518,0.00021052430383861065
1772795370462599700,5.381599609375,0.0004526027478277683,-0.00020587071776390076,0.0017761967610567808
1772795370472643600,5.3916435546875,0.00109408563002944,-0.00015094317495822906,0.0011948593892157078
1772795370482687700,5.401687744140625,-0.0011323168873786926,0.0005398807115852833,-0.0027088019996881485
1772795370492732000,5.41173193359375,0.0006275614723563194,0.00014546280726790428,0.00011708668898791075
1772795370502776600,5.421776611328125,0.0011474104830995202,0.00018967129290103912,-0.00029703485779464245
1772795370512820700,5.43182080078125,-0.0022667499724775553,0.00037156371399760246,0.0014697837177664042
1772795370522865000,5.441864990234375,-0.002266217488795519,-0.000005805864930152893,0.002234111074358225
1772795370532908800,5.45190869140625,-0.003536991775035858,0.0009907097555696964,-0.0008691946277394891
1772795370542952700,5.46195263671875,0.00006333575583994389,-0.0003081136383116245,0.00004879699554294348
1772795370552996600,5.47199658203125,0.002408743603155017,0.0006903884932398796,-0.0004343342734500766
1772795370563040800,5.482040771484375,0.0005312151042744517,0.00031088804826140404,0.00010042847134172916
1772795370573084200,5.492084228515625,0.00005265034269541502,-0.000015337951481342316,-0.0001289312494918704
1772795370583128000,5.502128173828125,0.0013687845785170794,-0.0020212307572364807,-0.0005875276401638985
1772795370593173000,5.512173095703125,0.0007821748731657863,0.00023703882470726967,-0.000012502423487603664
1772795370603217200,5.522217041015625,-0.0010447535896673799,-0.0004710960201919079,0.0009736662032082677
1772795370613261000,5.532260986328125,0.0009695214685052633,0.00007985252887010574,-0.0016830540262162685
1772795370623305000,5.542304931640625,-0.000379103294108063,0.0009674839675426483,-0.00002656772267073393
1772795370633348900,5.552348876953125,0.00045491219498217106,0.0006403517909348011,0.0018173112766817212
1772795370643393000,5.56239306640625,-0.0013238131068646908,0.002252895850688219,0.0008897321531549096
1772795370653437200,5.572437255859375,-0.002125461120158434,0.00267814751714468,0.0005239590536803007
1772795370663481900,5.58248193359375,-0.0015054772375151515,-0.0003573233261704445,-0.0016041729832068086
1772795370673526000,5.592526123046875,0.0013380974996834993,-0.00015920214354991913,-0.0001780953025445342
1772795370683570200,5.602570068359375,-0.0003159918123856187,-0.0018457821570336819,0.00120861257892102
1772795370693614000,5.612614013671875,-0.0004629101022146642,0.0007419069297611713,-0.002233537845313549
1772795370703658000,5.622657958984375,-0.0008733032154850662,-0.00006636232137680054,-0.00015147868543863297
1772795370713702000,5.632701904296875,0.000391327659599483,0.0008601355366408825,-0.002059320453554392
1772795370723746000,5.64274609375,0.00024245702661573887,0.00033016642555594444,-0.000456097477581352
1772795370733790000,5.6527900390625,-0.0014609815552830696,-0.0008498011156916618,0.00009442761074751616
1772795370743835000,5.6628349609375,-0.0014031910104677081,-0.0009954757988452911,0.00014129921328276396
1772795370753879000,5.672879150390625,0.00058342469856143,0.0018957164138555527,-0.00012756255455315113
1772795370763923000,5.6829228515625,-0.00009408348705619574,-0.0017584064044058323,-0.0005432819598354399
1772795370773967000,5.692967041015625,0.003457751590758562,-0.00035738106817007065,0.0004245638847351074
1772795370784011000,5.703010986328125,0.0005786081310361624,0.00297183683142066,0.001387030235491693
1772795370794055000,5.713054931640625,-0.001697189174592495,-0.00022847438231110573,0.0014427645364776254
1772795370804099000,5.72309912109375,-0.0003038233262486756,0.0005299937911331654,0.002653171308338642
1772795370814143000,5.73314306640625,-0.0005066884914413095,0.0003633410669863224,0.0007515788311138749
1772795370824188000,5.74318798828125,0.00019825022900477052,-0.0003953934647142887,0.000017345300875604153
1772795370834232000,5.753232177734375,-0.0017871193122118711,0.0012095281854271889,-0.0035280785523355007
1772795370844276000,5.76327587890625,0.0004680454730987549,0.0009567942470312119,0.00022245128639042377
1772795370854320000,5.773320068359375,0.0002586763584986329,-0.0013544484972953796,0.0011353895533829927
1772795370864364000,5.783364013671875,0.00044323340989649296,0.002552142832428217,0.00005787459667772055
1772795370874408000,5.793407958984375,-0.001078918226994574,-0.00040066149085760117,-0.000049249036237597466
1772795370884452000,5.8034521484375,-0.0007414956926368177,0.0005301134660840034,0.0012921852758154273
1772795370894496000,5.81349609375,-0.000263685651589185,0.00006444239988923073,0.0000020725419744849205
1772795370904541000,5.823541015625,-0.003179314313456416,0.0008567329496145248,-0.00017156556714326143
1772795370914585000,5.833585205078125,-0.00004280020948499441,-0.00047287018969655037,0.002123856218531728
1772795370924629000,5.84362890625,-0.00002256018342450261,0.0007529826834797859,-0.00003889703657478094
1772795370934673200,5.853673095703125,-0.0006367148598656058,0.0005715838633477688,-0.0008613098761998117
1772795370944717000,5.863717041015625,0.000781684706453234,-0.002101963385939598,0.002100391313433647
1772795370954761000,5.873760986328125,0.002107907086610794,-0.0005816780030727386,-0.00008211482781916857
1772795370964805000,5.88380517578125,0.00010734045645222068,-0.0005020494572818279,0.0008345452370122075
1772795370974849000,5.89384912109375,-0.001307803438976407,0.0009166761301457882,0.00006474403198808432
1772795370984894000,5.90389404296875,0.002327677560970187,0.00039576180279254913,0.0020317547023296356
1772795370994938000,5.913938232421875,0.0013857348822057247,0.0016868235543370247,-0.0007384094642475247
1772795371004982000,5.92398193359375,-0.0003660924849100411,0.002223450690507889,-0.0007234957884065807
1772795371015026200,5.934026123046875,0.0011136563261970878,0.0022920435294508934,-0.0015614322619512677
1772795371025070000,5.944070068359375,0.0014100661501288414,0.001976192928850651,0.00342373875901103
1772795371035114000,5.954114013671875,0.0005025019636377692,-0.0003660907968878746,-0.00003499968443065882
1772795371045158100,5.964158203125,0.0002963732695207,-0.00010882923379540443,0.004679327830672264
1772795371055202000,5.9742021484375,0.0016174225602298975,0.0005661766044795513,0.0004635113291442394
1772795371065247000,5.9842470703125,-0.0019919597543776035,-0.0008682021871209145,-0.0017756745219230652
1772795371075291100,5.994291015625,-0.0016027528326958418,-0.0009536072611808777,0.0007458478212356567
1772795371085335000,6.0043349609375,-0.0012149966787546873,-0.0013381675817072392,-0.001521301339380443
1772795371095379200,6.014379150390625,-0.0009296921780332923,0.0012364871799945831,0.0017226188210770488
1772795371105422800,6.0244228515625,-0.001729173120111227,0.0008444702252745628,-0.000013762153685092926
1772795371115467000,6.034467041015625,-0.0006067074718885124,0.001814435701817274,-0.0022207247093319893
1772795371125511000,6.044510986328125,0.0012417924590408802,-0.0004593711346387863,-0.00017088965978473425
1772795371135555000,6.05455517578125,-0.0011623958125710487,-0.0026876586489379406,-0.0015658444026485085
1772795371145600000,6.06460009765625,0.0005641315365210176,-0.0003864215686917305,0.0005529664922505617
1772795371155644000,6.074643798828125,0.0011818810598924756,-0.00026015983894467354,-0.00008257653098553419
1772795371165688000,6.08468798828125,-0.00037553554284386337,0.001229346264153719,-0.0006594171863980591
1772795371175732200,6.094732177734375,-0.0007084754179231822,-0.0007760138250887394,0.00021993473637849092
1772795371185775900,6.10477587890625,-0.000773190229665488,-0.0003842627629637718,-0.0027353749610483646
1772795371195820000,6.114820068359375,0.0026225284673273563,0.0029332535341382027,0.0007875972660258412
1772795371205864000,6.124864013671875,-0.00031733521609567106,0.0021936940029263496,-0.00038472627056762576
1772795371215908000,6.134908203125,-0.0006690822192467749,0.001677040010690689,-0.002701466204598546
1772795371225953000,6.144953125,0.00038952426984906197,0.00024239486083388329,-0.0006423100712709129
1772795371235997000,6.154996826171875,-0.001075649750418961,0.0002598739229142666,0.0006631369469687343
1772795371246041000,6.165041015625,0.000028230540920048952,-0.0011044638231396675,-0.0015771142207086086
1772795371256085000,6.1750849609375,-0.0010840878821909428,0.0009605064988136292,0.0003958136076107621
1772795371266129000,6.18512890625,0.0015234132297337055,-0.0013047782704234123,-0.000330430397298187
1772795371276173000,6.195173095703125,-0.0006228278507478535,0.0010061832144856453,0.0006720875389873981
1772795371286217000,6.205217041015625,0.0013644229620695114,0.00043653324246406555,0.0022601305972784758
1772795371296261000,6.21526123046875,0.0023269790690392256,-0.0007917201146483421,-0.001662716967985034
1772795371306306000,6.22530615234375,0.0026912996545434,-0.001913177315145731,-0.001350328209809959
1772795371316350000,6.235349853515625,-0.00036676452145911753,0.000941180158406496,-0.0012433489318937063
1772795371326394000,6.24539404296875,0.0018601707415655255,0.0021369396708905697,-0.0002585119800642133
1772795371336438000,6.25543798828125,0.001614749780856073,-0.0006731213070452213,-0.00009328930173069239
1772795371346482000,6.26548193359375,-0.0005565254832617939,-0.000024907756596803665,0.0008824927499517798
1772795371356526000,6.275526123046875,0.0004204291617497802,-0.0016984082758426666,0.0007585465209558606
1772795371366570000,6.285570068359375,0.001711529679596424,0.0013786079362034798,0.000668265507556498
1772795371376614100,6.2956142578125,0.0007812047842890024,-0.001767792273312807,-0.000229676254093647
1772795371386659000,6.3056591796875,-0.0022747726179659367,0.002234939020127058,-0.0007881411584094167
1772795371396703000,6.315702880859375,-0.00028625759296119213,-0.001511711161583662,-0.0018764508422464132
1772795371406747100,6.3257470703125,-0.0009155625593848526,-0.0009377999231219292,0.00014462205581367016
1772795371416791000,6.335791015625,-0.0014183048624545336,0.0007612188346683979,0.0007607885636389256
1772795371426835000,6.3458349609375,-0.0002957825199700892,-0.000607113353908062,0.0018468254711478949
1772795371436878800,6.35587890625,0.0012280824594199657,-0.0000446811318397522,-0.0005645694327540696
1772795371446923000,6.365923095703125,-0.0012132374104112387,0.001519127283245325,-0.0007089127320796251
1772795371456967200,6.37596728515625,0.002685798332095146,0.0010048672556877136,-0.0022502844221889973
1772795371467011800,6.38601171875,0.0028474521823227406,-0.0019360613077878952,-0.0002672945847734809
1772795371477056000,6.396055908203125,-0.0011881089303642511,0.001012137159705162,0.000006187474355101585
1772795371487100200,6.40610009765625,0.0025946449022740126,0.0007980191148817539,-0.0010609411401674151
1772795371497144000,6.41614404296875,0.0002508045290596783,-0.000913974829018116,0.0009651227155700326
1772795371507188000,6.42618798828125,-0.0008730494300834835,0.0007105530239641666,0.0008846953278407454
1772795371517231900,6.43623193359375,-0.0003260153462179005,0.001078431960195303,-0.0018284559482708573
1772795371527276000,6.446276123046875,0.0018513851100578904,-0.00004116073250770569,0.0012648056726902723
1772795371537320200,6.4563203125,0.0027366369031369686,-0.00035599619150161743,0.0008457845542579889
1772795371547364900,6.46636474609375,0.00032647617626935244,-0.002346176654100418,-0.000647982582449913
1772795371557409000,6.476408935546875,0.0008760167984291911,0.0017895856872200966,0.0006383565487340093
1772795371567453400,6.486453369140625,0.0023090639151632786,-0.0009108595550060272,-0.001927332952618599
1772795371577497600,6.49649755859375,-0.0021998160518705845,0.002094519790261984,-0.003130268771201372
1772795371587541200,6.506541259765625,-0.0006876731058582664,0.00006226170808076859,-0.0015150614781305194
1772795371597585400,6.51658544921875,-0.0012698366772383451,0.0013278685510158539,-0.001743945642374456
1772795371607629300,6.52662939453125,0.0024985363706946373,0.0004546181298792362,-0.0000368594191968441
1772795371617673500,6.536673583984375,0.0005239859456196427,0.0021296096965670586,0.001041790354065597
1772795371627717400,6.54671728515625,0.0003322382690384984,0.001735195517539978,-0.00075477798236534
1772795371637762300,6.55676220703125,-0.000035682867746800184,-0.0003136591985821724,0.002128805033862591
1772795371647806500,6.566806396484375,0.0017662118189036846,0.0015936968848109245,0.0005306418752297759
1772795371657850600,6.5768505859375,0.0006935304263606668,-0.0006006984040141106,-0.001131672877818346
1772795371667894300,6.586894287109375,0.000023479165975004435,-0.0016776807606220245,-0.0008658894221298397
1772795371677938400,6.5969384765625,-0.00012567697558552027,-0.0001339470036327839,-0.002701396821066737
1772795371687982300,6.606982421875,0.0007081588264554739,-0.0010119914077222347,-0.0005154742393642664
1772795371698026500,6.617026611328125,0.0005283477948978543,-0.0013604918494820595,0.0007913890294730663
1772795371708070400,6.6270703125,0.0018149210372939706,-0.00036660023033618927,-0.000040050013922154903
1772795371718115300,6.637115234375,0.0017294760327786207,0.0027402210980653763,-0.0012094335397705436
1772795371728159500,6.647159423828125,-0.0004764203622471541,-0.0007860702462494373,0.0006089728558436036
1772795371738203600,6.65720361328125,0.0007659057155251503,-0.00028298934921622276,-0.001246373518370092
1772795371748247300,6.667247314453125,-0.00003251002635806799,-0.0027093952521681786,-0.0010186731815338135
1772795371758291500,6.67729150390625,-0.0001800553291104734,-0.0008068820461630821,-0.0015207037795335054
1772795371768335400,6.68733544921875,0.0002963842125609517,-0.00013443408533930779,0.0003253994509577751
1772795371778379500,6.697379638671875,0.0016544838435947895,-0.00010841013863682747,-0.0028092560824006796
1772795371788423400,6.70742333984375,-0.001149025745689869,0.0016724453307688236,-0.00017645512707531452
1772795371798468400,6.71746826171875,-0.001933984225615859,0.0025649676099419594,-0.00039205834036692977
1772795371808512500,6.727512451171875,0.0008833738975226879,-0.0013224491849541664,-0.0007803472690284252
1772795371818556400,6.737556396484375,0.001511795329861343,0.0021564969792962074,-0.0016084326198324561
1772795371828600300,6.747600341796875,-0.0009545581415295601,-0.001624125987291336,-0.0007706020842306316
1772795371838644500,6.75764453125,0.0017969829495996237,-0.00003476208075881004,-0.0006378988036885858
1772795371848688400,6.7676884765625,-0.0003806837776210159,0.0001031896099448204,-0.001664813724346459
1772795371858732500,6.777732666015625,0.00026633712695911527,-0.0008111922070384026,-0.0013238353421911597
1772795371868776400,6.7877763671875,-0.0030136120039969683,-0.000906533095985651,0.0010035011218860745
1772795371878821400,6.7978212890625,0.0020912440959364176,0.002020111307501793,-0.0012609146069735289
1772795371888865500,6.807865478515625,0.0007418204331770539,-0.00041401758790016174,-0.00032507983269169927
1772795371898909400,6.817909423828125,-0.0009347519953735173,-0.001080825924873352,-0.002237774431705475
1772795371908953300,6.827953369140625,-0.00008120882557705045,-0.00039266515523195267,0.0014762697974219918
1772795371918997500,6.83799755859375,0.0018510350491851568,-0.00009141722694039345,0.00016610720194876194
1772795371929041400,6.84804150390625,-0.00025392737006768584,-0.0004810374230146408,0.001436168677173555
1772795371939085600,6.85808544921875,-0.0003602340002544224,0.0010151430033147335,0.0003672555321827531
1772795371949129200,6.868129150390625,0.0002954363008029759,-0.0010373555123806,-0.0005688455421477556
1772795371959174400,6.87817431640625,0.0004556428175419569,0.0009759468957781792,0.0009990052785724401
1772795371969218600,6.888218505859375,-0.00016833579866215587,0.002369578927755356,0.0003491939278319478
1772795371979262500,6.898262451171875,-0.0007921784417703748,0.0009210878051817417,-0.001342570991255343
1772795371989306400,6.908306396484375,0.0013351546367630363,-0.0004373905248939991,-0.00019661278929561377
1772795371999350300,6.918350341796875,0.0003066560020670295,0.0011078743264079094,-0.0008644738118164241
1772795372009394400,6.92839453125,-0.0009474265389144421,-0.00034354813396930695,0.000733955530449748
1772795372019438600,6.9384384765625,0.0008559355046600103,0.0006525353528559208,0.0007547017885372043
1772795372029482200,6.948482177734375,0.0009925556369125843,0.0009473473764955997,-0.0009406666504219174
1772795372039526400,6.9585263671875,-0.0017506409203633666,-0.00026832660660147667,0.0007246530149132013
1772795372049571600,6.968571533203125,0.00008454336784780025,-0.00028643617406487465,0.00020773347932845354
1772795372059615500,6.978615478515625,-0.0003686412237584591,0.0022263266146183014,-0.0010634977370500565
1772795372069659400,6.988659423828125,-0.00008022086694836617,-0.001338314265012741,0.0021075280383229256
1772795372079703300,6.998703369140625,-0.0003746948787011206,0.000541140791028738,0.0001282816519960761
1772795372089747500,7.00874755859375,-0.000003183959051966667,0.0010684472508728504,-0.0019295428646728396
1772795372099791600,7.01879150390625,0.0008047771407291293,-0.0007353466935455799,-0.002176304580643773
1772795372109835300,7.028835205078125,0.000034857308492064476,0.002293999306857586,-0.002626112662255764
1772795372119879400,7.03887939453125,-0.0010377843864262104,-0.0008784211240708828,0.0004219580441713333
1772795372129924400,7.04892431640625,-0.001916893757879734,0.0028167148120701313,0.001504799467511475
1772795372139968500,7.058968505859375,-0.000954008661210537,-0.0008555497042834759,-0.00035197834949940443
1772795372150012400,7.069012451171875,0.0006265773554332554,-0.0004036114551126957,-0.0025719893164932728
1772795372160056300,7.079056396484375,-0.0006058742292225361,0.0009369351901113987,-0.0002807194250635803
1772795372170100500,7.0891005859375,0.0008902896661311388,-0.00046681705862283707,0.0013249004259705544
1772795372180144400,7.099144287109375,0.0020189755596220493,0.00033028237521648407,0.0016963654197752476
1772795372190188300,7.109188232421875,0.0012479904107749462,0.001105261966586113,-0.00018249463755637407
1772795372200232400,7.119232421875,0.002550734207034111,0.0010026642121374607,0.0008420434314757586
1772795372210277400,7.12927734375,-0.0011883438564836979,-0.001993125770241022,0.0007320550503209233
1772795372220321500,7.139321533203125,0.002013895194977522,0.002859518863260746,-0.00007760769221931696
1772795372230365400,7.149365478515625,-0.0011510056210681796,-0.001896353904157877,-0.003609225619584322
1772795372240409300,7.159409423828125,-0.0009371266351081431,-0.0005558966659009457,-0.00030188431264832616
1772795372250453500,7.16945361328125,0.0001744767650961876,0.00014078617095947266,-0.000985251390375197
1772795372260497400,7.179497314453125,-0.0025098854675889015,-0.003056115936487913,0.002873512916266918
1772795372270541300,7.189541259765625,0.00037032313412055373,0.00039960164576768875,0.00045083521399647
1772795372280585500,7.19958544921875,-0.00003771489718928933,-0.0007692924700677395,-0.002087069908156991
1772795372290630400,7.20963037109375,0.000710100750438869,-0.002214057371020317,0.0013686479069292545
1772795372300674600,7.219674560546875,0.0009049623040482402,0.0017017624340951443,0.0012305262498557568
1772795372310718200,7.22971826171875,0.001501776627264917,-0.0008080005645751953,-0.0014515431830659509
1772795372320762400,7.239762451171875,0.0006704203551635146,0.0018394789658486843,-0.0009752535261213779
1772795372330806500,7.249806640625,0.0007899962365627289,-0.00033312803134322166,0.0005323619116097689
1772795372340850400,7.259850341796875,-0.0006444759201258421,-0.0005569555796682835,-0.001407242612913251
1772795372350894300,7.269894287109375,0.00017204927280545235,-0.00040515558794140816,0.00004125072155147791
1772795372360938200,7.279938232421875,-0.0000906866043806076,-0.000414134468883276,-0.0014477426884695888
1772795372370982400,7.289982421875,-0.001198561629280448,0.001424511894583702,-0.00035291712265461683
1772795372381027600,7.300027587890625,-0.0011394096072763205,-0.0008163261227309704,-0.0014529709005728364
1772795372391071200,7.3100712890625,0.000272065750323236,-0.00047490885481238365,0.0010876846499741077
1772795372401115400,7.320115478515625,0.003381887450814247,-0.0005465825088322163,-0.001599652343429625
1772795372411159600,7.33015966796875,0.0008521507843397558,-0.0003393888473510742,-0.0005266647203825414
1772795372421203500,7.340203369140625,-0.0004562553367577493,0.0005946587771177292,0.0011525186710059643
1772795372431247400,7.350247314453125,0.001862292643636465,-0.00044450629502534866,0.00041056203190237284
1772795372441291300,7.360291259765625,-0.0003677954082377255,-0.001486512366682291,-0.0012420716229826212
1772795372451335400,7.37033544921875,0.0027073565870523453,0.0008858316577970982,0.0032094023190438747
1772795372461380600,7.380380615234375,0.0014809196582064033,-0.00017717108130455017,0.00010307785123586655
1772795372471424300,7.39042431640625,0.0004129920853301883,-0.0006216526962816715,-0.0006103829946368933
1772795372481468400,7.400468505859375,0.0016141874948516488,0.00025726156309247017,0.0011970325140282512
1772795372491512300,7.41051220703125,-0.000042564934119582176,0.00039867544546723366,-0.00003201630897819996
1772795372501556500,7.420556396484375,0.0007179920794442296,-0.001787140965461731,-0.0010292897932231426
1772795372511600400,7.430600341796875,-0.000854338170029223,0.00020383810624480247,0.0003462329041212797
1772795372521644300,7.440644287109375,-0.00011801550863310695,-0.0003356095403432846,-0.000797528657130897
1772795372531688400,7.4506884765625,0.0015648358967155218,0.001115547027438879,0.0005521613638848066
1772795372541732400,7.460732421875,0.00022327166516333818,0.0009926334023475647,-0.0024032683577388525
1772795372551777300,7.47077734375,0.00020036858040839434,-0.0016859741881489754,-0.000016809790395200253
1772795372561821400,7.480821533203125,0.00007809745147824287,-0.0005320422351360321,-0.0012674226891249418
1772795372571865900,7.490865966796875,0.0009777132654562593,0.0019907704554498196,-0.00005115708336234093
1772795372581910000,7.500909912109375,-0.0005795154720544815,0.002376569900661707,-0.0006300777313299477
1772795372591953700,7.51095361328125,-0.0005033491179347038,0.0013986569829285145,0.0006093574920669198
1772795372601997800,7.520997802734375,0.0012808858882635832,0.00041865790262818336,-0.00013595388736575842
1772795372612041700,7.531041748046875,0.000518422806635499,0.0008588782511651516,0.0016600817907601595
1772795372622086000,7.5410859375,0.0012266074772924185,0.0022677858360111713,0.00020888610742986202
1772795372632130800,7.551130859375,-0.0013888829853385687,-0.00020202947780489922,-0.00018472899682819843
1772795372642174700,7.5611748046875,-0.0001718528801575303,-0.0019240542314946651,-0.0005229325033724308
1772795372652219000,7.571218994140625,0.0026798599865287542,-0.0010550650767982006,0.0017218460561707616
1772795372662263000,7.581262939453125,-0.001985495910048485,0.00150332972407341,-0.0013726855395361781
1772795372672306700,7.591306640625,-0.0014672446995973587,0.000006632879376411438,-0.002800406189635396
1772795372682350800,7.601350830078125,0.0024697603657841682,-0.0007277051918208599,-0.00008782860822975636
1772795372692394800,7.611394775390625,-0.00048501690616831183,-0.0005996068939566612,-0.000055338023230433464
1772795372702439000,7.62143896484375,0.00018467800691723824,0.0018443656153976917,0.0005324779776856303
1772795372712483800,7.63148388671875,0.0025799251161515713,0.0007258374243974686,0.0009916070848703384
1772795372722527700,7.64152783203125,0.00018149195238947868,0.00042164139449596405,-0.001012652413919568
1772795372732572000,7.651572021484375,-0.0008076060330495238,0.0006360257975757122,0.0005796515615656972
1772795372742616000,7.661615966796875,0.0000033742981031537056,-0.00012042047455906868,-0.0005226588691584766
1772795372752659700,7.67165966796875,0.0013144485419616103,-0.001397406216710806,-0.001252631307579577
1772795372762704000,7.681703857421875,0.0015547310467809439,0.00010759057477116585,-0.000974660215433687
1772795372772747800,7.691747802734375,-0.0004394439747557044,-0.0002146521583199501,-0.0015565608628094196
1772795372782792000,7.7017919921875,-0.00003541575279086828,-0.0001229727640748024,0.000935156480409205
1772795372792835800,7.7118359375,-0.0018373106140643358,-0.00009980332106351852,0.0029311957769095898
1772795372802880800,7.721880859375,0.00017970160115510225,-0.0015841792337596416,-0.0005225158529356122
1772795372812925000,7.731925048828125,-0.001988910371437669,-0.0008038729429244995,-0.00019894179422408342
1772795372822968800,7.74196875,0.00016301160212606192,-0.0007841829210519791,0.0020181057043373585
1772795372833012700,7.7520126953125,-0.0007922642980702221,0.0029732706025242805,-0.0021454801317304373
1772795372843057000,7.762056884765625,-0.00013628654414787889,0.000011473428457975388,0.0034990340936928988
1772795372853100800,7.772100830078125,0.0014203310711309314,-0.0012673763558268547,0.002130701905116439
1772795372863145000,7.78214501953125,-0.002500666305422783,0.000029898248612880707,0.00020820111967623234
1772795372873188600,7.792188720703125,0.0021273752208799124,-0.002706499770283699,0.001867350423708558
1772795372883232800,7.802232666015625,0.0007912415312603116,-0.0018195128068327904,-0.0003976747393608093
1772795372893278000,7.81227783203125,-0.00018667115364223719,-0.0013105827383697033,0.001243098871782422
1772795372903321900,7.82232177734375,0.000021592481061816216,0.0011058906093239784,0.0011755583109334111
1772795372913365800,7.83236572265625,0.0008825925178825855,-0.000042996834963560104,0.0006485186750069261
1772795372923410000,7.842409912109375,0.0014392562443390489,-0.001759256236255169,-0.0006701966631226242
1772795372933453800,7.852453857421875,0.0011106220772489905,-0.0006407285109162331,-0.001978873973712325
1772795372943498000,7.862498046875,-0.0003849645727314055,-0.001284229103475809,0.0011901208199560642
1772795372953541600,7.872541748046875,0.002106422558426857,-0.0008762325160205364,-0.002769999671727419
1772795372963585800,7.882585693359375,-0.0010736194672062993,-0.0013993047177791595,-0.00034056074218824506
1772795372973631000,7.892630859375,-0.002598279155790806,-0.0002086055465042591,-0.0008084781002253294
1772795372983675000,7.9026748046875,-0.0007764286128804088,-0.0002582636661827564,-0.0007986254058778286
1772795372993718800,7.91271875,-0.000514906132593751,-0.0007639979012310505,0.0006820921553298831
1772795373003762700,7.9227626953125,0.0016154326731339097,-0.0006924234330654144,-0.0012142837513238192
1772795373013806800,7.932806884765625,-0.0000849956413730979,-0.000001066364347934723,0.0011210422962903976
1772795373023851000,7.94285107421875,0.0020545353181660175,0.0008311453275382519,-0.0021861388813704252
1772795373033894700,7.952894775390625,-0.0013489843113347888,0.001163508277386427,-0.0008335193851962686
1772795373043938800,7.962938720703125,0.0014848171267658472,-0.0006282581016421318,-0.0015827467432245612
1772795373053982700,7.972982666015625,-0.001503249630331993,0.0019440888427197933,0.0021818976383656263
1772795373064028000,7.98302783203125,-0.000494781939778477,-0.0005035838112235069,0.0011603080201894045
1772795373074071000,7.993071044921875,-0.0011065100552514195,0.00012838421389460564,-0.003860283177345991
1772795373084114700,8.00311474609375,0.00008162809535861015,-0.001270524226129055,-0.0005573456292040646
1772795373094158800,8.013158935546874,0.0007865667575970292,-0.0004127202555537224,0.002840315457433462
1772795373104202800,8.02320263671875,-0.00044977170182392,-0.00015472853556275368,0.0012970907846465707
1772795373114247000,8.033246826171874,0.0009422625880688429,0.0010913647711277008,0.0014078783569857478
1772795373124290800,8.043290771484376,0.0011804297100752592,-0.002100905869156122,0.0002361710648983717
1772795373134334700,8.053334716796876,-0.003785300301387906,-0.011525300331413746,0.032042037695646286
1772795373144380000,8.0633798828125,0.000377039541490376,0.006868390366435051,0.0023690760135650635
1772795373154423800,8.073423828125,0.0008510822663083673,0.02209021896123886,-0.0077645182609558105
1772795373164467700,8.0834677734375,0.0012272895546630025,-0.004757968243211508,-0.0015512823592871428
1772795373174511900,8.093511962890625,0.002239823341369629,0.007828131318092346,-0.006665883585810661
1772795373184555800,8.1035556640625,-0.0015892877709120512,-0.01433293055742979,-0.007335565984249115
1772795373194600000,8.113599853515625,-0.00011229864321649075,0.003411178942769766,0.0030251960270106792
1772795373204643800,8.123643798828125,-0.002980096498504281,-0.0020307921804487705,0.0024055400863289833
1772795373214687700,8.133687744140625,0.0013145169941708446,0.00209444435313344,-0.0007212772616185248
