time,seconds_elapsed,z,y,x
1772794583447574800,0.07757470703125,0.2834977926731109,0.008621259481459856,0.21323754914673043
1772794583457620000,0.087619873046875,0.3913403277546167,0.002056786399334669,0.22996044641602784
1772794583467664100,0.0976640625,0.45318157463967795,0.04392418966144323,0.2613873754128814
1772794583477708800,0.107708740234375,0.43967093568146226,0.0757901311300695,0.2965148028954863
1772794583487753000,0.1177529296875,0.364241308426857,0.11767346261367201,0.29791378297321497
1772794583497798000,0.1277978515625,0.30431670881807804,0.1270719900779426,0.3443177336864173
1772794583507841800,0.137841796875,0.3429863389521837,0.1686560463540256,0.37910409264639017
1772794583517887000,0.147886962890625,0.3638602001547813,0.20781229096129536,0.33008517366182055
1772794583527931000,0.157930908203125,0.42415830925107,0.2074992794893682,0.4103726892763748
1772794583537974800,0.167974853515625,0.4100415210932493,0.14831059293970464,0.413329675918445
1772794583548020000,0.17802001953125,0.3751338738411665,0.08864566718041897,0.32225141129624096
1772794583558063900,0.18806396484375,0.2867775449961424,0.04939180741757154,0.2567429836731404
1772794583568108800,0.19810888671875,0.23699790730476378,0.04235445612668991,0.1975776779990643
1772794583578153000,0.208153076171875,0.27321020741462704,0.029515725080668926,0.18145334941111504
1772794583588198000,0.218197998046875,0.3771633338421583,0.015428163017332554,0.2092853043896146
1772794583598241800,0.22824169921875,0.46390872035920616,0.013862228874862194,0.2552295469028875
1772794583608287000,0.238286865234375,0.49382571971714495,-0.007413637257367372,0.30680326493680476
1772794583618331000,0.248330810546875,0.4873088851690292,-0.026521073309332132,0.3852299916481599
1772794583628376000,0.2583759765625,0.40668110474944114,-0.03704699736833572,0.3486773536680266
1772794583638420000,0.268419921875,0.27766894038915635,-0.01949263597726822,0.2692034011923708
1772794583648465000,0.27846484375,0.16638883207440375,0.010758563771098852,0.272313605634775
1772794583658509000,0.288509033203125,0.027680618607997892,0.0863255536697805,0.36267888141572474
1772794583668553700,0.2985537109375,-0.10243161594867706,0.1350610891357064,0.3822906137280166
1772794583678598000,0.308597900390625,-0.1378963125616312,0.13706643760874868,0.2706801044151187
1772794583688641800,0.318641845703125,-0.1207072773516178,0.08456789634749293,0.16762144260928033
1772794583698686700,0.328686767578125,-0.13543664444983006,0.010729191546142101,0.11709322417345829
1772794583708731000,0.33873095703125,-0.19968612152040002,0.004361848471313714,0.1418051839679014
1772794583718776000,0.348776123046875,-0.2358814704954624,-0.030044717390835283,0.19683058595880865
1772794583728820000,0.358820068359375,-0.19040975913107394,-0.021604951956123112,0.2303376091653481
1772794583738865000,0.368864990234375,-0.1006914942830801,0.010071166028827428,0.25167295039985327
1772794583748909000,0.378908935546875,-0.04259703271090984,0.1082822416730225,0.3636151393525302
1772794583758953700,0.38895361328125,-0.008795885396003723,0.1707278841920197,0.44830969428699463
1772794583768998000,0.398997802734375,-0.11977554945945738,-0.12119915252178906,0.22514066157676277
1772794583779043000,0.40904296875,-0.14659575184583662,-0.2262871281981468,0.053554297391884026
1772794583789086700,0.419086669921875,-0.057606385794281956,-0.14731953607574105,-0.032844504177197816
1772794583799131000,0.429130859375,0.08775836295187472,-0.049780806735157966,-0.0024897161901928483
1772794583809175600,0.439175537109375,0.1449544143795967,-0.09458908575475215,0.02377581145549193
1772794583819219500,0.449219482421875,0.17688976782262325,-0.17813801431804893,0.01653806048799306
1772794583829264400,0.459264404296875,0.1944587422609329,-0.19025866022258997,0.05841262414325028
1772794583839308500,0.46930859375,0.18723697431385516,-0.13746201279759407,0.004112622950598597
1772794583849353500,0.479353515625,0.17058745280802248,-0.1398528534568846,0.019629432365763932
1772794583859397400,0.4893974609375,0.1562777724266052,-0.1602804321967065,0.06584913081955164
1772794583869442600,0.499442626953125,0.14662088628709316,-0.1406128780439496,0.07863284374270588
1772794583879486500,0.509486572265625,0.1743430059492588,-0.15679726625606416,0.11356036473903805
1772794583889531400,0.519531494140625,0.2164537164479494,-0.2353866727158427,0.1240435456348583
1772794583899575600,0.529575439453125,0.2342430556386709,-0.3404208723783493,0.07110555351041258
1772794583909620500,0.539620361328125,0.24326339744031428,-0.43724546210020776,-0.045130003520939495
1772794583919664400,0.549664306640625,0.2622200268447399,-0.5221456591419875,-0.11410605245567858
1772794583929708500,0.55970849609375,0.3333838133484125,-0.6111687813326716,-0.16506264323825015
1772794583939753500,0.56975341796875,0.3297662073731422,-0.6570256926223635,-0.21842686141813172
1772794583949797400,0.57979736328125,0.2768178765177727,-0.677824296631664,-0.26312736921431495
1772794583959842600,0.589842529296875,0.1769441283583641,-0.6837585089862346,-0.32923418285567313
1772794583969886500,0.599886474609375,0.11906652440726756,-0.7007037985682487,-0.35346740095615387
1772794583979931400,0.609931396484375,0.05164776965081692,-0.709213268238306,-0.3663741922697052
1772794583989975600,0.6199755859375,0.002153378641605377,-0.652585225956887,-0.31363552210964263
1772794584000020500,0.6300205078125,-0.074579732427001,-0.526900452453643,-0.1925363776299171
1772794584010064400,0.640064453125,-0.16099135694503783,-0.42924569551795716,-0.06452977358298376
1772794584020109300,0.650109375,-0.17676468013823032,-0.34436727191656824,0.018566333178896458
1772794584030153500,0.660153564453125,-0.10918693542778492,-0.37682752601653335,0.0538025730645284
1772794584040197400,0.670197265625,-0.0502934324324131,-0.46387817909047,-0.05883737062765285
1772794584050242300,0.6802421875,0.03761573716700077,-0.5416828649133444,-0.11978015256933867
1772794584060286500,0.690286376953125,0.13901684102416037,-0.674564125791937,-0.10264808997726067
1772794584070331400,0.700331298828125,0.26764731259047986,-0.7696274049296975,-0.05814564377013594
1772794584080375600,0.71037548828125,0.3475356728196144,-0.80736574556306,-0.014198493358213453
1772794584090420500,0.72042041015625,0.4185720335513353,-0.8490065004624426,0.03604034107644111
1772794584100464400,0.73046435546875,0.42268297600150107,-0.9002567952282726,0.08200650316057727
1772794584110509300,0.74050927734375,0.39498949791193005,-0.9455269926711917,0.11272864488894119
1772794584120553500,0.750553466796875,0.406520945751667,-0.9979903164885937,0.0620788002342917
1772794584130598700,0.7605986328125,0.34218963561654087,-1.0225015112802385,0.11867405449096113
1772794584140642300,0.770642333984375,0.38930794514417644,-1.0228564621977507,0.023326935176830738
1772794584150687500,0.7806875,0.38072131858468056,-1.0220945379145443,0.0011860679794102906
1772794584160731600,0.790731689453125,0.3820177881360054,-1.0124008268959819,-0.05137357408562675
1772794584170775300,0.800775390625,0.40407589068710803,-1.0051324433282016,-0.05705790333235636
1772794584180820500,0.810820556640625,0.4341133015543222,-1.0077619150489567,-0.07497276859888806
1772794584190864600,0.82086474609375,0.45219957786500453,-0.9652437927931546,-0.13061804692065343
1772794584200909300,0.830909423828125,0.4700350942850113,-0.952446416670829,-0.15020515624834224
1772794584210953500,0.840953369140625,0.41510815683305263,-0.9481086797274648,-0.1459095962125808
1772794584220998400,0.850998291015625,0.3819575823813677,-0.9435193061105906,-0.12776603675670922
1772794584231042300,0.861042236328125,0.3489285884827375,-0.9461569611378013,-0.1557986288738437
1772794584241087500,0.87108740234375,0.32493747204244133,-0.9337403279613703,-0.1621104606354609
1772794584251131600,0.881131591796875,0.334416079005599,-0.971257280929014,-0.1755946865107864
1772794584261176300,0.89117626953125,0.25795360157191755,-0.9945914678305386,-0.22797405837178228
1772794584271220500,0.901220458984375,0.2019189951390028,-0.987801880755648,-0.2417636238692328
1772794584281264600,0.9112646484375,0.1483744519561529,-1.0648636392567306,-0.31596951801516115
1772794584291309300,0.921309326171875,0.11000117442011832,-1.130316208506748,-0.4000442970834672
1772794584301353500,0.931353515625,0.0897159267604351,-1.1353772912885993,-0.3943576297491789
1772794584311398400,0.9413984375,0.06303425606191158,-1.0918981419809162,-0.4012053036868572
1772794584321442300,0.9514423828125,0.01285889705121517,-1.0789531740814446,-0.382340663414821
1772794584331487500,0.961487548828125,-0.15138298612236975,-1.0095750288855283,-0.36648382665663953
1772794584341531400,0.971531494140625,-0.25525544852912424,-1.0301919196523726,-0.35262890430539845
1772794584351576300,0.981576416015625,-0.33231296924650666,-1.015532841311395,-0.3830062877167016
1772794584361620500,0.991620361328125,-0.40400925519168374,-0.9866638166364282,-0.49045226122867314
1772794584371665400,1.00166552734375,-0.5152355874925851,-1.0298751087881624,-0.5989950900666415
1772794584381709300,1.011709228515625,-0.622954788455367,-1.1044656548701226,-0.7384439658325165
1772794584391754500,1.02175439453125,-0.6705027215719223,-1.1447667586635797,-0.6926394423171878
1772794584401798400,1.03179833984375,-0.7100497190624475,-1.180941284046322,-0.5903079622747376
1772794584411842300,1.04184228515625,-0.7486340090006589,-1.2033172203749418,-0.5309403389615938
1772794584421887500,1.051887451171875,-0.7766852144867181,-1.2210526374213397,-0.49011320200003683
1772794584431931400,1.061931396484375,-0.6992904246389865,-1.1512451608974485,-0.3793755665315315
1772794584441976600,1.0719765625,-0.6644727937579155,-1.0329770203262567,-0.2660220860088244
1772794584452020500,1.0820205078125,-0.6961930431455373,-0.9654772362228482,-0.14840444523561744
1772794584462065400,1.0920654296875,-0.7724439236551522,-0.8350590775221586,-0.01396050161756575
1772794584472109600,1.102109619140625,-0.8727034562617539,-0.6351261416338384,0.08005545129119418
1772794584482154500,1.112154541015625,-0.9994874231785535,-0.45253472810350354,0.18859549451703206
1772794584492198400,1.122198486328125,-1.1569523595631122,-0.28309951407052575,0.22013382973279802
1772794584502243600,1.13224365234375,-1.3199176469296217,-0.09222849410325289,0.23405827365629372
1772794584512287500,1.14228759765625,-1.4231383674293756,0.059652723864838476,0.2593315205953084
1772794584522331400,1.152331298828125,-1.3924322635203599,0.16927534729614852,0.2978185607041232
1772794584532376600,1.16237646484375,-1.184398000371456,0.28113478986881674,0.3106079179167747
1772794584542420500,1.17242041015625,-1.149796642589569,0.25231267307549715,0.42662163062468167
1772794584552465400,1.18246533203125,-1.0126952797979116,0.2578527715459466,0.42444355593323707
1772794584562509600,1.192509521484375,-0.7445733354330062,0.2878821452371776,0.29442053402997553
1772794584572554200,1.20255419921875,-0.5351724601060152,0.20214695867598056,0.2013824771095067
1772794584582598400,1.212598388671875,-0.356632002466917,0.14933482142090795,0.1287515041301027
1772794584592643600,1.2226435546875,-0.17191899367272853,0.17988661155104635,0.11433503890596329
1772794584602687200,1.232687255859375,-0.00034311434924602505,0.2244344860687852,0.09417436747401953
1772794584612732400,1.242732421875,0.13371931913793086,0.32080256419479847,0.11484054074268787
1772794584622776600,1.252776611328125,0.30602234369218345,0.44959129506275053,0.14963880933616308
1772794584632821500,1.262821533203125,0.4823123920559883,0.5672852159425615,0.14748612481430173
1772794584642865400,1.272865478515625,0.6374930168956517,0.6678622900657355,0.1563343249194324
1772794584652909600,1.28290966796875,0.8120236543714999,0.7276514267265797,0.13884521078430115
1772794584662954200,1.292954345703125,0.9759703539907931,0.7980978587411344,0.1542098801113665
1772794584672998400,1.302998291015625,1.0788245792657136,0.8356804242908954,0.13592687565218656
1772794584683043600,1.313043701171875,1.0557511621922253,0.8772953140966594,0.09944145768936723
1772794584693087200,1.323087158203125,0.9102695090681314,0.9548029166691004,0.03537435144837946
1772794584703132400,1.33313232421875,0.7914356243729591,0.983989263664931,0.009330321066267787
1772794584713176600,1.343176513671875,0.7242588616788387,0.9766863933056592,0.02832315429523587
1772794584723221500,1.353221435546875,0.6449672982990742,0.995653105712682,0.0938063013466075
1772794584733265400,1.363265380859375,0.6136152977019548,1.0029919241681695,0.13265479517895729
1772794584743309600,1.3733095703125,0.6260393104672431,1.0361651488430796,0.21125304253231733
1772794584753354500,1.3833544921875,0.6563116991341114,1.0568171839885414,0.3054650751356035
1772794584763398400,1.3933984375,0.6648211688041686,1.0934785430401563,0.3935277182636782
1772794584773443600,1.403443603515625,0.5423077188134193,1.062232633166015,0.3177043424511328
1772794584783487500,1.413487548828125,0.3413531847923994,0.9771040341958404,0.24178061153665184
1772794584793532400,1.423532470703125,0.17736323055326939,0.8856390718109906,0.13664762767478822
1772794584803576600,1.43357666015625,0.051390580019354815,0.7935653298780322,0.08715919148232787
1772794584813622000,1.4436220703125,-0.06584522182941437,0.735249772901088,0.031062917990051207
1772794584823666000,1.453666015625,-0.1374596747100353,0.7124066574521363,-0.009704451608285307
1772794584833710800,1.4637109375,-0.1568494348347187,0.662087506056577,-0.0009294994024559855
1772794584843755000,1.473755126953125,-0.12695815443992614,0.6111062374904751,0.06285685366839171
1772794584853799000,1.483798828125,-0.06054945350885391,0.5630442173719405,0.12230799054652451
1772794584863843800,1.49384375,-0.015435469540953635,0.5228688588500022,0.20751787459198384
1772794584873888000,1.503887939453125,-0.03637070554196834,0.48517947192490096,0.290198422822915
1772794584883933000,1.513932861328125,0.005102876096963882,0.43388752997443075,0.3243250026999041
1772794584893976800,1.523976806640625,0.08311433653831482,0.40302170545905824,0.2981983720682561
1772794584904022000,1.53402197265625,0.08327332649230956,0.24995471177250145,0.24535134616289286
1772794584914066000,1.54406591796875,0.1072398930132389,0.1294483638204634,0.17068013606015592
1772794584924110800,1.55411083984375,0.13898819945156574,0.06205372059196233,0.11599197580013423
1772794584934155000,1.564155029296875,0.11624445272386073,-0.04788330255076289,0.07570351229254156
1772794584944200000,1.574199951171875,0.11487900958955287,-0.05265928478091955,0.1227331206234172
1772794584954243800,1.584243896484375,0.14231471352577207,-0.017905220655351876,0.19008801636341957
1772794584964288000,1.5942880859375,0.19252105219662188,-0.021268413478136062,0.2348195038197562
1772794584974333000,1.6043330078125,0.18497078294754027,-0.03278744022771716,0.26495705059319735
1772794584984376800,1.614376953125,0.1823562165349722,-0.06836115017309785,0.21760595522299409
1772794584994422000,1.624422119140625,0.13609481609761714,-0.10143383708298205,0.1841190249564126
1772794585004466200,1.634466064453125,0.11063771875798702,-0.12908902898877858,0.18233687251368536
1772794585014510800,1.6445107421875,0.1374386319220066,-0.1467880595475435,0.18684846818661316
1772794585024555000,1.654554931640625,0.20746961500346658,-0.190749074088037,0.21227345335492864
1772794585034600000,1.664599853515625,0.24528642770051956,-0.23082930167242882,0.22057384685156867
1772794585044643800,1.674643798828125,0.30320787079334255,-0.25727877105027436,0.2216823378164321
1772794585054689000,1.68468896484375,0.3681435765624046,-0.28441607656180856,0.19701715803947298
1772794585064733000,1.69473291015625,0.4728174184799194,-0.35426381203085183,0.20867621431425212
1772794585074776800,1.70477685546875,0.521157378757,-0.4605573641046881,0.192071591396071
1772794585084822000,1.714822021484375,0.5470119509816169,-0.5418849633567034,0.15236117437160573
1772794585094866000,1.724865966796875,0.5419903234273195,-0.5872042606383562,0.15946834862884132
1772794585104910800,1.734910888671875,0.46180268799066543,-0.6274642287038267,0.21723259186595678
1772794585114955000,1.744955078125,0.3143681472331285,-0.6480328233495354,0.2592726117486134
1772794585125000000,1.755,0.17506196787357328,-0.6602988690741359,0.27928631245791913
1772794585135043800,1.7650439453125,0.10544073463678359,-0.6884793269630521,0.2793600170149468
1772794585145089000,1.775089111328125,0.20274784717857836,-0.7803354806225746,0.27472267607050016
1772794585155133000,1.7851328125,0.22279636347293852,-0.8775883056938648,0.2262357633370906
1772794585165176800,1.7951767578125,0.25772972968816754,-1.0039766243565826,0.1946885872277431
1772794585175222000,1.805221923828125,0.266018834605813,-1.1656330941468476,0.12670821653315797
1772794585185266000,1.815265869140625,0.21317980934381484,-1.2706366064101458,0.06507913282774389
1772794585195310800,1.825310791015625,0.09524608835875988,-1.3120444293364881,0.10217533963266759
1772794585205355000,1.83535498046875,-0.04453121564388275,-1.2672779436320065,0.1461886871485971
1772794585215400000,1.84539990234375,-0.22139994067847726,-1.1626330355480312,0.257501492156554
1772794585225443800,1.85544384765625,-0.3732908763229847,-1.0547077906191349,0.32317221593558787
1772794585235488800,1.86548876953125,-0.5620522837251425,-0.9315562619205564,0.4201723083548248
1772794585245533000,1.875532958984375,-0.7011988886088133,-0.9005424803018569,0.4951362177938223
1772794585255578000,1.885578125,-0.7956856830328702,-0.9395148197095841,0.5507872317366301
1772794585265622000,1.8956220703125,-0.8081482742428779,-1.039196333232522,0.6464731728173791
1772794585275666000,1.905666015625,-0.8291653433084487,-1.124181870470196,0.7446816181130707
1772794585285711000,1.915711181640625,-0.7695213142067193,-1.2288839155688882,0.8177669472638517
1772794585295755000,1.925755126953125,-0.6837292828917503,-1.324939274483919,0.8175611224934458
1772794585305800000,1.935800048828125,-0.6484416964113712,-1.3344015148341655,0.8303824640132487
1772794585315844000,1.945843994140625,-0.698629330381751,-1.3469696122452617,0.9456005693640559
1772794585325888800,1.955888671875,-0.770752901828289,-1.3307966222099958,1.0546241309236735
1772794585335933000,1.965932861328125,-0.8646323780089616,-1.2746123781733214,1.0816167672675103
1772794585345978000,1.97597802734375,-1.0282312871038912,-1.229527474169433,0.9508834051378071
1772794585356021800,1.986021728515625,-1.2057605218738316,-1.0633012122455985,0.7080185785610228
1772794585366066000,1.99606591796875,-1.39619950709939,-0.8321743889313191,0.3948614510854706
1772794585376111000,2.006111083984375,-1.6513772142171859,-0.5179854707226157,0.21742908255243673
1772794585386155000,2.016155029296875,-2.0071774420350788,-0.08832184205353259,0.29774284685309976
1772794585396200000,2.026199951171875,-2.3564731102645395,0.35425979344286024,0.39517570466641333
1772794585406244000,2.036244140625,-2.498059509515762,0.7464819455333054,0.45029863961450756
1772794585416288800,2.046288818359375,-2.4708278037190436,1.0532220090407878,0.579721722863242
1772794585426333000,2.0563330078125,-2.2093314149737355,1.287551500853896,0.5483932858048006
1772794585436378000,2.066378173828125,-1.7038444835573434,1.3375178932890295,0.5630819190338253
1772794585446421800,2.076421875,-1.0552741923302411,1.234452217220515,0.6205031575195491
1772794585456466000,2.0864658203125,-0.3923345994889736,1.0391969177544116,0.6025311187056824
1772794585466511000,2.096510986328125,0.14473521867096423,0.8254029220350086,0.5355985034983605
1772794585476554800,2.1065546875,0.6046914020121097,0.7559356372509152,0.4050093721449375
1772794585486600000,2.116599853515625,0.9694915133655071,0.6625581923082471,0.41229328207541255
1772794585496644000,2.12664404296875,1.1488029553771018,0.5313734331492335,0.451213416371867
1772794585506688800,2.136688720703125,1.2041752985090017,0.5400615473218262,0.2999187295874581
1772794585516733000,2.14673291015625,1.214165362125635,0.5544570062905549,0.11836118914950639
1772794585526777900,2.15677783203125,1.2009832244694232,0.49243046596646306,0.07512910993807018
1772794585536821800,2.16682177734375,1.2324474532693623,0.5118080972619354,0.052032311988994474
1772794585546867000,2.176866943359375,1.2230308056265116,0.568939559020847,-0.011270312685519457
1772794585556911000,2.1869111328125,1.0884656833142041,0.5992810674011707,0.013870339116081595
1772794585566954800,2.196954833984375,0.9622235681891441,0.6887329363979399,-0.005181494291126728
1772794585577000000,2.207,0.759081753256917,0.7872761666059493,-0.048035862763971086
1772794585587044000,2.217044189453125,0.5913584577083587,0.821774794665724,-0.1389734950727783
1772794585597089000,2.227089111328125,0.48181028775274753,0.7933750680029392,-0.18281186961429194
1772794585607133000,2.2371328125,0.466299999409914,0.7819445963196456,-0.20583368436470625
1772794585617177900,2.247177734375,0.43730128394067286,0.7597237044222652,-0.17722234251154587
1772794585627222000,2.257221923828125,0.4042933328300714,0.7200599486842751,-0.1408775203295052
1772794585637267000,2.267266845703125,0.3601297814548015,0.7041593458496034,-0.14023598928926512
1772794585647310800,2.277310791015625,0.3260106542319059,0.736402157806605,-0.19479206586852668
1772794585657354800,2.287354736328125,0.23394494947493075,0.7917522891066968,-0.20569559106826782
1772794585667400000,2.29739990234375,0.1156102464735508,0.8042546278052032,-0.21209986862000077
1772794585677444000,2.307444091796875,0.012447393640875815,0.8118909679025411,-0.25177964391103014
1772794585687489000,2.317489013671875,-0.046073184388875955,0.7936049312360585,-0.31633462500050663
1772794585697533000,2.327532958984375,-0.1289993048787117,0.7354216223366559,-0.3821564294217154
1772794585707577900,2.337577880859375,-0.2067149972438812,0.7152182077415287,-0.3347313189672306
1772794585717622000,2.3476220703125,-0.2780290058732033,0.7069171201251446,-0.2702319953214377
1772794585727667000,2.3576669921875,-0.2705044555872679,0.7525466523997485,-0.24379030739124863
1772794585737710800,2.3677109375,-0.173410109013319,0.7879233784683048,-0.1676834019295871
1772794585747755000,2.377755126953125,0.007618658310174942,0.7277619013637304,-0.09081762265833095
1772794585757800000,2.387800048828125,0.21109540428519247,0.5821880399115383,-0.042106299185054374
1772794585767843800,2.39784375,0.44231180557906624,0.4549531143568456,-0.02442179947514087
1772794585777889000,2.407888916015625,0.6969307097703218,0.3257749457798898,-0.024539541820005978
1772794585787933000,2.417932861328125,0.8702923034667969,0.20305209082216022,0.02859662149135256
1772794585797977900,2.427977783203125,1.0054933855950832,0.15654343762546777,0.05541425517802127
1772794585808022000,2.43802197265625,1.1113257498979567,0.1107604683548212,0.042868506596051154
1772794585818067200,2.448067138671875,1.0974848560720682,0.029878128652274606,0.052539498892729165
1772794585828110800,2.45811083984375,1.072839075115323,-0.0947547977104783,0.041598002603044734
1772794585838155000,2.468155029296875,1.0449790082871913,-0.1928336252771318,-0.01531963145880727
1772794585848200200,2.4782001953125,1.0761387011826038,-0.2754481955997646,-0.02175927943473216
1772794585858243800,2.488243896484375,1.1635597950041294,-0.34822672382369635,0.06263293155229184
1772794585868289000,2.4982890625,1.2955045056849717,-0.4280177611581981,0.13809017289960757
1772794585878333200,2.508333251953125,1.3714765692532063,-0.4846932958431542,0.2103694828971289
1772794585888378000,2.518378173828125,1.3517372650384902,-0.5437392129212617,0.23330807634349912
1772794585898422000,2.528422119140625,1.2002753684610128,-0.623854806035012,0.14295713961515574
1772794585908467000,2.538467041015625,1.033078727135062,-0.6891654825963079,0.08599657744374126
1772794585918510800,2.5485107421875,0.8652999020069837,-0.7031016534902155,0.015487172328727318
1772794585928555000,2.558554931640625,0.6745435213953256,-0.6819345084294677,-0.01233967721639201
1772794585938600000,2.568599853515625,0.5182943905413151,-0.6314877851314842,-0.04234501244490966
1772794585948643800,2.578643798828125,0.2906628619968891,-0.6047495619401335,-0.0688698166478658
1772794585958689000,2.58868896484375,0.13040975619852543,-0.5302155683510005,-0.04996516402584966
1772794585968733200,2.598733154296875,-0.027196049961447713,-0.4972523331649601,-0.03922778917325195
1772794585978778000,2.608778076171875,-0.10482990926206111,-0.5049497557997703,-0.014826036972296423
1772794585988822000,2.618822021484375,-0.09741700265705584,-0.5833629289098083,0.04322258529730606
1772794585998867000,2.628866943359375,-0.15719196466207502,-0.601095131085813,0.045725613060221076
1772794586008911000,2.6389111328125,-0.12943711177408695,-0.650268035055697,0.02603053614629898
1772794586018955000,2.648955078125,-0.1162631574243307,-0.7225920975103974,-0.00884980754032731
1772794586029000000,2.659,-0.11028934371173381,-0.800458596523106,-0.08781818511402234
1772794586039044000,2.669044189453125,-0.10086451276242732,-0.8727489028386771,-0.19172237609960138
1772794586049089000,2.679089111328125,-0.10050970797538757,-0.8999367694936692,-0.13963283576434476
1772794586059133000,2.6891328125,-0.13582418246269226,-0.8208787226088344,-0.10988669946128501
1772794586069178000,2.69917822265625,-0.2761316478192806,-0.9403921140007674,-0.1974459413781762
1772794586079222000,2.709221923828125,-0.36775720759332176,-0.9481208085566759,-0.29028021935485304
1772794586089267000,2.719266845703125,-0.425264224666357,-0.873107945409417,-0.46982481253519653
1772794586099311000,2.72931103515625,-0.4235007221251726,-0.8820352021001279,-0.5522272379444911
1772794586109355000,2.73935498046875,-0.3376198434829712,-0.8058091637708247,-0.5591635034810751
1772794586119400000,2.74939990234375,-0.24420915385782718,-0.6518288546316325,-0.37411724414452907
1772794586129444000,2.759444091796875,-0.17217150712907314,-0.38840661239027974,0.002944136293651536
1772794586139489000,2.769489013671875,-0.18996844510436056,-0.182148565133661,0.24662459923541172
1772794586149533000,2.779532958984375,-0.42598961633145804,-0.035471418614685536,0.2117746917862445
1772794586159578000,2.789578125,-0.7405769592732191,0.010875760409981011,0.007092606875766069
1772794586169622000,2.7996220703125,-0.9588871172428131,-0.024658494307845828,-0.22231062578260896
1772794586179667000,2.8096669921875,-1.1056617327868938,-0.032144904540479184,-0.5475475922282785
1772794586189711000,2.819711181640625,-1.2252291924536227,-0.018959698144346473,-0.8108160321474075
1772794586199756000,2.829756103515625,-1.245055590429902,0.11809694872274994,-0.7553025269791483
1772794586209800000,2.839800048828125,-1.266473056989908,0.2685883928328752,-0.749869907471165
1772794586219844000,2.849843994140625,-1.3163544014900923,0.3291312704704702,-0.7946548056151718
1772794586229889000,2.859888916015625,-1.164284017625451,0.369452028812468,-0.7281841453637927
1772794586239933000,2.869932861328125,-0.8843483013480902,0.3813789057105779,-0.6598945991221815
1772794586249978000,2.87997802734375,-0.6205868902802467,0.3334593628026545,-0.551320900221914
1772794586260022000,2.89002197265625,-0.2950911998331547,0.32123481813222166,-0.3862414337130263
1772794586270067000,2.90006689453125,0.02935819643139839,0.2536247785873711,-0.2105433598930016
1772794586280111000,2.910111083984375,0.2833779656857252,0.21536402151510117,-0.047551604644674804
1772794586290156000,2.920156005859375,0.4642430668801069,0.203370509121567,0.07868943276815116
1772794586300200000,2.930199951171875,0.5987801321417093,0.14039324394389985,0.1851717306134291
1772794586310244000,2.940244140625,0.6528782175540924,0.11027253870740532,0.24806900762375442
1772794586320289000,2.9502890625,0.6484434499770403,0.09173822636827826,0.27380952501464634
1772794586330333000,2.9603330078125,0.5874234563469887,0.06385638609975576,0.29398933953847733
1772794586340378000,2.970378173828125,0.5223398665398359,0.067688511608541,0.2765953198082745
1772794586350422000,2.980422119140625,0.42314708638191223,0.08493000765815377,0.32573136236649003
1772794586360467000,2.990467041015625,0.34526772788763044,0.1290276541903615,0.39418559765052047
1772794586370511000,3.000510986328125,0.2580278358519077,0.18747049080878495,0.4969631774926558
1772794586380555000,3.010554931640625,0.1700432629287243,0.30541999388486146,0.6328728097490965
1772794586390600000,3.020599853515625,0.06870119578242302,0.4157737811349332,0.7538370575364679
1772794586400644000,3.03064404296875,0.003542202651500702,0.5411901129603386,0.7926006495643406
1772794586410689000,3.04068896484375,-0.040892566880583764,0.6575906330287457,0.7905619102783501
1772794586420733000,3.05073291015625,-0.032170915764570235,0.7127334051884711,0.7323509827196598
1772794586430778000,3.060778076171875,0.0254015677601099,0.723884329278022,0.7120898465879261
1772794586440822000,3.070822021484375,0.0684276395380497,0.6834120336361229,0.7439644097544252
1772794586450867000,3.080866943359375,0.1549070685952902,0.6297995397835969,0.7367218912802637
1772794586460911000,3.0909111328125,0.31168285367190834,0.6018383506685495,0.7262734894368797
1772794586470956000,3.1009560546875,0.4869382982909679,0.47968335872665047,0.735637603174895
1772794586481000000,3.111,0.5823229183375835,0.3570389758326113,0.7775649199306964
1772794586491044000,3.121044189453125,0.7602841147840023,0.30365824490934606,0.82802764451541
1772794586501089000,3.131089111328125,0.83656714399755,0.24056889765933154,0.868504397136718
1772794586511133000,3.1411328125,0.7521727045208215,0.09472045704945921,0.8428822454284877
1772794586521178000,3.15117822265625,0.6748685155659914,0.061722735071927305,0.768923713639751
1772794586531222000,3.161221923828125,0.5279442624181508,0.05193082437589764,0.6856449072547256
1772794586541267000,3.171266845703125,0.37811376643478867,0.011343816313147544,0.5624567728728056
1772794586551311000,3.18131103515625,0.29403555330038067,-0.03597542261406779,0.45420353809855873
1772794586561355000,3.19135498046875,0.21128245128989218,-0.07970131322443484,0.28390695799589155
1772794586571400000,3.20139990234375,0.05330021303296089,-0.10250848057717084,0.23275383999422192
1772794586581444000,3.211444091796875,-0.07166121463179588,-0.015430939496308565,0.2391563274476677
1772794586591489000,3.221489013671875,-0.11318506515324116,0.16511881213858723,0.2448674716360867
1772794586601533000,3.231532958984375,-0.1590536668807268,0.35474341224133965,0.3296700535222888
1772794586611578000,3.241578125,-0.2415975100547075,0.5770721582025289,0.48724721810966726
1772794586621622000,3.2516220703125,-0.3598924655675888,0.7670696832709014,0.5598682907495647
1772794586631667200,3.261667236328125,-0.44025078139603135,0.9240730665583163,0.5928345216102898
1772794586641711000,3.271711181640625,-0.4371458011180162,1.010771618258953,0.5819050582516938
1772794586651755000,3.281755126953125,-0.3922223712861538,1.0659802221965045,0.5660193607252091
1772794586661800200,3.29180029296875,-0.34541093575060366,1.070244966968894,0.5295077123425901
1772794586671844000,3.301843994140625,-0.2589098793834448,1.0162322217524051,0.47295434273257847
1772794586681889000,3.311888916015625,-0.14142974738478659,0.962912865627557,0.3801841795006767
1772794586691933000,3.321932861328125,0.0066834232866764065,0.8249529132451862,0.21520181669071314
1772794586701977900,3.331977783203125,0.10523206032216548,0.5911262563876807,0.028427345322072504
1772794586712022000,3.34202197265625,0.15621172145307063,0.3606900456860661,-0.18345906321033834
1772794586722067200,3.352067138671875,0.19306348851025104,0.17799444112889468,-0.3929826881341636
1772794586732111000,3.362111083984375,0.24687165106534956,0.0670936875205487,-0.4876985420737415
1772794586742155000,3.372155029296875,0.3432663249373436,-0.037113121407106514,-0.5209942971497774
1772794586752200200,3.3822001953125,0.4630319375246763,-0.11378748802579938,-0.5097152166359126
1772794586762244000,3.392244140625,0.5643021084785461,-0.22892785196527837,-0.43089645839966834
1772794586772289000,3.4022890625,0.6686795977979898,-0.3370548300113529,-0.40124150751139964
1772794586782333200,3.412333251953125,0.7756167084723711,-0.4440135679956525,-0.31531470736823974
1772794586792377900,3.4223779296875,0.9380851522326469,-0.5192229766283184,-0.18360289212781936
1772794586802422000,3.432422119140625,0.9866519070029258,-0.6717547674596309,-0.10568473599310964
1772794586812467200,3.44246728515625,0.9847826059997081,-0.7213031536784023,-0.003186776809953153
1772794586822511000,3.452510986328125,0.9275848010063171,-0.7075004729710519,0.044139439847320314
1772794586832555000,3.462554931640625,0.7741717703610658,-0.6950512526992708,0.14453512952160089
1772794586842600200,3.47260009765625,0.6109025316119193,-0.6427089249130338,0.2031678992215544
1772794586852644000,3.48264404296875,0.4268114541083574,-0.5906066894929856,0.2573277978237718
1772794586862689300,3.492689208984375,0.30644670658409595,-0.5081557122342288,0.3545294772297144
1772794586872733200,3.502733154296875,0.17073299875855444,-0.4212007746197283,0.43701055736579
1772794586882778000,3.512778076171875,-0.02606909175813198,-0.32289807516932484,0.4891190763961524
1772794586892822300,3.522822265625,-0.22103110736608503,-0.22931239430345593,0.5186375779557972
1772794586902867200,3.5328671875,-0.36087913851737974,-0.19472214243747293,0.4879614673262462
1772794586912911000,3.5429111328125,-0.35129356404840945,-0.2881561398729682,0.4281669603705406
1772794586922955000,3.552955078125,-0.32179099071025846,-0.4281360537756234,0.29153884111382067
1772794586933000200,3.563000244140625,-0.34315000508129595,-0.5480307726353406,0.191054048383981
1772794586943044000,3.573044189453125,-0.5249462496459484,-0.6004895664080977,0.1881148531269282
1772794586953089300,3.58308935546875,-0.8009756061345338,-0.5716421690430492,0.22784831310026346
1772794586963133200,3.59313330078125,-0.9837170225948094,-0.42601986533924935,0.26391170625872906
1772794586973178000,3.60317822265625,-1.1937111876398325,-0.5150777665823698,0.22290168701093643
1772794586983222300,3.61322216796875,-1.383884799927473,-0.6165344000190496,0.2074250817419961
1772794586993266200,3.62326611328125,-1.3594143755376338,-0.6653029609717428,0.18082805711962283
1772794587003311000,3.63331103515625,-1.244339551115036,-0.7996812554750591,0.22664047168046234
1772794587013355300,3.643355224609375,-1.1388310119390488,-0.9321578810755163,0.2511061833625659
1772794587023400200,3.653400146484375,-1.083199141088128,-1.022399439145252,0.254810700436309
1772794587033444000,3.663444091796875,-1.0219202042609452,-1.083205059372261,0.2454860053932294
1772794587043489300,3.6734892578125,-0.8305307864427566,-1.0870715255420655,0.14085234935563057
1772794587053533200,3.683533203125,-0.6396078170925379,-0.9754867351923138,-0.0173322430729866
1772794587063578000,3.693578125,-0.671825494608283,-0.8415308308195322,-0.05621785404533147
1772794587073622300,3.703622314453125,-0.7280389647394419,-0.7643976145174354,0.06878668210878967
1772794587083666200,3.713666259765625,-0.8495031979382037,-0.3953819312956184,0.09193473532106727
1772794587093711000,3.723711181640625,-0.965213397654891,-0.017472016869857908,0.1946928798103705
1772794587103755300,3.73375537109375,-1.0462520969629288,0.32205417169108985,0.3705226902512833
1772794587113800000,3.743800048828125,-1.0578291375100612,0.6383937651276588,0.4982249410567805
1772794587123844000,3.753843994140625,-1.0949760881215334,0.8852046989817172,0.5904066003436222
1772794587133889300,3.76388916015625,-1.0387766465157269,1.0232460460372268,0.656351081296429
1772794587143933200,3.77393310546875,-0.8099111922621727,1.1343303395189344,0.8002579593844711
1772794587153978000,3.78397802734375,-0.4921463883280754,1.1463470135923475,0.9192845901727675
1772794587164022300,3.794022216796875,-0.15696107851564883,1.1379053484614938,0.9203197784394025
1772794587174066200,3.804066162109375,0.050503275790810584,1.158583614026755,0.8276510662879795
1772794587184111000,3.814111083984375,0.21049042412936686,1.0876445031244306,0.8107023426398634
1772794587194155300,3.8241552734375,0.33146599702835083,1.030537225958705,0.7945114516217261
1772794587204200200,3.8342001953125,0.3852273978322744,1.0754998918224126,0.662822980724275
1772794587214244000,3.844244140625,0.49252749660015105,1.1194159712426364,0.568841468941234
1772794587224289300,3.854289306640625,0.6647603785276412,1.0995794902637601,0.5175395901186391
1772794587234333000,3.8643330078125,0.783214908516407,1.1436074325606227,0.37281986127775163
1772794587244378000,3.874378173828125,0.8528267894029616,1.221755232732743,0.19657927807886152
1772794587254422300,3.88442236328125,0.8569728031665086,1.2749300658203662,0.08962419335637241
1772794587264466000,3.8944658203125,0.8779220676928758,1.304349052528292,-0.04299352121520787
1772794587274511000,3.904510986328125,0.8950064734846352,1.331763275285065,-0.1592021719733253
1772794587284555300,3.91455517578125,0.8669342252105474,1.361395027960837,-0.240718425665237
1772794587294600200,3.92460009765625,0.8021247761696576,1.3746176437579094,-0.2780884809754789
1772794587304644000,3.93464404296875,0.7236462827384471,1.3422367385044693,-0.18520579727981237
1772794587314689300,3.944689208984375,0.6692857469975948,1.3220323009960353,-0.12097502490971236
1772794587324733200,3.954733154296875,0.6211281575500964,1.2743300541006028,-0.04483407104797661
1772794587334777000,3.964777099609375,0.574170007020235,1.134204375051707,0.009535853575728833
1772794587344822300,3.974822265625,0.5877385136455298,0.997833372361213,0.05009549870751798
1772794587354865200,3.984865234375,0.6463356640428304,0.8490349959045648,0.08725037689711898
1772794587364910000,3.99491015625,0.688806440025568,0.7548026146329939,0.17000782628916203
1772794587374954200,4.004954345703125,0.5757903016984462,0.6933264016680419,0.21003193977214396
1772794587384999000,4.0149990234375,0.29087562796473504,0.5904755373939872,0.1785832738675177
1772794587395043000,4.02504296875,0.0758341164022684,0.5246163601044566,0.09788841956108808
1772794587405087200,4.035087158203125,-0.05042962603271007,0.5160051836255938,0.09486596646737307
1772794587415132200,4.045132080078125,-0.15260697495937348,0.503116622088477,0.11414291386734693
1772794587425176000,4.055176025390625,-0.24407529834508895,0.42191126097664233,0.09105630851872265
1772794587435221200,4.06522119140625,-0.37138065878748894,0.2613402483355254,-0.0490286914599128
1772794587445265200,4.07526513671875,-0.3493973750382662,0.14729403630830346,-0.22261466849679126
1772794587455310000,4.08531005859375,-0.14857728105187415,-0.0010882336281239986,-0.25709188844235614
1772794587465354200,4.095354248046875,0.014187515306472777,-0.22517478304207322,-0.26633772782925513
1772794587475398100,4.105398193359375,0.1365402217775583,-0.40669191840440033,-0.25124838657854126
1772794587485443000,4.115443115234375,0.2521276718974113,-0.5117104090411215,-0.20986673927307128
1772794587495487200,4.1254873046875,0.3636246378332376,-0.6470845096487552,-0.14297959804213606
1772794587505532200,4.1355322265625,0.427082672265172,-0.7956503925237804,-0.09931507309703155
1772794587515576000,4.145576171875,0.47150808944702144,-0.8827784947481006,-0.08923270982075482
1772794587525621200,4.155621337890625,0.4176496580094099,-0.939789618062973,-0.04532584575344808
1772794587535665200,4.1656650390625,0.35948388476669785,-0.9550106411356478,0.0029416817583725785
1772794587545710000,4.1757099609375,0.36434243071377276,-0.9815446469917893,0.09891968057127669
1772794587555754200,4.185754150390625,0.42298575834035873,-1.0094004029709844,0.16614709574040024
1772794587565798100,4.195798095703125,0.4439046277284622,-1.040162255655229,0.1281861070659943
1772794587575843000,4.205843017578125,0.43592648845613,-1.0936730426989496,0.08298511153492144
1772794587585887200,4.21588720703125,0.39306875898241994,-1.1490810416661201,0.03102758638176601
1772794587595932200,4.22593212890625,0.3679705580830574,-1.1690744667723774,-0.009080584088899194
1772794587605976000,4.23597607421875,0.25412849032580853,-1.201255538604781,-0.05098368885205127
1772794587616021200,4.246021240234375,0.1512467925220728,-1.1504813369181006,-0.1600507150940597
1772794587626065200,4.256065185546875,0.0071282444447278975,-1.082544768832624,-0.18598459963258354
1772794587636110000,4.266110107421875,-0.026143326038122177,-1.08011812620759,-0.22717556493785232
1772794587646154200,4.276154296875,-0.23796236842274665,-0.9539840015016495,-0.23534058681810274
1772794587656198100,4.2861982421875,-0.3005921353369951,-0.8511776339564472,-0.22478951005153355
1772794587666243000,4.2962431640625,-0.23702011913657187,-0.7808007600467651,-0.19705997426789254
1772794587676287200,4.306287353515625,-0.16405834330022334,-0.6962789678633212,-0.17085949294874445
1772794587686332200,4.316332275390625,-0.07551730553805827,-0.6122268390182405,-0.12816016890713944
1772794587696376000,4.3263759765625,-0.002734393399953842,-0.5273639052469283,-0.03752166567537933
1772794587706421200,4.336421142578125,0.05840133556425571,-0.4912777157347649,-0.012651830171793698
1772794587716465200,4.346465087890625,0.09521335513293742,-0.46510362923219795,0.07352434162255377
1772794587726509000,4.356509033203125,0.09752513920664786,-0.4105183448247611,0.162926672389172
1772794587736554200,4.36655419921875,0.13552841438651084,-0.4148922490600496,0.2200847846929915
1772794587746598100,4.37659814453125,0.24073650931119916,-0.49572884992472827,0.2871819610785693
1772794587756643000,4.38664306640625,0.37908173468410966,-0.5998275953680277,0.32134616955220696
1772794587766687200,4.396687255859375,0.47921325699687,-0.7200337182644754,0.3308521029137075
1772794587776732200,4.406732177734375,0.47458092102110383,-0.7934229257326573,0.33698384713437407
1772794587786776000,4.416776123046875,0.3422206152766943,-0.8013136789824813,0.3174112412560731
1772794587796821000,4.426821044921875,0.19507015215754508,-0.7337914638515561,0.2917499448475428
1772794587806865200,4.436865234375,0.028507132560014723,-0.6627811143439263,0.23944203078756107
1772794587816908800,4.44690869140625,-0.1851438014268875,-0.6576251928854734,0.14571809222847223
1772794587826954000,4.4569541015625,-0.32615853826999663,-0.5908341415733098,0.094498923253268
1772794587836998000,4.466997802734375,-0.36283085710704327,-0.5292717846948654,0.10080185932237655
1772794587847042800,4.477042724609375,-0.36628128982186314,-0.4785191372528672,0.15510724907619877
1772794587857087000,4.4870869140625,-0.36385727754533287,-0.41401948481351136,0.1210465375096537
1772794587867132000,4.4971318359375,-0.46889410755634303,-0.37293022631704803,0.06631594461370259
1772794587877175800,4.50717578125,-0.6553606820195913,-0.3184196145810187,0.04709887417480349
1772794587887220000,4.517219970703125,-0.9003589404284954,-0.25006693997532126,0.008969506663549691
1772794587897265000,4.527264892578125,-1.0748480768501758,-0.14607874223440884,-0.032248839838989074
1772794587907308800,4.537308837890625,-1.227759587714076,-0.11292444145567715,-0.12316652533831074
1772794587917354000,4.54735400390625,-1.2807009043067692,-0.0037380174845457075,-0.1461520631989464
1772794587927398000,4.55739794921875,-1.344441847333312,0.1030577119577676,-0.31077669861242174
1772794587937443000,4.567443115234375,-1.48116911611557,0.23406711454987525,-0.44744200807437295
1772794587947487000,4.577487060546875,-1.6205793403714894,0.421623822337389,-0.5809504609405994
1772794587957532000,4.587531982421875,-1.588082261392474,0.5461794456802308,-0.6003544687863439
1772794587967575800,4.597575927734375,-1.5911574310541152,0.6702125064536929,-0.6032406917471438
1772794587977620000,4.607619873046875,-1.5008201575249434,0.8270217554084957,-0.5582067872781307
1772794587987665000,4.617664794921875,-1.223403146070242,0.8356723871149122,-0.47829416939057406
1772794587997708800,4.627708740234375,-0.8945499618887901,0.8147055869318545,-0.3914293577449396
1772794588007753700,4.637753662109375,-0.47973698861002917,0.8505955232195556,-0.22479363823737947
1772794588017798000,4.6477978515625,-0.17521686617434024,0.7860211981087922,-0.08305055058710277
1772794588027843000,4.657843017578125,0.08055062353014945,0.7115864271104335,0.001696848779451102
1772794588037887000,4.667886962890625,0.2696358560591936,0.6686762367971241,-0.007172266249544918
1772794588047931000,4.677930908203125,0.3660346215844154,0.6052635028116404,-0.011120382820814846
1772794588057976000,4.68797607421875,0.4303898971170187,0.571609508882463,-0.03671557345688343
1772794588068020000,4.69802001953125,0.4309340869963169,0.5589893890231847,-0.09906581104369834
1772794588078065000,4.70806494140625,0.408115521466732,0.5973939384803175,-0.13299376307604835
1772794588088109000,4.718109130859375,0.3635948272168636,0.6383984413027763,-0.1379670762429014
1772794588098153700,4.72815380859375,0.359731722047925,0.700916710666567,-0.13443804360022768
1772794588108198000,4.738197998046875,0.4542448199570179,0.7584450627885758,-0.07968993331389501
1772794588118243000,4.7482431640625,0.5645259803622961,0.8260852052107452,0.008203463327651843
1772794588128286700,4.75828662109375,0.6133382343262433,0.9246161604590714,0.14779844216648488
1772794588138331000,4.768330810546875,0.6591413696020841,1.0341798202447592,0.26267253811890257
1772794588148376000,4.7783759765625,0.7382055539667606,1.102785592828691,0.4111896682150662
1772794588158420000,4.788419921875,0.8422972120821476,1.1511955496020614,0.5803801137067377
1772794588168465000,4.79846484375,0.9534931492447852,1.1760073347754776,0.6502911236703396
1772794588178509000,4.808509033203125,0.9839075767308473,1.1998663492687045,0.7078716443710029
1772794588188553700,4.8185537109375,0.9083803343206643,1.1983853169307113,0.7855934011507779
1772794588198598000,4.828597900390625,0.7583242128878831,1.2350278251513838,0.8262308972917497
1772794588208642000,4.83864208984375,0.6111708271592855,1.2981414300598204,0.8743877560868859
1772794588218686700,4.848686767578125,0.6272855111360549,1.283012396119535,0.8528198482055217
1772794588228731000,4.85873095703125,0.7318933020800351,1.2364246863372623,0.8117408919073641
1772794588238776000,4.868776123046875,0.7998989168137312,1.1245553799577057,0.741323101465404
1772794588248819700,4.87881982421875,0.8533405841439962,0.9714293495602905,0.6826190566275269
1772794588258865000,4.888864990234375,0.9264923295944929,0.788317492352426,0.5719364758145064
1772794588268909000,4.898908935546875,0.9288035291463136,0.6566697187915443,0.45430166471078987
1772794588278953700,4.90895361328125,0.8984943156003952,0.5569612441964448,0.4249225716218352
1772794588288998000,4.918997802734375,0.6980985845059156,0.4503796689614653,0.3318958398129791
1772794588299042000,4.9290419921875,0.3615852409601211,0.3784865452699363,0.23296474279854446
1772794588309086700,4.939086669921875,0.026454291683435438,0.40662952069267627,0.12011347617693245
1772794588319131000,4.949130859375,-0.2587473822981119,0.43279447404071686,0.029999818803183732
1772794588329176000,4.959176025390625,-0.4219973318248987,0.4682033488132059,-0.026643494112603364
1772794588339219700,4.9692197265625,-0.4980921449899673,0.45756884981319307,-0.047681642498821016
1772794588349265000,4.979264892578125,-0.5440735594421625,0.36684418440163136,-0.04037869907431304
1772794588359309000,4.98930908203125,-0.5449217007040977,0.26353549335747956,-0.04753277208004147
1772794588369354000,4.99935400390625,-0.4258259502023458,0.1811439181357622,-0.019465528774634002
1772794588379398000,5.00939794921875,-0.2575888599127531,0.07356427177414297,0.07013108245506883
1772794588389442000,5.019442138671875,-0.05759469535648822,-0.010583353334665297,0.14045728562343865
1772794588399487000,5.029487060546875,0.08840133703052996,-0.08765987101346254,0.22442559037627652
1772794588409531000,5.03953076171875,0.20974340515434742,-0.16059665853902697,0.2538090856457129
1772794588419575800,5.049575927734375,0.2897001544445753,-0.22834201490133998,0.26065281406063584
1772794588429619700,5.05961962890625,0.27613807756006714,-0.2995356120213866,0.2237841872001998
1772794588439665000,5.069664794921875,0.21257424466609953,-0.34174510671943426,0.13028863230319693
1772794588449709000,5.079708984375,0.06326923386156559,-0.3568823239661753,0.06880770663050935
1772794588459752700,5.089752685546875,-0.08638006033599376,-0.3543123273476958,-0.024558267070073633
1772794588469798000,5.0997978515625,-0.19122166003584862,-0.29907910042554137,-0.03734148680288345
1772794588479842000,5.109842041015625,-0.24410920061469077,-0.23023937295526264,-0.13731343463975934
1772794588489887000,5.119886962890625,-0.32091596144139767,-0.26756226465553046,-0.1831462344015017
1772794588499931000,5.129930908203125,-0.27340777581334114,-0.20741203959733245,-0.2040354758363217
1772794588509975800,5.139975830078125,-0.24835867475271223,-0.22608736784234643,-0.23775921053346244
1772794588520020000,5.15002001953125,-0.12062018359005451,-0.22549305521100757,-0.2269069405969232
1772794588530065000,5.16006494140625,-0.024077625679969787,-0.2470252341918647,-0.23927367021702228
1772794588540108800,5.17010888671875,-0.028871874219179153,-0.23461656512618065,-0.176558709237352
1772794588550153000,5.180153076171875,-0.059386254948377605,-0.18154943019673228,-0.12269012173190712
1772794588560198000,5.190197998046875,-0.08566226745545863,-0.1933272540129721,-0.04420154529809951
1772794588570242000,5.200241943359375,-0.051231590065360065,-0.20500556297749278,0.007798161329235881
1772794588580287000,5.210286865234375,-0.0051221653193235395,-0.18434534452557563,0.08134195657093077
1772794588590331000,5.220330810546875,0.014416063365340232,-0.1666024748250842,0.15799345377068966
1772794588600375800,5.230375732421875,0.003361585387587547,-0.12729308548271656,0.2545998706972226
1772794588610420000,5.240419921875,-0.0036351416319608688,-0.124462099840492,0.29433639941047873
1772794588620463900,5.2504638671875,0.034137247401475904,-0.12499036149829626,0.3225033402306959
1772794588630508800,5.2605087890625,-0.020405074647068977,-0.1702607050716877,0.34560627565961327
1772794588640553000,5.270552978515625,-0.08094342224001884,-0.2326801902361214,0.2773917308829725
1772794588650598000,5.280597900390625,-0.1287806936919689,-0.310011559458822,0.2297697461495176
1772794588660641800,5.290641845703125,-0.14148410792052746,-0.41529534996822476,0.14677841493636368
1772794588670687000,5.30068701171875,-0.1617027200847864,-0.4944225165665149,0.004969897367060184
1772794588680731000,5.31073095703125,-0.15380232222378254,-0.5476173695288599,-0.06305084187053143
1772794588690775000,5.320775146484375,-0.12278233006000518,-0.5817682070642709,-0.11315930965747684
1772794588700820000,5.330820068359375,-0.03453004611134529,-0.5910664890244602,-0.11186207292117178
1772794588710864000,5.34086376953125,0.08168810312747955,-0.6521015340931713,-0.09960695044938474
1772794588720908800,5.35090869140625,0.22572189553081987,-0.7180071078076958,-0.08903298599757253
1772794588730953000,5.360952880859375,0.37870004189014433,-0.772297208660841,-0.030897900154069066
1772794588740998000,5.370997802734375,0.45545244218111036,-0.8026493845656514,0.01977612909376621
1772794588751041800,5.381041748046875,0.5183610260367393,-0.7984750214904546,0.06495335102360696
1772794588761087000,5.3910869140625,0.6388736575990915,-0.7628633176222444,0.1709075516078621
1772794588771131000,5.401130859375,0.6548369504064321,-0.7250750003673135,0.3217034585572779
1772794588781174800,5.4111748046875,0.406864060100913,-0.6454368155069649,0.5399376286812126
1772794588791220000,5.421219970703125,0.11312018322348594,-0.5543984079711138,0.7030560607828199
1772794588801263900,5.431263916015625,-0.18859364961981773,-0.47126828934177756,0.7750013530530035
1772794588811308800,5.441308837890625,-0.4096235879421234,-0.37735257280394435,0.9043107467941939
1772794588821353000,5.45135302734375,-0.5575234081238508,-0.41788346676528454,1.1152901965495199
1772794588831398000,5.46139794921875,-0.5714139863103628,-0.39067309601753947,1.2025374681741
1772794588841441800,5.47144189453125,-0.5785375545799731,-0.36799072408825156,1.2764984841808675
1772794588851486000,5.48148583984375,-0.6772697314888239,-0.399196155821532,1.350183898116648
1772794588861531100,5.49153125,-0.8332616727113723,-0.3951240840770304,1.3074135546654462
1772794588871574800,5.50157470703125,-1.0438766000032424,-0.3634633097916841,1.1026666426241398
1772794588881620000,5.511619873046875,-1.2181786894202231,-0.3187175746142864,0.8511949504174292
1772794588891664000,5.521663818359375,-1.4143798914343118,-0.23033450389280913,0.647846214736253
1772794588901708800,5.531708740234375,-1.4975024112790822,-0.09915011005997657,0.5258143377173692
1772794588911753000,5.5417529296875,-1.561448521488905,0.03617123744711279,0.3723600252136588
1772794588921798000,5.5517978515625,-1.5804297008126973,0.18673852327242493,0.29393063162118194
1772794588931841800,5.561841796875,-1.4615110604435204,0.31169761284962294,0.2725150647573173
1772794588941886000,5.571885986328125,-1.1549112091243265,0.4026945193313062,0.3388414942324161
1772794588951931000,5.581930908203125,-0.8090963687479495,0.41554537920653817,0.4200681173279881
1772794588961974800,5.591974853515625,-0.41578094152808187,0.38658158892020583,0.5011288092721253
1772794588972020000,5.60202001953125,-0.09056815967559814,0.3482635487027466,0.6149811061624437
1772794588982064000,5.612064208984375,0.09542144492566584,0.31441417833194135,0.6834526579074561
1772794588992108800,5.62210888671875,0.05730418797731399,0.3163406163498759,0.7150757305309176
1772794589002153000,5.632153076171875,-0.05540975253283977,0.3607514204844832,0.6749784056812524
1772794589012197000,5.642197021484375,-0.07523498146533966,0.3800115628801286,0.6637717328164726
1772794589022241800,5.65224169921875,-0.08671031520366668,0.36296032870560885,0.6516317976895719
1772794589032286000,5.662285888671875,-0.0715600923448801,0.37928134890943765,0.5804843777988106
1772794589042331000,5.672330810546875,-0.07028408105969429,0.33483547346144915,0.46408816857933993
1772794589052374800,5.682374755859375,-0.1427057586699724,0.2995553396351635,0.33060828422047195
1772794589062420000,5.692419921875,-0.18812486306428908,0.2657864871546626,0.28367176100052893
1772794589072464000,5.7024638671875,-0.19868951169848442,0.24186054490506648,0.1815570289812982
1772794589082507800,5.7125078125,-0.14675532632172106,0.30145956582129,0.10258746409751474
1772794589092553000,5.722552978515625,-0.16817688453495502,0.3723682085201144,0.04995594410635531
1772794589102597000,5.73259716796875,-0.25385668764710423,0.48978068211004133,0.04750358251817524
1772794589112641800,5.742641845703125,-0.33223113618195055,0.6750855193175375,0.07749642359130084
1772794589122686000,5.75268603515625,-0.3589320961028337,0.8928226997047662,0.09796915664710104
1772794589132731000,5.76273095703125,-0.2982569703876972,1.1045094940118492,0.1501330591265112
1772794589142774800,5.77277490234375,-0.20391513739228248,1.3170097966589034,0.1739737342454493
1772794589152819000,5.78281884765625,-0.09902911402881145,1.4494354227244852,0.15006656976155935
1772794589162863900,5.79286376953125,0.023747370812296865,1.470811826621741,0.15639599197879434
1772794589172907800,5.80290771484375,0.20509061091244218,1.4514789112508295,0.15097992174681274
1772794589182953000,5.812952880859375,0.5214040469944476,1.3473890067011116,0.10636150274351239
1772794589192996900,5.822996826171875,0.9031693216741085,1.178456335362792,0.09103314683884382
1772794589203041800,5.833041748046875,1.1181669940948487,0.9964752357505261,0.13820263856444506
1772794589213086000,5.8430859375,1.2715800247401,0.8568627669207751,0.2508130821675062
1772794589223130000,5.853130126953125,1.3351619778126478,0.737158383001387,0.36165147459674624
1772794589233174800,5.8631748046875,1.2956050434499977,0.6042233461089432,0.43349367181863635
1772794589243219000,5.873218994140625,1.175142096248269,0.46449864907637234,0.4618810869891196
1772794589253264000,5.883263916015625,1.0203355654180049,0.3943145212598145,0.4340102430386468
1772794589263307800,5.893307861328125,0.8484615799307823,0.36760172477066516,0.35954518649987877
1772794589273353000,5.90335302734375,0.6734954736471176,0.3149355718575418,0.3005639321558177
1772794589283396900,5.91339697265625,0.5438233840733766,0.29266631077378985,0.2864356362232938
1772794589293442000,5.923442138671875,0.4347638744175434,0.31878245654404164,0.2683624385898933
1772794589303486000,5.93348583984375,0.3128606652796268,0.37939211580753324,0.1971206184139475
1772794589313529900,5.94352978515625,0.16750000818669794,0.38714725997895,0.06665851097367703
1772794589323575000,5.953574951171875,0.06289689341783523,0.3837796832419932,-0.01577704952023923
1772794589333619000,5.963618896484375,-0.08736556424200534,0.4337487060256302,-0.0055398792747408145
1772794589343663900,5.973663818359375,-0.3724526719331741,0.509949609913677,-0.02265679909661412
1772794589353707800,5.983707763671875,-0.5654904414802789,0.6303527897521853,-0.10873710930105299
1772794589363753000,5.9937529296875,-0.6411568001002073,0.6787377582147717,-0.1389082660831511
1772794589373796900,6.003796875,-0.5879343284785747,0.6666279259651899,-0.08171561218891292
1772794589383840800,6.0138408203125,-0.41441725195944307,0.6331916664399206,-0.020198701887391507
1772794589393886000,6.023885986328125,-0.12870938202142715,0.5844884258083999,0.08006123257800936
1772794589403929900,6.033929931640625,0.16808920625150203,0.5187207992598414,0.22841741822510955
1772794589413975000,6.04397509765625,0.45966216883063316,0.3683922906264663,0.35330461160987614
1772794589424019000,6.05401904296875,0.7004787576407193,0.22046689761206506,0.4058111169818788
1772794589434064000,6.06406396484375,0.8831576302587986,0.01311623281314969,0.38246724893655626
1772794589444108000,6.07410791015625,1.0111690931439399,-0.1817648265130818,0.34741770899575203
1772794589454152000,6.08415185546875,1.0372188956797121,-0.3728532155580818,0.3361475059080869
1772794589464196900,6.09419677734375,0.9348486545294523,-0.5020712777540087,0.30772607887014747
1772794589474241000,6.104240966796875,0.8534212481647729,-0.5987003449037671,0.28351335556842383
1772794589484286000,6.114285888671875,0.7878057434380054,-0.6492461446620523,0.32112120168991387
1772794589494329900,6.124329833984375,0.731240975651145,-0.7084548510864377,0.3035447015322745
1772794589504375000,6.134375,0.6974748996496201,-0.7105632215425371,0.2616408021846786
1772794589514419000,6.1444189453125,0.6216770236045122,-0.7435108207680284,0.30225743820071216
1772794589524463900,6.1544638671875,0.5062380420446395,-0.7424167419210076,0.22106815144084394
1772794589534508000,6.164508056640625,0.3090162648111582,-0.7400999894112348,0.17195285940971225
1772794589544552000,6.174552001953125,0.04914484691917896,-0.6976588779143988,0.12130853118039667
1772794589554596900,6.184596923828125,-0.15198036749362945,-0.6196729903057218,0.09587371873781085
1772794589564641000,6.19464111328125,-0.37565818997621536,-0.48530412121787664,0.11042878871504216
1772794589574685700,6.204685791015625,-0.4721247600406408,-0.4371732736468315,0.12627152388263493
1772794589584729900,6.214729736328125,-0.5190373178631067,-0.38784751720279453,0.061458896503970024
1772794589594775000,6.224775146484375,-0.6187047297954559,-0.34781609719619155,0.03149612177554518
1772794589604819000,6.23481884765625,-0.6135019004553556,-0.3884558583594858,0.0843428919525817
1772794589614862800,6.24486279296875,-0.5109884514421225,-0.3689192371100187,0.1384991372929886
1772794589624908000,6.254907958984375,-0.4814484687030315,-0.3045779901027679,0.19523860405962912
1772794589634952000,6.264951904296875,-0.3911842604100704,-0.33061770963594317,0.2148328372478485
1772794589644996900,6.274996826171875,-0.2709463541358709,-0.2990091039292514,0.37110209757443513
1772794589655041000,6.285041015625,-0.09455401444137096,-0.3307677856311202,0.48069662742242214
1772794589665085700,6.295085693359375,-0.0913590177923441,-0.3117673170849681,0.5209325570251793
1772794589675129900,6.3051298828125,-0.022783494216203688,-0.39756694718450303,0.4268642437415197
1772794589685174000,6.315174072265625,-0.031717326778173446,-0.47018137088790535,0.4404399838251993
1772794589695218700,6.32521875,-0.0037099604338407515,-0.48502895753830666,0.3398121658954769
1772794589705262800,6.335262939453125,0.04196750263571739,-0.5235365289784968,0.33424850388634947
1772794589715308000,6.34530810546875,-0.03121288438737392,-0.5335914745248854,0.25995463919602335
1772794589725352000,6.35535205078125,-0.1071001922816038,-0.6179810916960239,0.20521876733675598
1772794589735396900,6.36539697265625,-0.2838169416248798,-0.629223201200366,0.22309439657144248
1772794589745441000,6.37544091796875,-0.4371247583299875,-0.7364416130341589,0.2823202733263373
1772794589755485000,6.38548486328125,-0.5304162054896354,-0.8170446974039077,0.41324185150451953
1772794589765529900,6.39552978515625,-0.5144961673021317,-0.8054150498867034,0.4258187898091972
1772794589775574000,6.405573974609375,-0.4937357033461332,-0.8329216271020472,0.3893324950635433
1772794589785619000,6.415618896484375,-0.5315326422989368,-0.6844865309998392,0.26731998033225535
1772794589795662800,6.425662841796875,-0.712628045117855,-0.532147851587832,0.23262984828837213
1772794589805708000,6.4357080078125,-0.9676000005304812,-0.31964272663518783,0.21906857512146233
1772794589815751700,6.445751708984375,-1.2091343822211027,-0.03298851575776934,0.16304726656153798
1772794589825795600,6.455795654296875,-1.519166546076536,0.2466929334975779,0.15679522042945027
1772794589835840500,6.465840576171875,-1.6735200724422932,0.5297663632787764,0.1880317048881203
1772794589845884700,6.475884765625,-1.7180916200965641,0.7395626676641405,0.28919651577137406
1772794589855929600,6.4859296875,-1.561504051068425,0.9110292413942516,0.4066876075554639
1772794589865973500,6.495973388671875,-1.3618880721747875,1.0484599822707474,0.5997723580494523
1772794589876018400,6.506018310546875,-1.0381243200868369,1.0781178923010826,0.7513114845816046
1772794589886062600,6.5160625,-0.6010083295851946,1.0737662729628383,0.9180802558843046
1772794589896106500,6.5261064453125,-0.20613690509498117,1.0186723083809017,1.0860882135931402
1772794589906151400,6.5361513671875,0.04193827654123306,1.0057936837159096,1.2238500130549073
1772794589916195600,6.546195556640625,0.16055588813722133,0.8945951162047684,1.3474182327955961
1772794589926240800,6.55624072265625,0.2364221532434225,0.941700273989886,1.2613263417512177
1772794589936284400,6.566284423828125,0.17270108396112918,0.9959772231005132,1.258402417128533
1772794589946329600,6.57632958984375,0.08024901023507118,0.9914539004571735,1.2220812498167157
1772794589956373500,6.58637353515625,0.1617950745433569,1.0742758299201727,1.129708013480529
1772794589966417700,6.596417724609375,0.253144739985466,1.0915862995527683,1.0939946028035132
1772794589976462600,6.606462646484375,0.3050724956214428,1.079271738511324,0.984715312917158
1772794589986506500,6.616506591796875,0.3799251997709274,1.142481205009669,0.9093902420155704
1772794589996551400,6.626551513671875,0.4292728757858276,1.2133631058320402,0.9130136201445013
1772794590006595600,6.636595703125,0.423932683801651,1.3315347272261977,0.9320233679756522
1772794590016640800,6.646640869140625,0.425773343232274,1.4818278722852467,0.9670739308297633
1772794590026684400,6.656684326171875,0.432269134992361,1.60131291436553,0.9824949334539472
1772794590036728600,6.666728515625,0.4573930548548698,1.6229127517551183,1.0157651887625456
1772794590046773800,6.676773681640625,0.4824678748786449,1.5905978974752126,1.0413212164320051
1772794590056817400,6.6868173828125,0.5689625015050173,1.5278113325640559,1.071937011709064
1772794590066862600,6.696862548828125,0.723954325774312,1.4851035329550504,1.0942508425869046
1772794590076906800,6.70690673828125,0.763749745067954,1.3512103185549378,1.1115329629078508
1772794590086951400,6.716951416015625,0.706660076624155,1.2177429283514618,1.119414802198857
1772794590096995600,6.72699560546875,0.6263187119305134,1.0826644496895372,1.083108028738573
1772794590107039500,6.73703955078125,0.5313526095569133,1.0120651652008295,1.030008379779011
1772794590117084400,6.74708447265625,0.4075046960920095,0.9598981939814984,0.9760475108802318
1772794590127128600,6.757128662109375,0.2575701552122831,0.9006396570660173,0.9485195986159145
1772794590137173800,6.767173828125,0.13703531181812287,0.87565762989223,0.8915380667217075
1772794590147217400,6.777217529296875,0.09046586834490299,0.7940097126446664,0.8303193356491625
1772794590157262600,6.7872626953125,0.10508242271840572,0.7138572946518659,0.7688195956781506
1772794590167306800,6.797306640625,0.1431681154847145,0.6297806889526546,0.6714017162382603
1772794590177351400,6.807351318359375,0.16959435011744498,0.5585163646839558,0.5406186332153156
1772794590187395600,6.8173955078125,0.11950140869319438,0.5072545256108045,0.42488216654621064
1772794590197439700,6.827439697265625,-0.001332125386595726,0.4968704942405224,0.3282367693161592
1772794590207484400,6.837484375,-0.18454642005562782,0.5629512783914804,0.24543146219439804
1772794590217528600,6.847528564453125,-0.4148807778179645,0.6490344016075134,0.22759090427309273
1772794590227573800,6.85757373046875,-0.5904647237390279,0.7330659991212188,0.2137262642454356
1772794590237617400,6.867617431640625,-0.6937900736570358,0.7864604663088918,0.2207358507465571
1772794590247662600,6.87766259765625,-0.6445955423772335,0.782773740620166,0.22677564236745237
1772794590257706800,6.887706787109375,-0.5637181711107492,0.71234835139364,0.1933068688120693
1772794590267750400,6.89775048828125,-0.30738720230460165,0.5786258173853158,0.23097579747103153
1772794590277795600,6.907795654296875,-0.0329740488409996,0.3957464537590742,0.29146541055142877
1772794590287839700,6.91783984375,0.14271335745453834,0.23154431807398795,0.3004426438637078
1772794590297884400,6.927884521484375,0.1934527800887823,0.0566568299844861,0.2550382986471057
1772794590307928600,6.937928466796875,0.11825579254627228,-0.06147139065936207,0.26420250589884814
1772794590317972700,6.94797265625,-0.02747720499038696,-0.056774318884313106,0.23914332183562217
1772794590328017400,6.958017333984375,-0.10058920295238494,-0.06926189840510487,0.27977877214998004
1772794590338061600,6.9680615234375,-0.05996551614105701,-0.07803717940449714,0.3282615749638527
1772794590348106500,6.9781064453125,0.05110474881529808,-0.08881780887693166,0.3566016073286533
1772794590358150400,6.988150390625,0.1105775130033493,-0.11191431456506251,0.4254514178015291
1772794590368195600,6.998195556640625,0.16587737542092798,-0.15530337443649767,0.4984238976949826
1772794590378239700,7.00823974609375,0.2401870587348938,-0.22318054048493502,0.5394067001422866
1772794590388283400,7.018283447265625,0.28939620306193825,-0.2787079280480742,0.528578505201079
1772794590398328600,7.02832861328125,0.27440087850391864,-0.3103635877668857,0.5245710231253877
1772794590408372700,7.038372802734375,0.2241483626037836,-0.2990473901130259,0.5377081525960937
1772794590418417400,7.04841748046875,0.13753741612136364,-0.2975534982934594,0.5596241797953844
1772794590428461600,7.058461669921875,0.02324175937771797,-0.2696526610635221,0.528756674779579
1772794590438506500,7.068506591796875,-0.0644756870418787,-0.2206326095677912,0.5315210614589974
1772794590448550400,7.07855029296875,-0.10624679032266139,-0.16987842775583267,0.5570709881812334
1772794590458594600,7.088594482421875,-0.1059019224077463,-0.13898220810219644,0.5386409764667972
1772794590468639500,7.098639404296875,-0.07702537201344967,-0.08377893792688847,0.5467219185264781
1772794590478683400,7.108683349609375,-0.003387304350733757,-0.04101560873836279,0.5837208389693871
1772794590488728600,7.118728515625,0.030216274565458296,-0.0007812135055661201,0.6582679477684199
1772794590498772700,7.128772705078125,0.08893559003770352,0.024877251625061034,0.7381988319650292
1772794590508817700,7.138817626953125,0.13128420094549656,0.02831964716389775,0.7169086450465023
1772794590518861600,7.148861572265625,0.18078560621738432,0.014850655390322208,0.7265333824820817
1772794590528905700,7.15890576171875,0.21529928571581838,-0.07371420163884758,0.7035907521814108
1772794590538950700,7.16895068359375,0.17424422174990176,-0.15461509991139172,0.6332544294778257
1772794590548994600,7.17899462890625,0.07722527849972248,-0.124073246653378,0.5915545648023486
1772794590559039500,7.18903955078125,-0.11241934147775172,-0.07995733381211757,0.5832441248357295
1772794590569083400,7.19908349609375,-0.35953649173676966,0.03806494223922491,0.5750576765749603
1772794590579128600,7.209128662109375,-0.5337836360961199,0.19532529596239329,0.5611247570840642
1772794590589172500,7.21917236328125,-0.6377607279211283,0.2835115289375186,0.5785344493074343
1772794590599216400,7.22921630859375,-0.6677402711212634,0.381452409338206,0.5645544392718002
1772794590609261600,7.239261474609375,-0.7920546330541371,0.41217502599060535,0.511792315170914
1772794590619305700,7.2493056640625,-0.8074585384130477,0.35371377693265676,0.47070174150019883
1772794590629350700,7.2593505859375,-0.6948766998499631,0.22666341416463254,0.4292126700311899
1772794590639394600,7.26939453125,-0.6214098971009254,0.05320858922675251,0.35942908583953975
1772794590649439500,7.279439453125,-0.5300695840090512,-0.08968523936122655,0.27005349694937464
1772794590659483600,7.289483642578125,-0.41375440413653847,-0.28280440358147024,0.27409247014187277
1772794590669527600,7.299527587890625,-0.32517654149532316,-0.40062092792764303,0.2973964811008423
1772794590679572500,7.309572509765625,-0.3282692468136549,-0.3437099770516157,0.2499712975811213
1772794590689616600,7.31961669921875,-0.4552770856142044,-0.45870179936587807,0.0780152598336339
1772794590699661600,7.32966162109375,-0.5663415053516626,-0.3628919396445155,-0.00784406456388533
1772794590709705500,7.33970556640625,-0.7134007830560207,-0.10369900553599,-0.10130684970244765
1772794590719750700,7.349750732421875,-0.854517811229825,0.16766265140250325,-0.078065894042328
1772794590729794600,7.359794677734375,-0.8725070569068193,0.46950844006240366,-0.00798785694874823
1772794590739838700,7.369838623046875,-0.8016027981221675,0.687513039214164,0.05968472643829882
1772794590749883600,7.379883544921875,-0.6936047802180051,0.8890358746424317,0.1872709496486932
1772794590759927600,7.389927490234375,-0.5100619842469692,1.0170828472323714,0.3345825946789235
1772794590769972500,7.399972412109375,-0.2658183435976505,1.0342436792612075,0.45051871210597455
1772794590780016600,7.4100166015625,-0.020980244186520575,0.9831586580596864,0.49162915952093894
1772794590790061600,7.4200615234375,0.23028759601116178,0.8877076947785913,0.47386758511997756
1772794590800105500,7.43010546875,0.5158779770493507,0.7588241252340376,0.5251653722893447
1772794590810149600,7.440149658203125,0.7419587690204381,0.6146618841454387,0.5827937507197261
1772794590820195000,7.450195068359375,0.8614064016997813,0.5016568517342209,0.5394147007856518
1772794590830239000,7.460239013671875,0.8678829042375087,0.4297676735654473,0.4901405283983797
1772794590840284200,7.4702841796875,0.8433435062646866,0.3151759564846754,0.47641778105944393
1772794590850328300,7.480328369140625,0.8001572754889726,0.20938202449604867,0.4000676048938185
1772794590860373200,7.490373291015625,0.7305430565148592,0.16437778451293705,0.23406170772239565
1772794590870417200,7.500417236328125,0.6299263810336589,0.16082228398844597,0.08277560610324144
1772794590880461300,7.51046142578125,0.4576718717962503,0.1473509541273117,-0.04304930652305484
1772794590890506200,7.52050634765625,0.3021358576476574,0.2582601833030581,-0.23938063772283494
1772794590900550100,7.530550048828125,0.013771920242905616,0.3630233109392226,-0.3231711930222809
1772794590910595000,7.540594970703125,-0.2137397813141346,0.46109556263461704,-0.23606077258512376
1772794590920639000,7.550638916015625,-0.3474363040983677,0.5809519222453237,-0.1620288832992315
1772794590930684200,7.56068408203125,-0.3161047617673874,0.6833391145303845,-0.14799893317464738
1772794590940728000,7.57072802734375,-0.32719197297096253,0.6926080242656171,-0.12235274300370365
1772794590950772000,7.58077197265625,-0.30427170063257214,0.7018927160918712,-0.07780541647523641
1772794590960817200,7.590817138671875,-0.2555360190361738,0.6589570990763605,-0.048227659009024496
1772794590970861300,7.600861328125,-0.15881167481839656,0.6073633977003395,0.0036268852602690457
1772794590980906200,7.61090625,-0.05751169324815273,0.5737219709917902,0.1428420253355056
1772794590990950100,7.6209501953125,0.12109306179881095,0.5499114718154072,0.13563231315240262
1772794591000995000,7.6309951171875,0.22827742523252964,0.5184839217640459,0.24427535096183417
1772794591011039200,7.641039306640625,0.2063449948877096,0.5145918827615678,0.3134444199843332
1772794591021083100,7.651083251953125,0.13160101180970668,0.530194963954389,0.3175171858485788
1772794591031128000,7.661128173828125,0.018033669340610504,0.49016792786195873,0.2669672579044476
1772794591041172200,7.671172119140625,-0.1728267561674118,0.49933045461326836,0.2540521736865863
1772794591051217200,7.681217041015625,-0.25972178028821946,0.436146560947597,0.2776700729003176
1772794591061261000,7.691260986328125,-0.16127835719287395,0.3882099207744002,0.26654084918592125
1772794591071306200,7.70130615234375,0.005903671085834503,0.3587864040218293,0.29681535674463955
1772794591081350100,7.71135009765625,0.24048867202997207,0.25558760309293865,0.31728527678884566
1772794591091394300,7.721394287109375,0.24843057094514367,0.19427827112749219,0.3995644046120345
1772794591101439200,7.731439208984375,0.22314356947541236,0.11940671614706516,0.4192306435905397
1772794591111483100,7.741483154296875,0.2032692407041788,0.03326221813261509,0.4830344592528417
1772794591121528000,7.751528076171875,0.2128986543148756,-0.0179924605473876,0.41712826448380946
1772794591131572200,7.761572265625,0.3457657405376434,-0.1107151679083705,0.32895551204476503
1772794591141616000,7.7716162109375,0.36768472687900067,-0.17671689547374844,0.491351219362393
1772794591151661000,7.7816611328125,0.41470600577294825,-0.15450038749054074,0.4959648141050711
1772794591161705200,7.791705322265625,0.42909225852191446,-0.17024740719869733,0.6296618848785758
1772794591171750100,7.801750244140625,0.3162082221418619,-0.15155118229612707,0.6140123341955244
1772794591181794000,7.8117939453125,0.22275661598443983,-0.14751754286587238,0.5635059531321749
1772794591191839200,7.821839111328125,0.19604221206009387,-0.20793182568773627,0.6108520435336977
1772794591201883100,7.831883056640625,0.17387889556884764,-0.2964804622344672,0.6074851243838667
1772794591211927300,7.84192724609375,0.25466800402998924,-0.2852013817206025,0.5851659597437828
1772794591221972200,7.85197216796875,0.34162907912433144,-0.3826847276121378,0.6221306856561452
1772794591232016100,7.86201611328125,0.3441676576912403,-0.38920638446584344,0.6081175770685077
1772794591242061000,7.87206103515625,0.45142274827361106,-0.3642480304285884,0.5579893451351672
1772794591252105200,7.882105224609375,0.36796763547360894,-0.379290847390145,0.5880380080487578
1772794591262150100,7.892150146484375,0.24564883127212522,-0.32624797011911866,0.5452748249907047
1772794591272194000,7.902194091796875,0.07137479890584945,-0.22108634468466043,0.5832417136829346
1772794591282238200,7.91223828125,-0.06950023720562458,-0.12370178299248218,0.6116251467980444
1772794591292283100,7.922283203125,-0.20984569648504256,-0.05854220533967018,0.5877204665321857
1772794591302327000,7.9323271484375,-0.3053682636976242,-0.045514381462335586,0.460237776761502
1772794591312372200,7.942372314453125,-0.38441608144938944,-0.07008695105239748,0.3775844818636775
1772794591322416000,7.952416015625,-0.36802784122824667,-0.13923413703665136,0.3256993232604116
1772794591332461000,7.9624609375,-0.3367956676185131,-0.12529694322943688,0.29763365085758264
1772794591342505200,7.972505126953125,-0.3134340812534094,-0.155630998955667,0.25994199891015884
1772794591352549000,7.982549072265625,-0.2758206821739673,-0.22646906063631175,0.2452894964404404
1772794591362594000,7.992593994140625,-0.1871218235015869,-0.3284532250784337,0.17080029184110462
1772794591372638200,8.00263818359375,-0.0664794280797243,-0.4218867110572755,0.07326558108851314
1772794591382683100,8.01268310546875,0.15625731416046618,-0.5183243472881615,0.10840477207414806
1772794591392727000,8.02272705078125,0.2824111664801836,-0.5903751457594335,0.2018677398758009
1772794591402772200,8.032772216796875,0.5354851793169975,-0.6509791059345007,0.1296925843724981
1772794591412816100,8.042816162109375,0.5093582198917865,-0.6414601669609546,0.08760273399874567
1772794591422860000,8.052860107421875,0.33946225647926326,-0.6619076194450259,0.006792911543138325
1772794591432905200,8.0629052734375,0.17591770792007444,-0.904072700254619,-0.03394961587488651
1772794591442949000,8.07294921875,0.16716975331902503,-0.8360615325629711,-0.18920352514646946
1772794591452994000,8.082994140625,0.06850713451504707,-0.7379621005997061,-0.04976378253512084
1772794591463038200,8.0930380859375,0.08481646428108215,-0.7047253091692924,0.06076101390030235
1772794591473082000,8.10308203125,0.1484089387476444,-0.5601838595047592,0.033248591466061767
1772794591483127000,8.113126953125,0.09453355617523193,-0.5760859236441552,0.014450586689449846
1772794591493171200,8.123171142578125,-0.23151859911084174,-0.5752960884407162,-0.17444869481343775
1772794591503216400,8.13321630859375,-0.6977373499780893,-0.467469335450232,-0.2601549840737134
