time,seconds_elapsed,z,y,x
1772794583447574800,0.07757470703125,0.2833615839481354,0.04966231808066368,0.13839510083198547
1772794583457620000,0.087619873046875,0.29060500860214233,0.06578897684812546,0.10286574810743332
1772794583467664100,0.0976640625,0.2945994734764099,0.06306350231170654,0.06517216563224792
1772794583477708800,0.107708740234375,0.3131175935268402,0.0632127970457077,0.03964158147573471
1772794583487753000,0.1177529296875,0.3367496728897095,0.07404227554798126,0.032634273171424866
1772794583497798000,0.1277978515625,0.3578903377056122,0.0691535696387291,0.02734627202153206
1772794583507841800,0.137841796875,0.3766155540943146,0.06332337111234665,0.03180227428674698
1772794583517887000,0.147886962890625,0.39204010367393494,0.048618730157613754,0.04242640361189842
1772794583527931000,0.157930908203125,0.41171392798423767,0.008141612634062767,0.04734392836689949
1772794583537974800,0.167974853515625,0.43170028924942017,-0.015732338652014732,0.06464783102273941
1772794583548020000,0.17802001953125,0.43563857674598694,-0.03918733075261116,0.0904056578874588
1772794583558063900,0.18806396484375,0.42234593629837036,-0.05137304961681366,0.12064200639724731
1772794583568108800,0.19810888671875,0.40409982204437256,-0.063992440700531,0.14605869352817535
1772794583578153000,0.208153076171875,0.3870619237422943,-0.09197533875703812,0.1528332531452179
1772794583588198000,0.218197998046875,0.37541458010673523,-0.12118489295244217,0.13255780935287476
1772794583598241800,0.22824169921875,0.3804019093513489,-0.13890253007411957,0.09551578760147095
1772794583608287000,0.238286865234375,0.40347978472709656,-0.153590127825737,0.035876695066690445
1772794583618331000,0.248330810546875,0.42548489570617676,-0.15934911370277405,-0.030731182545423508
1772794583628376000,0.2583759765625,0.4437238276004791,-0.1370571255683899,-0.09393545240163803
1772794583638420000,0.268419921875,0.4582441747188568,-0.09929823875427246,-0.14346842467784882
1772794583648465000,0.27846484375,0.49987179040908813,-0.0643053650856018,-0.17381274700164795
1772794583658509000,0.288509033203125,0.5870059728622437,-0.017275482416152954,-0.18801014125347137
1772794583668553700,0.2985537109375,0.6188757419586182,0.03923493251204491,-0.1904916763305664
1772794583678598000,0.308597900390625,0.629881739616394,0.09286379814147949,-0.18088537454605103
1772794583688641800,0.318641845703125,0.6186309456825256,0.12442784756422043,-0.1691719889640808
1772794583698686700,0.328686767578125,0.6034644842147827,0.13603225350379944,-0.14658911526203156
1772794583708731000,0.33873095703125,0.5911297798156738,0.12568508088588715,-0.1099163293838501
1772794583718776000,0.348776123046875,0.5842970609664917,0.10455138981342316,-0.0664576068520546
1772794583728820000,0.358820068359375,0.573584258556366,0.07239478826522827,-0.02743350900709629
1772794583738865000,0.368864990234375,0.567368745803833,0.03189903125166893,-0.00530132744461298
1772794583748909000,0.378908935546875,0.6012644171714783,0.028549043461680412,0.005155041813850403
1772794583758953700,0.38895361328125,0.6229113936424255,0.016298234462738037,0.018290285021066666
1772794583768998000,0.398997802734375,0.6188201904296875,0.0007392484694719315,0.05315346270799637
1772794583779043000,0.40904296875,0.5744183659553528,0.01454075612127781,0.07293577492237091
1772794583789086700,0.419086669921875,0.5224805474281311,0.013303451240062714,0.07534246891736984
1772794583799131000,0.429130859375,0.48585808277130127,0.008917808532714844,0.07409952580928802
1772794583809175600,0.439175537109375,0.4748304784297943,0.008593701757490635,0.06605277955532074
1772794583819219500,0.449219482421875,0.4832289516925812,0.023905029520392418,0.05360163003206253
1772794583829264400,0.459264404296875,0.4882644712924957,0.05790161341428757,0.038457829505205154
1772794583839308500,0.46930859375,0.49110743403434753,0.09745936095714569,0.028672872111201286
1772794583849353500,0.479353515625,0.4965299069881439,0.12190718203783035,0.015057726763188839
1772794583859397400,0.4893974609375,0.506403923034668,0.15181031823158264,0.007788596209138632
1772794583869442600,0.499442626953125,0.5217101573944092,0.1713286191225052,0.000360773759894073
1772794583879486500,0.509486572265625,0.5458869338035583,0.1738339066505432,-0.0032702640164643526
1772794583889531400,0.519531494140625,0.5582836866378784,0.17201203107833862,-0.0180987436324358
1772794583899575600,0.529575439453125,0.5599751472473145,0.16603490710258484,-0.041299205273389816
1772794583909620500,0.539620361328125,0.5456627607345581,0.1692543923854828,-0.0737338438630104
1772794583919664400,0.549664306640625,0.5183861255645752,0.15065115690231323,-0.11281413584947586
1772794583929708500,0.55970849609375,0.4855421483516693,0.10786240547895432,-0.1533823311328888
1772794583939753500,0.56975341796875,0.43813806772232056,0.05163630470633507,-0.19096897542476654
1772794583949797400,0.57979736328125,0.3836636245250702,0.012062794528901577,-0.21772736310958862
1772794583959842600,0.589842529296875,0.3334692120552063,-0.024301335215568542,-0.24087664484977722
1772794583969886500,0.599886474609375,0.2793066203594208,-0.05743877962231636,-0.25953102111816406
1772794583979931400,0.609931396484375,0.23408763110637665,-0.08369643986225128,-0.27590465545654297
1772794583989975600,0.6199755859375,0.21339620649814606,-0.10114546865224838,-0.2847026586532593
1772794584000020500,0.6300205078125,0.22007997334003448,-0.0914405882358551,-0.28211653232574463
1772794584010064400,0.640064453125,0.25516045093536377,-0.06877122819423676,-0.26414579153060913
1772794584020109300,0.650109375,0.29828768968582153,-0.050562240183353424,-0.23848162591457367
1772794584030153500,0.660153564453125,0.33180224895477295,-0.00961906835436821,-0.228990375995636
1772794584040197400,0.670197265625,0.35533949732780457,0.049052976071834564,-0.22818523645401
1772794584050242300,0.6802421875,0.3776743710041046,0.10406802594661713,-0.23361514508724213
1772794584060286500,0.690286376953125,0.398400217294693,0.13840432465076447,-0.24298594892024994
1772794584070331400,0.700331298828125,0.41248995065689087,0.15947526693344116,-0.251482218503952
1772794584080375600,0.71037548828125,0.4245857894420624,0.15681909024715424,-0.2563667893409729
1772794584090420500,0.72042041015625,0.4356538951396942,0.14666472375392914,-0.25841236114501953
1772794584100464400,0.73046435546875,0.45396333932876587,0.14048074185848236,-0.24850794672966003
1772794584110509300,0.74050927734375,0.4597589075565338,0.12477687746286392,-0.23808486759662628
1772794584120553500,0.750553466796875,0.4778423607349396,0.13638731837272644,-0.22204716503620148
1772794584130598700,0.7605986328125,0.489132821559906,0.11924240738153458,-0.2088320255279541
1772794584140642300,0.770642333984375,0.4887455403804779,0.13245145976543427,-0.19865718483924866
1772794584150687500,0.7806875,0.49159806966781616,0.15361054241657257,-0.18504497408866882
1772794584160731600,0.790731689453125,0.4967350959777832,0.1549198180437088,-0.18348099291324615
1772794584170775300,0.800775390625,0.5016289353370667,0.15789218246936798,-0.18671326339244843
1772794584180820500,0.810820556640625,0.49266317486763,0.16935858130455017,-0.1976931095123291
1772794584190864600,0.82086474609375,0.49084824323654175,0.19102180004119873,-0.2151232361793518
1772794584200909300,0.830909423828125,0.49633362889289856,0.21065641939640045,-0.23340359330177307
1772794584210953500,0.840953369140625,0.507186233997345,0.22280842065811157,-0.23956428468227386
1772794584220998400,0.850998291015625,0.5210071802139282,0.21612344682216644,-0.23682795464992523
1772794584231042300,0.861042236328125,0.5409609079360962,0.2099265456199646,-0.22350415587425232
1772794584241087500,0.87108740234375,0.5546514987945557,0.20252269506454468,-0.21468593180179596
1772794584251131600,0.881131591796875,0.5667385458946228,0.2123633325099945,-0.2020455002784729
1772794584261176300,0.89117626953125,0.5700289607048035,0.21056848764419556,-0.19178876280784607
1772794584271220500,0.901220458984375,0.5708311200141907,0.20673219859600067,-0.17871689796447754
1772794584281264600,0.9112646484375,0.5667820572853088,0.19428452849388123,-0.16734513640403748
1772794584291309300,0.921309326171875,0.5478118062019348,0.1731342375278473,-0.16860827803611755
1772794584301353500,0.931353515625,0.5281302332878113,0.15471288561820984,-0.1724780946969986
1772794584311398400,0.9413984375,0.5056605935096741,0.12117435783147812,-0.18379093706607819
1772794584321442300,0.9514423828125,0.49891161918640137,0.10661347955465317,-0.17593082785606384
1772794584331487500,0.961487548828125,0.49993881583213806,0.09322523325681686,-0.1583654135465622
1772794584341531400,0.971531494140625,0.5063858032226562,0.06286653131246567,-0.13578635454177856
1772794584351576300,0.981576416015625,0.5041919350624084,0.03259997442364693,-0.10399728268384933
1772794584361620500,0.991620361328125,0.4920085370540619,0.006023123394697905,-0.07403609156608582
1772794584371665400,1.00166552734375,0.46725764870643616,-0.017973022535443306,-0.03849141299724579
1772794584381709300,1.011709228515625,0.4372052252292633,-0.059038594365119934,0.007015240378677845
1772794584391754500,1.02175439453125,0.3877820074558258,-0.10673633962869644,0.047011394053697586
1772794584401798400,1.03179833984375,0.3251377046108246,-0.13054277002811432,0.07856951653957367
1772794584411842300,1.04184228515625,0.26568344235420227,-0.11440481245517731,0.11451606452465057
1772794584421887500,1.051887451171875,0.19807009398937225,-0.10936083644628525,0.11698617041110992
1772794584431931400,1.061931396484375,0.13349056243896484,-0.09933030605316162,0.0923846885561943
1772794584441976600,1.0719765625,0.08552023768424988,-0.08155771344900131,0.04621245712041855
1772794584452020500,1.0820205078125,0.06428259611129761,-0.05999036505818367,-0.0026315166614949703
1772794584462065400,1.0920654296875,0.07090798020362854,-0.04688047990202904,-0.04733527451753616
1772794584472109600,1.102109619140625,0.09577550739049911,-0.053072329610586166,-0.0780942514538765
1772794584482154500,1.112154541015625,0.1201731413602829,-0.08616448938846588,-0.0698734000325203
1772794584492198400,1.122198486328125,0.14287658035755157,-0.1279825121164322,-0.02602684684097767
1772794584502243600,1.13224365234375,0.16406835615634918,-0.1737038791179657,0.05361788719892502
1772794584512287500,1.14228759765625,0.18533264100551605,-0.21962901949882507,0.15279053151607513
1772794584522331400,1.152331298828125,0.19213400781154633,-0.26081129908561707,0.2273411750793457
1772794584532376600,1.16237646484375,0.23071976006031036,-0.30333346128463745,0.3479514718055725
1772794584542420500,1.17242041015625,0.2719985842704773,-0.32941070199012756,0.4690034091472626
1772794584552465400,1.18246533203125,0.2842763066291809,-0.36091190576553345,0.5504117012023926
1772794584562509600,1.192509521484375,0.2738986909389496,-0.36749884486198425,0.5992646217346191
1772794584572554200,1.20255419921875,0.2561633586883545,-0.3463815748691559,0.6100879907608032
1772794584582598400,1.212598388671875,0.24430087208747864,-0.3046412467956543,0.5901495814323425
1772794584592643600,1.2226435546875,0.2319403439760208,-0.24737288057804108,0.5499273538589478
1772794584602687200,1.232687255859375,0.23367860913276672,-0.18240101635456085,0.5076858401298523
1772794584612732400,1.242732421875,0.24094079434871674,-0.10735100507736206,0.46357616782188416
1772794584622776600,1.252776611328125,0.2522980868816376,-0.03593147546052933,0.4320715665817261
1772794584632821500,1.262821533203125,0.2660386562347412,0.023040233179926872,0.4090179204940796
1772794584642865400,1.272865478515625,0.27101844549179077,0.07551712542772293,0.390821248292923
1772794584652909600,1.28290966796875,0.27039235830307007,0.11101999133825302,0.3721711337566376
1772794584662954200,1.292954345703125,0.2654362618923187,0.11375533044338226,0.3410818874835968
1772794584672998400,1.302998291015625,0.25630295276641846,0.11917192488908768,0.29618871212005615
1772794584683043600,1.313043701171875,0.24983404576778412,0.12844963371753693,0.2564351558685303
1772794584693087200,1.323087158203125,0.23955851793289185,0.14770188927650452,0.2273014932870865
1772794584703132400,1.33313232421875,0.2260805368423462,0.15317665040493011,0.2052842378616333
1772794584713176600,1.343176513671875,0.21443107724189758,0.14676375687122345,0.18169395625591278
1772794584723221500,1.353221435546875,0.19823352992534637,0.150039941072464,0.16407744586467743
1772794584733265400,1.363265380859375,0.18800832331180573,0.14251437783241272,0.13751932978630066
1772794584743309600,1.3733095703125,0.18954282999038696,0.12490050494670868,0.11061634868383408
1772794584753354500,1.3833544921875,0.1989682912826538,0.09748219698667526,0.07710898667573929
1772794584763398400,1.3933984375,0.2056969404220581,0.04288722202181816,0.03496253117918968
1772794584773443600,1.403443603515625,0.20857688784599304,0.011192676611244678,0.005598247982561588
1772794584783487500,1.413487548828125,0.2009568065404892,-0.01800110563635826,-0.009862531907856464
1772794584793532400,1.423532470703125,0.17844457924365997,-0.055032625794410706,-0.018518337979912758
1772794584803576600,1.43357666015625,0.13905107975006104,-0.0797395184636116,-0.014023234136402607
1772794584813622000,1.4436220703125,0.09496458619832993,-0.09281190484762192,0.0012883440358564258
1772794584823666000,1.453666015625,0.055383749306201935,-0.09312796592712402,0.013511884957551956
1772794584833710800,1.4637109375,0.01853492297232151,-0.08395816385746002,0.017580663785338402
1772794584843755000,1.473755126953125,-0.004841952584683895,-0.07260837405920029,0.010816087946295738
1772794584853799000,1.483798828125,-0.02620316855609417,-0.06480930745601654,-0.011451667174696922
1772794584863843800,1.49384375,-0.03556593507528305,-0.060459453612565994,-0.02974293753504753
1772794584873888000,1.503887939453125,-0.03653665632009506,-0.03870808333158493,-0.04785962402820587
1772794584883933000,1.513932861328125,-0.03643346205353737,-0.03028068132698536,-0.0697585865855217
1772794584893976800,1.523976806640625,-0.036601774394512177,-0.009558092802762985,-0.09315311908721924
1772794584904022000,1.53402197265625,-0.05813565105199814,0.010377597063779831,-0.12126610428094864
1772794584914066000,1.54406591796875,-0.09358365088701248,0.05267099291086197,-0.14842982590198517
1772794584924110800,1.55411083984375,-0.13034048676490784,0.07365509867668152,-0.1734999567270279
1772794584934155000,1.564155029296875,-0.16776588559150696,0.0935736745595932,-0.1889825165271759
1772794584944200000,1.574199951171875,-0.1983274221420288,0.11008245497941971,-0.20280979573726654
1772794584954243800,1.584243896484375,-0.21662014722824097,0.11492861062288284,-0.21470506489276886
1772794584964288000,1.5942880859375,-0.2248506098985672,0.11722857505083084,-0.22919325530529022
1772794584974333000,1.6043330078125,-0.2323322296142578,0.13064557313919067,-0.251455694437027
1772794584984376800,1.614376953125,-0.23794855177402496,0.16262930631637573,-0.26561781764030457
1772794584994422000,1.624422119140625,-0.24140533804893494,0.19489508867263794,-0.2726956903934479
1772794585004466200,1.634466064453125,-0.24190007150173187,0.2268843948841095,-0.28220391273498535
1772794585014510800,1.6445107421875,-0.24248278141021729,0.25148558616638184,-0.28638482093811035
1772794585024555000,1.654554931640625,-0.24339498579502106,0.2744098901748657,-0.29231947660446167
1772794585034600000,1.664599853515625,-0.24551033973693848,0.3011714518070221,-0.29204967617988586
1772794585044643800,1.674643798828125,-0.24488797783851624,0.3310279846191406,-0.2988602817058563
1772794585054689000,1.68468896484375,-0.24017977714538574,0.35211196541786194,-0.31184956431388855
1772794585064733000,1.69473291015625,-0.23950712382793427,0.3678440749645233,-0.33875733613967896
1772794585074776800,1.70477685546875,-0.23849353194236755,0.4042492210865021,-0.3700883388519287
1772794585084822000,1.714822021484375,-0.23614220321178436,0.420971542596817,-0.4156242609024048
1772794585094866000,1.724865966796875,-0.23013357818126678,0.4184567332267761,-0.4537338316440582
1772794585104910800,1.734910888671875,-0.21596162021160126,0.4122183918952942,-0.4668869972229004
1772794585114955000,1.744955078125,-0.20524612069129944,0.3813411593437195,-0.4570207893848419
1772794585125000000,1.755,-0.18969133496284485,0.3505616784095764,-0.40896302461624146
1772794585135043800,1.7650439453125,-0.19060106575489044,0.28864532709121704,-0.3616389036178589
1772794585145089000,1.775089111328125,-0.19965997338294983,0.22499482333660126,-0.31197747588157654
1772794585155133000,1.7851328125,-0.21399550139904022,0.15638646483421326,-0.280598521232605
1772794585165176800,1.7951767578125,-0.2407761514186859,0.08841928839683533,-0.2616361081600189
1772794585175222000,1.805221923828125,-0.28538623452186584,0.037786468863487244,-0.26683059334754944
1772794585185266000,1.815265869140625,-0.3342999219894409,-0.02644668146967888,-0.2885206341743469
1772794585195310800,1.825310791015625,-0.375806599855423,-0.059884000569581985,-0.3127298355102539
1772794585205355000,1.83535498046875,-0.4015023112297058,-0.1010536402463913,-0.3231235444545746
1772794585215400000,1.84539990234375,-0.42205896973609924,-0.1423129290342331,-0.3110884428024292
1772794585225443800,1.85544384765625,-0.43394148349761963,-0.14703387022018433,-0.27133098244667053
1772794585235488800,1.86548876953125,-0.4191305935382843,-0.15618209540843964,-0.21136803925037384
1772794585245533000,1.875532958984375,-0.390238881111145,-0.12985844910144806,-0.13681162893772125
1772794585255578000,1.885578125,-0.34976282715797424,-0.10512194782495499,-0.07222331315279007
1772794585265622000,1.8956220703125,-0.3091975450515747,-0.07215409725904465,-0.019644305109977722
1772794585275666000,1.905666015625,-0.2794092893600464,-0.049140118062496185,0.0259317047894001
1772794585285711000,1.915711181640625,-0.279632031917572,-0.03572370857000351,0.03985239192843437
1772794585295755000,1.925755126953125,-0.29745495319366455,-0.03892642259597778,0.03328077867627144
1772794585305800000,1.935800048828125,-0.31227004528045654,-0.041267868131399155,0.02345367707312107
1772794585315844000,1.945843994140625,-0.3198675215244293,-0.0596599243581295,0.00870535708963871
1772794585325888800,1.955888671875,-0.309295117855072,-0.07495622336864471,-0.01698596589267254
1772794585335933000,1.965932861328125,-0.3042100667953491,-0.0931413471698761,-0.044210392981767654
1772794585345978000,1.97597802734375,-0.3296828866004944,-0.1362837702035904,-0.0810009241104126
1772794585356021800,1.986021728515625,-0.40000951290130615,-0.20486761629581451,-0.13026806712150574
1772794585366066000,1.99606591796875,-0.48992395401000977,-0.24350838363170624,-0.1696627140045166
1772794585376111000,2.006111083984375,-0.556698203086853,-0.2770727276802063,-0.18215906620025635
1772794585386155000,2.016155029296875,-0.5760973691940308,-0.2470821738243103,-0.13583223521709442
1772794585396200000,2.026199951171875,-0.5464228391647339,-0.20055969059467316,-0.03500521555542946
1772794585406244000,2.036244140625,-0.4845702052116394,-0.08735498785972595,0.11298815160989761
1772794585416288800,2.046288818359375,-0.39847633242607117,0.052883874624967575,0.2729834020137787
1772794585426333000,2.0563330078125,-0.2935081124305725,0.19646398723125458,0.41457271575927734
1772794585436378000,2.066378173828125,-0.17404723167419434,0.31992360949516296,0.521727979183197
1772794585446421800,2.076421875,-0.06079702451825142,0.3711165487766266,0.5823549628257751
1772794585456466000,2.0864658203125,0.0142543138936162,0.3939691483974457,0.6074076294898987
1772794585466511000,2.096510986328125,0.05089939013123512,0.4148862063884735,0.602173924446106
1772794585476554800,2.1065546875,0.07009758800268173,0.40007343888282776,0.5655863881111145
1772794585486600000,2.116599853515625,0.09948518127202988,0.31513726711273193,0.5169471502304077
1772794585496644000,2.12664404296875,0.11407557874917984,0.2481238692998886,0.4797270596027374
1772794585506688800,2.136688720703125,0.11283725500106812,0.18887680768966675,0.45441344380378723
1772794585516733000,2.14673291015625,0.09401457011699677,0.12197686731815338,0.44327718019485474
1772794585526777900,2.15677783203125,0.06984727829694748,0.04695083573460579,0.43298667669296265
1772794585536821800,2.16682177734375,0.03964170441031456,-0.044592130929231644,0.41293415427207947
1772794585546867000,2.176866943359375,0.023975856602191925,-0.13139888644218445,0.39816129207611084
1772794585556911000,2.1869111328125,0.01901358924806118,-0.19755659997463226,0.39304378628730774
1772794585566954800,2.196954833984375,0.024217436090111732,-0.24081693589687347,0.3897840082645416
1772794585577000000,2.207,0.032546740025281906,-0.24962933361530304,0.3920687437057495
1772794585587044000,2.217044189453125,0.04183774068951607,-0.2517182528972626,0.38788536190986633
1772794585597089000,2.227089111328125,0.041101641952991486,-0.24993100762367249,0.3689210116863251
1772794585607133000,2.2371328125,0.04655919596552849,-0.23364616930484772,0.3351525068283081
1772794585617177900,2.247177734375,0.05870826914906502,-0.21612629294395447,0.29261916875839233
1772794585627222000,2.257221923828125,0.06735710799694061,-0.207563579082489,0.24078036844730377
1772794585637267000,2.267266845703125,0.0752246230840683,-0.20948292315006256,0.18236100673675537
1772794585647310800,2.277310791015625,0.08439266681671143,-0.21855832636356354,0.1310097873210907
1772794585657354800,2.287354736328125,0.1004754975438118,-0.22663728892803192,0.09358518570661545
1772794585667400000,2.29739990234375,0.10948199778795242,-0.22785772383213043,0.06839717924594879
1772794585677444000,2.307444091796875,0.11199762672185898,-0.22236467897891998,0.043824996799230576
1772794585687489000,2.317489013671875,0.10885512083768845,-0.2082437425851822,0.022523371502757072
1772794585697533000,2.327532958984375,0.10904847085475922,-0.1866295337677002,0.00540164252743125
1772794585707577900,2.337577880859375,0.11086490750312805,-0.15483245253562927,0.005899157375097275
1772794585717622000,2.3476220703125,0.11388759315013885,-0.09639499336481094,0.02097637765109539
1772794585727667000,2.3576669921875,0.13111163675785065,-0.022608645260334015,0.04032688960433006
1772794585737710800,2.3677109375,0.16623181104660034,0.046301715075969696,0.06202525645494461
1772794585747755000,2.377755126953125,0.20522183179855347,0.09423936158418655,0.0772271603345871
1772794585757800000,2.387800048828125,0.23550277948379517,0.12718185782432556,0.0778183788061142
1772794585767843800,2.39784375,0.25110140442848206,0.14198951423168182,0.07020953297615051
1772794585777889000,2.407888916015625,0.2614462077617645,0.1340000331401825,0.053542133420705795
1772794585787933000,2.417932861328125,0.26748594641685486,0.11717279255390167,0.03672939911484718
1772794585797977900,2.427977783203125,0.2765931487083435,0.09221791476011276,0.02014962211251259
1772794585808022000,2.43802197265625,0.28556185960769653,0.07446815818548203,0.008024846203625202
1772794585818067200,2.448067138671875,0.29231351613998413,0.07204361259937286,-0.0007231052732095122
1772794585828110800,2.45811083984375,0.28775185346603394,0.09751371294260025,-0.009971657767891884
1772794585838155000,2.468155029296875,0.2872527837753296,0.13423152267932892,-0.02624969743192196
1772794585848200200,2.4782001953125,0.2943021357059479,0.16712309420108795,-0.053814150393009186
1772794585858243800,2.488243896484375,0.3023792505264282,0.1873074620962143,-0.09461377561092377
1772794585868289000,2.4982890625,0.31999632716178894,0.18543487787246704,-0.14939355850219727
1772794585878333200,2.508333251953125,0.34337756037712097,0.1582067310810089,-0.21095652878284454
1772794585888378000,2.518378173828125,0.35555025935173035,0.13057881593704224,-0.2634596526622772
1772794585898422000,2.528422119140625,0.3529864251613617,0.09823553264141083,-0.2964077591896057
1772794585908467000,2.538467041015625,0.3478601276874542,0.054241444915533066,-0.31781983375549316
1772794585918510800,2.5485107421875,0.3340812027454376,0.016741473227739334,-0.3240436315536499
1772794585928555000,2.558554931640625,0.32844847440719604,-0.028584452345967293,-0.3157961368560791
1772794585938600000,2.568599853515625,0.3157084584236145,-0.059710148721933365,-0.30160602927207947
1772794585948643800,2.578643798828125,0.32166239619255066,-0.06282126158475876,-0.2736966013908386
1772794585958689000,2.58868896484375,0.3335115909576416,-0.06352459639310837,-0.2543441951274872
1772794585968733200,2.598733154296875,0.369109183549881,-0.02399333566427231,-0.22580158710479736
1772794585978778000,2.608778076171875,0.40570342540740967,0.00521195400506258,-0.2089855819940567
1772794585988822000,2.618822021484375,0.4501381516456604,0.07511422783136368,-0.18346916139125824
1772794585998867000,2.628866943359375,0.49190956354141235,0.1083185225725174,-0.1566053330898285
1772794586008911000,2.6389111328125,0.5166921615600586,0.1181836649775505,-0.12465564906597137
1772794586018955000,2.648955078125,0.5276380181312561,0.1131744310259819,-0.09108834713697433
1772794586029000000,2.659,0.5250931978225708,0.09028002619743347,-0.059665143489837646
1772794586039044000,2.669044189453125,0.516545832157135,0.06634460389614105,-0.029455840587615967
1772794586049089000,2.679089111328125,0.5164897441864014,0.020449023693799973,-0.003739327657967806
1772794586059133000,2.6891328125,0.5253769755363464,-0.025214068591594696,0.027685971930623055
1772794586069178000,2.69917822265625,0.5137136578559875,-0.05822981894016266,0.06920100003480911
1772794586079222000,2.709221923828125,0.48527592420578003,-0.04369748383760452,0.1053619310259819
1772794586089267000,2.719266845703125,0.4368244707584381,0.0072043826803565025,0.12518370151519775
1772794586099311000,2.72931103515625,0.3712345361709595,0.07268005609512329,0.11880569905042648
1772794586109355000,2.73935498046875,0.2994709610939026,0.1421089768409729,0.08130306750535965
1772794586119400000,2.74939990234375,0.2589309811592102,0.1800347864627838,0.02968728356063366
1772794586129444000,2.759444091796875,0.2838691473007202,0.13900814950466156,-0.024211011826992035
1772794586139489000,2.769489013671875,0.33087581396102905,0.07765957713127136,-0.05793009325861931
1772794586149533000,2.779532958984375,0.37718120217323303,0.042345259338617325,-0.058584414422512054
1772794586159578000,2.789578125,0.39378732442855835,-0.0043348935432732105,-0.03724077343940735
1772794586169622000,2.7996220703125,0.36664342880249023,-0.06442496180534363,-0.00618238328024745
1772794586179667000,2.8096669921875,0.29854878783226013,-0.11484339088201523,0.025131065398454666
1772794586189711000,2.819711181640625,0.23308782279491425,-0.14111989736557007,0.057954929769039154
1772794586199756000,2.829756103515625,0.18707026541233063,-0.12655825912952423,0.07271070033311844
1772794586209800000,2.839800048828125,0.16544535756111145,-0.025776848196983337,0.10800112038850784
1772794586219844000,2.849843994140625,0.15605345368385315,0.10530127584934235,0.14015746116638184
1772794586229889000,2.859888916015625,0.14272284507751465,0.21855570375919342,0.1517629772424698
1772794586239933000,2.869932861328125,0.12415901571512222,0.3323323428630829,0.14789260923862457
1772794586249978000,2.87997802734375,0.11622311919927597,0.4343128800392151,0.13500118255615234
1772794586260022000,2.89002197265625,0.10615290701389313,0.4757375419139862,0.10619057714939117
1772794586270067000,2.90006689453125,0.10201799869537354,0.47684893012046814,0.0723414197564125
1772794586280111000,2.910111083984375,0.10040838271379471,0.4638492465019226,0.03133299574255943
1772794586290156000,2.920156005859375,0.11034555733203888,0.4288892447948456,-0.012043293565511703
1772794586300200000,2.930199951171875,0.11190351098775864,0.3748049736022949,-0.05560968071222305
1772794586310244000,2.940244140625,0.12607413530349731,0.31666576862335205,-0.09289391338825226
1772794586320289000,2.9502890625,0.1271069049835205,0.26812538504600525,-0.1254902184009552
1772794586330333000,2.9603330078125,0.12983304262161255,0.23105627298355103,-0.15576447546482086
1772794586340378000,2.970378173828125,0.13449011743068695,0.22616004943847656,-0.1843111664056778
1772794586350422000,2.980422119140625,0.14448939263820648,0.2257419377565384,-0.20559750497341156
1772794586360467000,2.990467041015625,0.15737003087997437,0.24853460490703583,-0.22924451529979706
1772794586370511000,3.000510986328125,0.18228213489055634,0.2701590955257416,-0.24065929651260376
1772794586380555000,3.010554931640625,0.23689211905002594,0.262349396944046,-0.22744521498680115
1772794586390600000,3.020599853515625,0.2984859347343445,0.2503589689731598,-0.18488597869873047
1772794586400644000,3.03064404296875,0.3662801682949066,0.22722595930099487,-0.1151827871799469
1772794586410689000,3.04068896484375,0.4235551059246063,0.20936110615730286,-0.03617333248257637
1772794586420733000,3.05073291015625,0.48010867834091187,0.21172384917736053,0.04510074853897095
1772794586430778000,3.060778076171875,0.5333359837532043,0.21674102544784546,0.11814373731613159
1772794586440822000,3.070822021484375,0.5808582305908203,0.23605933785438538,0.1820761263370514
1772794586450867000,3.080866943359375,0.6123234629631042,0.2822228968143463,0.21856693923473358
1772794586460911000,3.0909111328125,0.6417891979217529,0.3185601234436035,0.21804682910442352
1772794586470956000,3.1009560546875,0.6691356301307678,0.3521398603916168,0.18881605565547943
1772794586481000000,3.111,0.6933349370956421,0.37900078296661377,0.13163797557353973
1772794586491044000,3.121044189453125,0.7142772078514099,0.3758852481842041,0.051200028508901596
1772794586501089000,3.131089111328125,0.7286974191665649,0.3674619495868683,-0.03660811856389046
1772794586511133000,3.1411328125,0.7275289297103882,0.36032313108444214,-0.11865674704313278
1772794586521178000,3.15117822265625,0.7095528841018677,0.33153036236763,-0.19301965832710266
1772794586531222000,3.161221923828125,0.6769298911094666,0.296868234872818,-0.2517053186893463
1772794586541267000,3.171266845703125,0.6309773325920105,0.24872495234012604,-0.29852956533432007
1772794586551311000,3.18131103515625,0.5672284960746765,0.17335036396980286,-0.3507060110569
1772794586561355000,3.19135498046875,0.4918104410171509,0.0905042216181755,-0.38817641139030457
1772794586571400000,3.20139990234375,0.40370234847068787,0.008504582569003105,-0.4087015390396118
1772794586581444000,3.211444091796875,0.32335078716278076,-0.05928511917591095,-0.42512792348861694
1772794586591489000,3.221489013671875,0.2618538737297058,-0.12589594721794128,-0.43970754742622375
1772794586601533000,3.231532958984375,0.23468482494354248,-0.17852826416492462,-0.44907787442207336
1772794586611578000,3.241578125,0.24742470681667328,-0.18975821137428284,-0.4353160858154297
1772794586621622000,3.2516220703125,0.29269206523895264,-0.17289161682128906,-0.4186723828315735
1772794586631667200,3.261667236328125,0.35376212000846863,-0.13786344230175018,-0.390614777803421
1772794586641711000,3.271711181640625,0.4210415780544281,-0.1023792251944542,-0.35050490498542786
1772794586651755000,3.281755126953125,0.4944145679473877,-0.0776677057147026,-0.3017219305038452
1772794586661800200,3.29180029296875,0.5585490465164185,-0.055742960423231125,-0.25224706530570984
1772794586671844000,3.301843994140625,0.6102009415626526,-0.046407245099544525,-0.19694815576076508
1772794586681889000,3.311888916015625,0.644618570804596,-0.05810251832008362,-0.14447535574436188
1772794586691933000,3.321932861328125,0.6579956412315369,-0.1023532822728157,-0.10691259056329727
1772794586701977900,3.331977783203125,0.6334628462791443,-0.1400362104177475,-0.06312116980552673
1772794586712022000,3.34202197265625,0.5695174336433411,-0.1734299510717392,-0.015781261026859283
1772794586722067200,3.352067138671875,0.4861607253551483,-0.2113160789012909,0.0393749363720417
1772794586732111000,3.362111083984375,0.3927200436592102,-0.2421705573797226,0.08178753405809402
1772794586742155000,3.372155029296875,0.3059861958026886,-0.24587447941303253,0.1103251650929451
1772794586752200200,3.3822001953125,0.23631250858306885,-0.21708939969539642,0.11018984764814377
1772794586762244000,3.392244140625,0.17087703943252563,-0.15837016701698303,0.07806146889925003
1772794586772289000,3.4022890625,0.10777507722377777,-0.06675060093402863,0.022848643362522125
1772794586782333200,3.412333251953125,0.057134807109832764,0.023148132488131523,-0.0553356409072876
1772794586792377900,3.4223779296875,0.01003351528197527,0.07715527713298798,-0.14796631038188934
1772794586802422000,3.432422119140625,-0.047021251171827316,0.1060367226600647,-0.2236136794090271
1772794586812467200,3.44246728515625,-0.10770315676927567,0.11513334512710571,-0.2874545454978943
1772794586822511000,3.452510986328125,-0.17495037615299225,0.09532208740711212,-0.32807278633117676
1772794586832555000,3.462554931640625,-0.2373688817024231,0.05268721282482147,-0.3460727334022522
1772794586842600200,3.47260009765625,-0.2970343232154846,0.011161341331899166,-0.34508949518203735
1772794586852644000,3.48264404296875,-0.34624746441841125,-0.040809325873851776,-0.32435163855552673
1772794586862689300,3.492689208984375,-0.38338178396224976,-0.11118442565202713,-0.3002263307571411
1772794586872733200,3.502733154296875,-0.40568894147872925,-0.159197136759758,-0.26081979274749756
1772794586882778000,3.512778076171875,-0.40750256180763245,-0.16684146225452423,-0.20809215307235718
1772794586892822300,3.522822265625,-0.38186466693878174,-0.1482744812965393,-0.14783626794815063
1772794586902867200,3.5328671875,-0.35231342911720276,-0.12986858189105988,-0.10278704762458801
1772794586912911000,3.5429111328125,-0.3489210903644562,-0.09841904789209366,-0.09162919968366623
1772794586922955000,3.552955078125,-0.35296642780303955,-0.06616629660129547,-0.1071181446313858
1772794586933000200,3.563000244140625,-0.34235507249832153,-0.04945208877325058,-0.12465128302574158
1772794586943044000,3.573044189453125,-0.3324528932571411,-0.02731242962181568,-0.11963894963264465
1772794586953089300,3.58308935546875,-0.31613266468048096,-0.0013509877026081085,-0.0866832360625267
1772794586963133200,3.59313330078125,-0.2975166440010071,0.018181167542934418,-0.040293365716934204
1772794586973178000,3.60317822265625,-0.27316388487815857,0.07631035894155502,0.04371141269803047
1772794586983222300,3.61322216796875,-0.26236823201179504,0.10673670470714569,0.13278430700302124
1772794586993266200,3.62326611328125,-0.2706944942474365,0.09556209295988083,0.21874098479747772
1772794587003311000,3.63331103515625,-0.294421911239624,0.053521428257226944,0.28813737630844116
1772794587013355300,3.643355224609375,-0.32326215505599976,-0.0009751045145094395,0.3384125232696533
1772794587023400200,3.653400146484375,-0.34453442692756653,-0.039445266127586365,0.36630406975746155
1772794587033444000,3.663444091796875,-0.3792553246021271,-0.10028837621212006,0.36517488956451416
1772794587043489300,3.6734892578125,-0.4456055760383606,-0.17613066732883453,0.32043007016181946
1772794587053533200,3.683533203125,-0.5255725979804993,-0.20695042610168457,0.2572418451309204
1772794587063578000,3.693578125,-0.5868034958839417,-0.28497573733329773,0.16986697912216187
1772794587073622300,3.703622314453125,-0.6252321004867554,-0.28314483165740967,0.09412805736064911
1772794587083666200,3.713666259765625,-0.6249799132347107,-0.23499596118927002,0.040781211107969284
1772794587093711000,3.723711181640625,-0.5907350182533264,-0.1570730358362198,0.020555928349494934
1772794587103755300,3.73375537109375,-0.5339365005493164,-0.09264131635427475,0.02733154222369194
1772794587113800000,3.743800048828125,-0.46690523624420166,-0.0059911105781793594,0.055997539311647415
1772794587123844000,3.753843994140625,-0.3851850926876068,0.09874355792999268,0.10575311630964279
1772794587133889300,3.76388916015625,-0.2843645215034485,0.20009344816207886,0.16658148169517517
1772794587143933200,3.77393310546875,-0.17524601519107819,0.23983021080493927,0.22296646237373352
1772794587153978000,3.78397802734375,-0.09006115049123764,0.23823635280132294,0.27709144353866577
1772794587164022300,3.794022216796875,-0.030695291236042976,0.2259213626384735,0.3207553029060364
1772794587174066200,3.804066162109375,0.013094613328576088,0.1896960586309433,0.3578850328922272
1772794587184111000,3.814111083984375,0.05759177356958389,0.1050834208726883,0.3861182630062103
1772794587194155300,3.8241552734375,0.08015035837888718,0.04120787978172302,0.4138033092021942
1772794587204200200,3.8342001953125,0.10321732610464096,-0.009513089433312416,0.43725696206092834
1772794587214244000,3.844244140625,0.11804178357124329,-0.06640732288360596,0.447767972946167
1772794587224289300,3.854289306640625,0.12059894949197769,-0.1315610259771347,0.4320228397846222
1772794587234333000,3.8643330078125,0.11472804099321365,-0.17039650678634644,0.39676201343536377
1772794587244378000,3.874378173828125,0.11089149117469788,-0.19031669199466705,0.3411988615989685
1772794587254422300,3.88442236328125,0.1039734035730362,-0.1964746117591858,0.28357619047164917
1772794587264466000,3.8944658203125,0.0933615118265152,-0.18321286141872406,0.20941384136676788
1772794587274511000,3.904510986328125,0.07687468826770782,-0.15385860204696655,0.13011811673641205
1772794587284555300,3.91455517578125,0.06115990877151489,-0.11402810364961624,0.05693124607205391
1772794587294600200,3.92460009765625,0.05596319958567619,-0.07504028081893921,-0.008037818595767021
1772794587304644000,3.93464404296875,0.05918535962700844,-0.02829167991876602,-0.06008317321538925
1772794587314689300,3.944689208984375,0.06569889932870865,0.01600499637424946,-0.09604547917842865
1772794587324733200,3.954733154296875,0.07891270518302917,0.05760357156395912,-0.13637560606002808
1772794587334777000,3.964777099609375,0.09859495609998703,0.09790371358394623,-0.18361864984035492
1772794587344822300,3.974822265625,0.12128588557243347,0.1289612203836441,-0.23567332327365875
1772794587354865200,3.984865234375,0.15016509592533112,0.11682162433862686,-0.3064166009426117
1772794587364910000,3.99491015625,0.17902949452400208,0.05675482377409935,-0.36432409286499023
1772794587374954200,4.004954345703125,0.21400102972984314,-0.011574060656130314,-0.3920530080795288
1772794587384999000,4.0149990234375,0.23923368752002716,-0.06642799079418182,-0.3815476596355438
1772794587395043000,4.02504296875,0.2547418475151062,-0.13917218148708344,-0.35812732577323914
1772794587405087200,4.035087158203125,0.2867455780506134,-0.21734075248241425,-0.31306079030036926
1772794587415132200,4.045132080078125,0.3299018442630768,-0.2960626184940338,-0.2651391923427582
1772794587425176000,4.055176025390625,0.3728253245353699,-0.3229357898235321,-0.19595053791999817
1772794587435221200,4.06522119140625,0.4071632921695709,-0.2903861403465271,-0.12225600332021713
1772794587445265200,4.07526513671875,0.4256403148174286,-0.27008354663848877,-0.06539405137300491
1772794587455310000,4.08531005859375,0.44202518463134766,-0.2562827169895172,-0.03413419798016548
1772794587465354200,4.095354248046875,0.4588824510574341,-0.2266950011253357,-0.025413943454623222
1772794587475398100,4.105398193359375,0.48606663942337036,-0.17435529828071594,-0.023631535470485687
1772794587485443000,4.115443115234375,0.5185273885726929,-0.12857769429683685,-0.03846454247832298
1772794587495487200,4.1254873046875,0.5463164448738098,-0.10820791870355606,-0.05534825101494789
1772794587505532200,4.1355322265625,0.5540412068367004,-0.09272536635398865,-0.06788375228643417
1772794587515576000,4.145576171875,0.5510240197181702,-0.09011851251125336,-0.08258213847875595
1772794587525621200,4.155621337890625,0.5470085144042969,-0.06905903667211533,-0.07735542207956314
1772794587535665200,4.1656650390625,0.5540781021118164,-0.05703645944595337,-0.06607265025377274
1772794587545710000,4.1757099609375,0.568459689617157,-0.0673077404499054,-0.05660298839211464
1772794587555754200,4.185754150390625,0.5850710272789001,-0.08327727019786835,-0.05113619565963745
1772794587565798100,4.195798095703125,0.5989740490913391,-0.09122174978256226,-0.06013794615864754
1772794587575843000,4.205843017578125,0.6033322215080261,-0.09670275449752808,-0.07722987234592438
1772794587585887200,4.21588720703125,0.6088268756866455,-0.12059956043958664,-0.09021811187267303
1772794587595932200,4.22593212890625,0.6037890315055847,-0.11745394766330719,-0.10113883763551712
1772794587605976000,4.23597607421875,0.5975332856178284,-0.1340177357196808,-0.09774544090032578
1772794587616021200,4.246021240234375,0.5786178112030029,-0.1506529152393341,-0.08382240682840347
1772794587626065200,4.256065185546875,0.5487709641456604,-0.1990438848733902,-0.07145681232213974
1772794587636110000,4.266110107421875,0.5184086561203003,-0.19340436160564423,-0.031022872775793076
1772794587646154200,4.276154296875,0.5004053711891174,-0.18373681604862213,0.014471108093857765
1772794587656198100,4.2861982421875,0.4867570102214813,-0.17637163400650024,0.0555538572371006
1772794587666243000,4.2962431640625,0.4703682065010071,-0.15480375289916992,0.08879943192005157
1772794587676287200,4.306287353515625,0.4597819745540619,-0.11084568500518799,0.10358379781246185
1772794587686332200,4.316332275390625,0.4606704115867615,-0.04478836804628372,0.10211453586816788
1772794587696376000,4.3263759765625,0.4738050103187561,0.025700615718960762,0.08470045030117035
1772794587706421200,4.336421142578125,0.5000408887863159,0.08389467746019363,0.07206348329782486
1772794587716465200,4.346465087890625,0.523220956325531,0.13500255346298218,0.06775404512882233
1772794587726509000,4.356509033203125,0.5496272444725037,0.18606466054916382,0.07995983958244324
1772794587736554200,4.36655419921875,0.5724137425422668,0.2184932827949524,0.09212373942136765
1772794587746598100,4.37659814453125,0.5901445150375366,0.21610362827777863,0.10285547375679016
1772794587756643000,4.38664306640625,0.5946080088615417,0.19047991931438446,0.10097911953926086
1772794587766687200,4.396687255859375,0.588249683380127,0.1369493156671524,0.08929476141929626
1772794587776732200,4.406732177734375,0.5731936097145081,0.07760663330554962,0.08401157706975937
1772794587786776000,4.416776123046875,0.5552992820739746,0.022928470745682716,0.08406004309654236
1772794587796821000,4.426821044921875,0.543475329875946,-0.01809001713991165,0.08770053833723068
1772794587806865200,4.436865234375,0.5412054657936096,-0.024493055418133736,0.0957464799284935
1772794587816908800,4.44690869140625,0.5360036492347717,0.010358834639191628,0.1042066141963005
1772794587826954000,4.4569541015625,0.5461534857749939,0.06340500712394714,0.1026606485247612
1772794587836998000,4.466997802734375,0.5704097747802734,0.1110580563545227,0.08634503930807114
1772794587847042800,4.477042724609375,0.5986683368682861,0.13176333904266357,0.06040903925895691
1772794587857087000,4.4870869140625,0.6167792677879333,0.12725093960762024,0.03488840162754059
1772794587867132000,4.4971318359375,0.6343966126441956,0.10146089643239975,0.0294752586632967
1772794587877175800,4.50717578125,0.6393569707870483,0.05121215060353279,0.05256883427500725
1772794587887220000,4.517219970703125,0.639906644821167,0.0021479353308677673,0.09405528753995895
1772794587897265000,4.527264892578125,0.6352944374084473,-0.048801857978105545,0.13296496868133545
1772794587907308800,4.537308837890625,0.6262186765670776,-0.09348730742931366,0.16658098995685577
1772794587917354000,4.54735400390625,0.6132714152336121,-0.1409228891134262,0.18331778049468994
1772794587927398000,4.55739794921875,0.5948016047477722,-0.16193629801273346,0.1976996511220932
1772794587937443000,4.567443115234375,0.5872350335121155,-0.11605919152498245,0.22404612600803375
1772794587947487000,4.577487060546875,0.5834653377532959,-0.06390517950057983,0.25335127115249634
1772794587957532000,4.587531982421875,0.5856537222862244,0.009972989559173584,0.2988029718399048
1772794587967575800,4.597575927734375,0.6034055352210999,0.11666667461395264,0.3660837411880493
1772794587977620000,4.607619873046875,0.6223128437995911,0.19403943419456482,0.4263218641281128
1772794587987665000,4.617664794921875,0.6299169659614563,0.2623969316482544,0.4771386981010437
1772794587997708800,4.627708740234375,0.6483493447303772,0.3053288161754608,0.5017440319061279
1772794588007753700,4.637753662109375,0.6753119826316833,0.31419581174850464,0.5024330019950867
1772794588017798000,4.6477978515625,0.707356333732605,0.31533417105674744,0.485446959733963
1772794588027843000,4.657843017578125,0.7270421385765076,0.2967442572116852,0.45738497376441956
1772794588037887000,4.667886962890625,0.7341262698173523,0.26671651005744934,0.4246582090854645
1772794588047931000,4.677930908203125,0.7237141132354736,0.22890684008598328,0.3937913775444031
1772794588057976000,4.68797607421875,0.7069452404975891,0.1806495636701584,0.3608238399028778
1772794588068020000,4.69802001953125,0.6812872886657715,0.14700637757778168,0.3407585024833679
1772794588078065000,4.70806494140625,0.6459409594535828,0.11829237639904022,0.32579585909843445
1772794588088109000,4.718109130859375,0.607140064239502,0.118830606341362,0.31257274746894836
1772794588098153700,4.72815380859375,0.577501118183136,0.14074212312698364,0.3005676567554474
1772794588108198000,4.738197998046875,0.556281566619873,0.15738022327423096,0.28116706013679504
1772794588118243000,4.7482431640625,0.5420742630958557,0.17112582921981812,0.2605084180831909
1772794588128286700,4.75828662109375,0.5469409227371216,0.20820076763629913,0.24282261729240417
1772794588138331000,4.768330810546875,0.5669132471084595,0.244432732462883,0.22887173295021057
1772794588148376000,4.7783759765625,0.601918637752533,0.2685045003890991,0.21699270606040955
1772794588158420000,4.788419921875,0.6364614367485046,0.2812780737876892,0.2036667764186859
1772794588168465000,4.79846484375,0.6715688109397888,0.25988519191741943,0.1880073845386505
1772794588178509000,4.808509033203125,0.7022867798805237,0.22356067597866058,0.19124078750610352
1772794588188553700,4.8185537109375,0.7248522639274597,0.14830240607261658,0.21083633601665497
1772794588198598000,4.828597900390625,0.752191960811615,0.09377824515104294,0.2670004963874817
1772794588208642000,4.83864208984375,0.7742538452148438,0.03763188421726227,0.32722947001457214
1772794588218686700,4.848686767578125,0.794188916683197,-0.008374758996069431,0.35401928424835205
1772794588228731000,4.85873095703125,0.8122262358665466,-0.0297106746584177,0.3345033824443817
1772794588238776000,4.868776123046875,0.8384935259819031,-0.04407725855708122,0.2769142985343933
1772794588248819700,4.87881982421875,0.8552176356315613,-0.0445326566696167,0.1813446283340454
1772794588258865000,4.888864990234375,0.8570044040679932,-0.05491781234741211,0.056738127022981644
1772794588268909000,4.898908935546875,0.8478487133979797,-0.08713699877262115,-0.0887966975569725
1772794588278953700,4.90895361328125,0.8291834592819214,-0.14061422646045685,-0.22938242554664612
1772794588288998000,4.918997802734375,0.8038696050643921,-0.1714448481798172,-0.3330925703048706
1772794588299042000,4.9290419921875,0.7644250392913818,-0.1780737042427063,-0.40768349170684814
1772794588309086700,4.939086669921875,0.7220578789710999,-0.14968600869178772,-0.4386584460735321
1772794588319131000,4.949130859375,0.6828417181968689,-0.0959286242723465,-0.4441721439361572
1772794588329176000,4.959176025390625,0.6586468815803528,-0.023936722427606583,-0.4372159540653229
1772794588339219700,4.9692197265625,0.6413637399673462,0.06665389239788055,-0.42478111386299133
1772794588349265000,4.979264892578125,0.6295038461685181,0.1732490509748459,-0.4028603434562683
1772794588359309000,4.98930908203125,0.6137596368789673,0.26117652654647827,-0.38027384877204895
1772794588369354000,4.99935400390625,0.5974246263504028,0.3163937032222748,-0.3574678897857666
1772794588379398000,5.00939794921875,0.5851610898971558,0.34560301899909973,-0.33640146255493164
1772794588389442000,5.019442138671875,0.5783059000968933,0.3430674374103546,-0.3284306228160858
1772794588399487000,5.029487060546875,0.5756469964981079,0.33038362860679626,-0.329153448343277
1772794588409531000,5.03953076171875,0.5830841064453125,0.2927539646625519,-0.3296179175376892
1772794588419575800,5.049575927734375,0.5836021900177002,0.23372027277946472,-0.3354673683643341
1772794588429619700,5.05961962890625,0.5705729126930237,0.16362613439559937,-0.33260661363601685
1772794588439665000,5.069664794921875,0.5566217303276062,0.08961524069309235,-0.31310316920280457
1772794588449709000,5.079708984375,0.5323704481124878,0.020315000787377357,-0.27280527353286743
1772794588459752700,5.089752685546875,0.5051542520523071,-0.03254523500800133,-0.21901558339595795
1772794588469798000,5.0997978515625,0.4809596538543701,-0.07062550634145737,-0.16932979226112366
1772794588479842000,5.109842041015625,0.4476141035556793,-0.0855853408575058,-0.1221824362874031
1772794588489887000,5.119886962890625,0.4202812910079956,-0.07081464678049088,-0.0941699743270874
1772794588499931000,5.129930908203125,0.3999476730823517,-0.03144044801592827,-0.08532501757144928
1772794588509975800,5.139975830078125,0.3833750784397125,0.02205127477645874,-0.09899716079235077
1772794588520020000,5.15002001953125,0.36156588792800903,0.04738922789692879,-0.13152910768985748
1772794588530065000,5.16006494140625,0.3370749354362488,0.06509072333574295,-0.16551662981510162
1772794588540108800,5.17010888671875,0.3175627887248993,0.08244926482439041,-0.18464989960193634
1772794588550153000,5.180153076171875,0.3065849840641022,0.09081479161977768,-0.1879170686006546
1772794588560198000,5.190197998046875,0.2904896140098572,0.09886999428272247,-0.17418895661830902
1772794588570242000,5.200241943359375,0.2704341411590576,0.0815139040350914,-0.16518746316432953
1772794588580287000,5.210286865234375,0.25169268250465393,0.04998075217008591,-0.14509259164333344
1772794588590331000,5.220330810546875,0.24466906487941742,0.016785187646746635,-0.12656675279140472
1772794588600375800,5.230375732421875,0.2478409856557846,-0.0036277754697948694,-0.10435938835144043
1772794588610420000,5.240419921875,0.2658593952655792,-0.04006248340010643,-0.09756273776292801
1772794588620463900,5.2504638671875,0.2836180329322815,-0.07971237599849701,-0.08362376689910889
1772794588630508800,5.2605087890625,0.295194536447525,-0.11546718329191208,-0.06899422407150269
1772794588640553000,5.270552978515625,0.30673107504844666,-0.13143175840377808,-0.054537780582904816
1772794588650598000,5.280597900390625,0.3073497414588928,-0.14937826991081238,-0.03432465344667435
1772794588660641800,5.290641845703125,0.3003334701061249,-0.16116675734519958,-0.01361088827252388
1772794588670687000,5.30068701171875,0.2784438729286194,-0.15976805984973907,0.009778058156371117
1772794588680731000,5.31073095703125,0.25024738907814026,-0.14721179008483887,0.03386954590678215
1772794588690775000,5.320775146484375,0.2242477536201477,-0.12176821380853653,0.05320782586932182
1772794588700820000,5.330820068359375,0.20246511697769165,-0.08971334993839264,0.06217845156788826
1772794588710864000,5.34086376953125,0.1859266310930252,-0.044438544660806656,0.060212504118680954
1772794588720908800,5.35090869140625,0.16395853459835052,-0.0003753672353923321,0.050578925758600235
1772794588730953000,5.360952880859375,0.14171580970287323,0.04493379220366478,0.030716270208358765
1772794588740998000,5.370997802734375,0.11776573956012726,0.0958637073636055,0.020536180585622787
1772794588751041800,5.381041748046875,0.09714435040950775,0.12513771653175354,0.005295441951602697
1772794588761087000,5.3910869140625,0.07900823652744293,0.0885050818324089,-0.008270920254290104
1772794588771131000,5.401130859375,0.06932312250137329,0.015373608097434044,0.009605281986296177
1772794588781174800,5.4111748046875,0.07404359430074692,-0.0510195828974247,0.05503113195300102
1772794588791220000,5.421219970703125,0.06681471318006516,-0.11669552326202393,0.12470289319753647
1772794588801263900,5.431263916015625,0.06578752398490906,-0.15656208992004395,0.20046034455299377
1772794588811308800,5.441308837890625,0.09344391524791718,-0.1794663518667221,0.268100380897522
1772794588821353000,5.45135302734375,0.13210588693618774,-0.22063177824020386,0.30253785848617554
1772794588831398000,5.46139794921875,0.17867232859134674,-0.26668980717658997,0.2945733964443207
1772794588841441800,5.47144189453125,0.23161105811595917,-0.32078495621681213,0.2620985209941864
1772794588851486000,5.48148583984375,0.2869794964790344,-0.3707304298877716,0.21631640195846558
1772794588861531100,5.49153125,0.33302584290504456,-0.41213399171829224,0.16703560948371887
1772794588871574800,5.50157470703125,0.35508638620376587,-0.4466477632522583,0.13255007565021515
1772794588881620000,5.511619873046875,0.36205002665519714,-0.43585097789764404,0.1300772875547409
1772794588891664000,5.521663818359375,0.36109769344329834,-0.43621131777763367,0.15662793815135956
1772794588901708800,5.531708740234375,0.335369735956192,-0.4046631455421448,0.19963571429252625
1772794588911753000,5.5417529296875,0.30998262763023376,-0.3067261874675751,0.25301849842071533
1772794588921798000,5.5517978515625,0.31520938873291016,-0.14495576918125153,0.3024127781391144
1772794588931841800,5.561841796875,0.3463505208492279,0.040875617414712906,0.31866419315338135
1772794588941886000,5.571885986328125,0.3975331485271454,0.1979971081018448,0.3127919137477875
1772794588951931000,5.581930908203125,0.44368067383766174,0.3140248954296112,0.2876141369342804
1772794588961974800,5.591974853515625,0.4875149726867676,0.3898468613624573,0.2507217228412628
1772794588972020000,5.60202001953125,0.527820885181427,0.40254881978034973,0.22444139420986176
1772794588982064000,5.612064208984375,0.5538825392723083,0.3622910678386688,0.21041110157966614
1772794588992108800,5.62210888671875,0.5697177052497864,0.32755202054977417,0.2362046241760254
1772794589002153000,5.632153076171875,0.5846389532089233,0.2562512755393982,0.2841329276561737
1772794589012197000,5.642197021484375,0.5877066254615784,0.15750311315059662,0.34024521708488464
1772794589022241800,5.65224169921875,0.5848720073699951,0.06190788000822067,0.39179039001464844
1772794589032286000,5.662285888671875,0.5714283585548401,-0.0033166666980832815,0.41095155477523804
1772794589042331000,5.672330810546875,0.5551052689552307,-0.03919147327542305,0.4182767868041992
1772794589052374800,5.682374755859375,0.529299795627594,-0.046450451016426086,0.4144061207771301
1772794589062420000,5.692419921875,0.49446719884872437,-0.03090590052306652,0.3952367603778839
1772794589072464000,5.7024638671875,0.4438074827194214,-0.0067358496598899364,0.356412410736084
1772794589082507800,5.7125078125,0.39548787474632263,0.030265579000115395,0.29084110260009766
1772794589092553000,5.722552978515625,0.3613743782043457,0.08439725637435913,0.22697585821151733
1772794589102597000,5.73259716796875,0.3346197307109833,0.16257648169994354,0.16719534993171692
1772794589112641800,5.742641845703125,0.3190021514892578,0.24518506228923798,0.14048118889331818
1772794589122686000,5.75268603515625,0.32004913687705994,0.3179558515548706,0.13256394863128662
1772794589132731000,5.76273095703125,0.3286796510219574,0.36814552545547485,0.14726698398590088
1772794589142774800,5.77277490234375,0.35159868001937866,0.3984528183937073,0.1793013960123062
1772794589152819000,5.78281884765625,0.3742097318172455,0.42264658212661743,0.22944818437099457
1772794589162863900,5.79286376953125,0.40215620398521423,0.46759140491485596,0.2808285355567932
1772794589172907800,5.80290771484375,0.4243136942386627,0.5161136984825134,0.32122868299484253
1772794589182953000,5.812952880859375,0.43704280257225037,0.5380976796150208,0.33217042684555054
1772794589192996900,5.822996826171875,0.439679354429245,0.5343402028083801,0.3077141046524048
1772794589203041800,5.833041748046875,0.4526272416114807,0.493329793214798,0.27207067608833313
1772794589213086000,5.8430859375,0.4575176239013672,0.4250447750091553,0.23110565543174744
1772794589223130000,5.853130126953125,0.47195395827293396,0.3465082049369812,0.19161203503608704
1772794589233174800,5.8631748046875,0.47995516657829285,0.2404445856809616,0.1597164273262024
1772794589243219000,5.873218994140625,0.4793979823589325,0.13393141329288483,0.13123025000095367
1772794589253264000,5.883263916015625,0.4694705307483673,0.05205892026424408,0.10271045565605164
1772794589263307800,5.893307861328125,0.46921250224113464,-0.007191832177340984,0.07014632970094681
1772794589273353000,5.90335302734375,0.4779830873012543,-0.048816241323947906,0.01683996245265007
1772794589283396900,5.91339697265625,0.49561622738838196,-0.08678752928972244,-0.037123482674360275
1772794589293442000,5.923442138671875,0.5063319802284241,-0.126913383603096,-0.09013370424509048
1772794589303486000,5.93348583984375,0.5164835453033447,-0.14599494636058807,-0.1451401710510254
1772794589313529900,5.94352978515625,0.5180339813232422,-0.14134745299816132,-0.19455139338970184
1772794589323575000,5.953574951171875,0.5265322327613831,-0.1430417001247406,-0.24638217687606812
1772794589333619000,5.963618896484375,0.5437713861465454,-0.13821391761302948,-0.265964150428772
1772794589343663900,5.973663818359375,0.5631830096244812,-0.06494446098804474,-0.2494029998779297
1772794589353707800,5.983707763671875,0.585913896560669,0.0473911315202713,-0.21266628801822662
1772794589363753000,5.9937529296875,0.6219396591186523,0.17172949016094208,-0.16897307336330414
1772794589373796900,6.003796875,0.6746190786361694,0.305454283952713,-0.13253676891326904
1772794589383840800,6.0138408203125,0.7267314791679382,0.4291192591190338,-0.11658180505037308
1772794589393886000,6.023885986328125,0.7878965735435486,0.5189322233200073,-0.10916464030742645
1772794589403929900,6.033929931640625,0.8587088584899902,0.5722664594650269,-0.10165736824274063
1772794589413975000,6.04397509765625,0.9159452319145203,0.5773128867149353,-0.09999262541532516
1772794589424019000,6.05401904296875,0.9594348073005676,0.5503711104393005,-0.09697873890399933
1772794589434064000,6.06406396484375,0.9817914962768555,0.496094286441803,-0.09752894937992096
1772794589444108000,6.07410791015625,0.9958930611610413,0.4298209249973297,-0.1050313264131546
1772794589454152000,6.08415185546875,0.9988504648208618,0.363302618265152,-0.10828624665737152
1772794589464196900,6.09419677734375,0.9983959197998047,0.30960190296173096,-0.10306146740913391
1772794589474241000,6.104240966796875,0.9929391145706177,0.2512621283531189,-0.10207290202379227
1772794589484286000,6.114285888671875,0.9859932661056519,0.2177240550518036,-0.10709497332572937
1772794589494329900,6.124329833984375,0.9806725382804871,0.17357656359672546,-0.12308379262685776
1772794589504375000,6.134375,0.9870455861091614,0.15224836766719818,-0.1564619243144989
1772794589514419000,6.1444189453125,0.996414065361023,0.15076763927936554,-0.2093358039855957
1772794589524463900,6.1544638671875,1.0001929998397827,0.1426706314086914,-0.25557050108909607
1772794589534508000,6.164508056640625,0.9957492351531982,0.11653649806976318,-0.2893574833869934
1772794589544552000,6.174552001953125,0.9899978041648865,0.10140739381313324,-0.29803919792175293
1772794589554596900,6.184596923828125,0.9893383979797363,0.08705268800258636,-0.27930545806884766
1772794589564641000,6.19464111328125,0.9891716837882996,0.07117412984371185,-0.23773188889026642
1772794589574685700,6.204685791015625,0.9843335151672363,0.07788395881652832,-0.18533658981323242
1772794589584729900,6.214729736328125,0.9788064956665039,0.10909876972436905,-0.11235471069812775
1772794589594775000,6.224775146484375,0.9794685244560242,0.1200997531414032,-0.044357020407915115
1772794589604819000,6.23481884765625,0.9753901958465576,0.11826419085264206,0.017167704179883003
1772794589614862800,6.24486279296875,0.9837162494659424,0.1058994010090828,0.06993664056062698
1772794589624908000,6.254907958984375,0.9978679418563843,0.11398810893297195,0.11529654264450073
1772794589634952000,6.264951904296875,1.0335047245025635,0.15297040343284607,0.15710924565792084
1772794589644996900,6.274996826171875,1.085568904876709,0.1422169804573059,0.16764052212238312
1772794589655041000,6.285041015625,1.1425706148147583,0.15744014084339142,0.17311064898967743
1772794589665085700,6.295085693359375,1.198785424232483,0.1594671905040741,0.174254909157753
1772794589675129900,6.3051298828125,1.23965322971344,0.1640198677778244,0.1741262674331665
1772794589685174000,6.315174072265625,1.2763820886611938,0.16233572363853455,0.17653320729732513
1772794589695218700,6.32521875,1.2885432243347168,0.1450512707233429,0.165021151304245
1772794589705262800,6.335262939453125,1.30450439453125,0.130331888794899,0.1556817889213562
1772794589715308000,6.34530810546875,1.309583067893982,0.11183543503284454,0.14135292172431946
1772794589725352000,6.35535205078125,1.3171941041946411,0.11746247857809067,0.13972462713718414
1772794589735396900,6.36539697265625,1.3294222354888916,0.12738382816314697,0.14627014100551605
1772794589745441000,6.37544091796875,1.34868323802948,0.14265139400959015,0.15140987932682037
1772794589755485000,6.38548486328125,1.368350625038147,0.15439513325691223,0.1520780622959137
1772794589765529900,6.39552978515625,1.373357892036438,0.11574739962816238,0.1301143616437912
1772794589775574000,6.405573974609375,1.3609638214111328,0.09533347189426422,0.09865709394216537
1772794589785619000,6.415618896484375,1.3386328220367432,0.03392614796757698,0.06724338978528976
1772794589795662800,6.425662841796875,1.3133304119110107,-0.040477778762578964,0.0526958703994751
1772794589805708000,6.4357080078125,1.28611421585083,-0.10262546688318253,0.0628509446978569
1772794589815751700,6.445751708984375,1.2577499151229858,-0.13111411035060883,0.10340875387191772
1772794589825795600,6.455795654296875,1.23972487449646,-0.11667758226394653,0.1777809113264084
1772794589835840500,6.465840576171875,1.243666648864746,-0.05408370494842529,0.26953399181365967
1772794589845884700,6.475884765625,1.263472318649292,0.02678206004202366,0.3477495312690735
1772794589855929600,6.4859296875,1.30420982837677,0.1363234668970108,0.4131929874420166
1772794589865973500,6.495973388671875,1.3522460460662842,0.24334712326526642,0.4570813477039337
1772794589876018400,6.506018310546875,1.397452473640442,0.31245189905166626,0.4728637635707855
1772794589886062600,6.5160625,1.4392286539077759,0.3617056608200073,0.4338540732860565
1772794589896106500,6.5261064453125,1.4862339496612549,0.3865593373775482,0.3742711842060089
1772794589906151400,6.5361513671875,1.532773494720459,0.40919333696365356,0.3119768798351288
1772794589916195600,6.546195556640625,1.541793942451477,0.38500863313674927,0.24838484823703766
1772794589926240800,6.55624072265625,1.547751545906067,0.3566456437110901,0.20809529721736908
1772794589936284400,6.566284423828125,1.5499707460403442,0.34049251675605774,0.2006557583808899
1772794589946329600,6.57632958984375,1.5377819538116455,0.3292539715766907,0.19636516273021698
1772794589956373500,6.58637353515625,1.5117236375808716,0.30680832266807556,0.18524938821792603
1772794589966417700,6.596417724609375,1.492122769355774,0.302234947681427,0.1634635478258133
1772794589976462600,6.606462646484375,1.472614049911499,0.31886026263237,0.12538540363311768
1772794589986506500,6.616506591796875,1.4623184204101562,0.34417450428009033,0.07879333198070526
1772794589996551400,6.626551513671875,1.457048773765564,0.38554033637046814,0.03721046820282936
1772794590006595600,6.636595703125,1.466874122619629,0.42809972167015076,0.003981704358011484
1772794590016640800,6.646640869140625,1.4835880994796753,0.47154465317726135,-0.012852403335273266
1772794590026684400,6.656684326171875,1.504992127418518,0.5119004249572754,-0.0174367967993021
1772794590036728600,6.666728515625,1.539285659790039,0.5581235289573669,-0.012206349521875381
1772794590046773800,6.676773681640625,1.5720256567001343,0.5775835514068604,-0.008193045854568481
1772794590056817400,6.6868173828125,1.5935412645339966,0.5706912875175476,-0.013365703634917736
1772794590066862600,6.696862548828125,1.6127091646194458,0.5349475145339966,-0.027202419936656952
1772794590076906800,6.70690673828125,1.638047218322754,0.5012041926383972,-0.04525865241885185
1772794590086951400,6.716951416015625,1.6493723392486572,0.46978482604026794,-0.06316209584474564
1772794590096995600,6.72699560546875,1.648701548576355,0.42798277735710144,-0.07058219611644745
1772794590107039500,6.73703955078125,1.6389505863189697,0.3977919816970825,-0.07418671250343323
1772794590117084400,6.74708447265625,1.6248621940612793,0.36945194005966187,-0.06437855213880539
1772794590127128600,6.757128662109375,1.614023208618164,0.35556861758232117,-0.05148695409297943
1772794590137173800,6.767173828125,1.6006866693496704,0.3463655114173889,-0.034058429300785065
1772794590147217400,6.777217529296875,1.5846933126449585,0.31491589546203613,-0.021038128063082695
1772794590157262600,6.7872626953125,1.5599957704544067,0.28027963638305664,-0.023278113454580307
1772794590167306800,6.797306640625,1.5185073614120483,0.22705331444740295,-0.030197162181138992
1772794590177351400,6.807351318359375,1.4703556299209595,0.1581735908985138,-0.04130973294377327
1772794590187395600,6.8173955078125,1.4133849143981934,0.07876279950141907,-0.05052737146615982
1772794590197439700,6.827439697265625,1.3469436168670654,0.000768137164413929,-0.04446335509419441
1772794590207484400,6.837484375,1.2908515930175781,-0.056898728013038635,-0.015478182584047318
1772794590217528600,6.847528564453125,1.237656593322754,-0.08323952555656433,0.025209058076143265
1772794590227573800,6.85757373046875,1.2002772092819214,-0.040037088096141815,0.08283336460590363
1772794590237617400,6.867617431640625,1.1817443370819092,0.014322826638817787,0.1421763151884079
1772794590247662600,6.87766259765625,1.1701171398162842,0.1142311543226242,0.18135397136211395
1772794590257706800,6.887706787109375,1.1565781831741333,0.2197573184967041,0.18555350601673126
1772794590267750400,6.89775048828125,1.1451891660690308,0.2937387526035309,0.1486392766237259
1772794590277795600,6.907795654296875,1.1317589282989502,0.33850517868995667,0.08369462937116623
1772794590287839700,6.91783984375,1.1005016565322876,0.35055840015411377,0.019596805796027184
1772794590297884400,6.927884521484375,1.0523210763931274,0.3456597924232483,-0.03144480660557747
1772794590307928600,6.937928466796875,0.9994610548019409,0.341930091381073,-0.04102450609207153
1772794590317972700,6.94797265625,0.9478665590286255,0.3313823640346527,-0.019991928711533546
1772794590328017400,6.958017333984375,0.894933819770813,0.3133526146411896,0.014477788470685482
1772794590338061600,6.9680615234375,0.8480755090713501,0.28171879053115845,0.0374763123691082
1772794590348106500,6.9781064453125,0.8087949752807617,0.25571349263191223,0.0428498201072216
1772794590358150400,6.988150390625,0.7908710837364197,0.2507728040218353,0.03722069784998894
1772794590368195600,6.998195556640625,0.7793766260147095,0.25661298632621765,0.008062123320996761
1772794590378239700,7.00823974609375,0.772017776966095,0.2739296853542328,-0.031245069578289986
1772794590388283400,7.018283447265625,0.7636787295341492,0.2847762107849121,-0.06904727220535278
1772794590398328600,7.02832861328125,0.7480223178863525,0.28452613949775696,-0.09452679753303528
1772794590408372700,7.038372802734375,0.7315791249275208,0.2701629400253296,-0.10568735748529434
1772794590418417400,7.04841748046875,0.7077481150627136,0.24327009916305542,-0.0964009165763855
1772794590428461600,7.058461669921875,0.6805826425552368,0.2149444967508316,-0.07713063806295395
1772794590438506500,7.068506591796875,0.6591958403587341,0.205855131149292,-0.05264181271195412
1772794590448550400,7.07855029296875,0.6469724774360657,0.20588256418704987,-0.03407904878258705
1772794590458594600,7.088594482421875,0.6384333372116089,0.21803350746631622,-0.02269669808447361
1772794590468639500,7.098639404296875,0.636773407459259,0.23558193445205688,-0.020079391077160835
1772794590478683400,7.108683349609375,0.6461088061332703,0.2552933096885681,-0.019225846976041794
1772794590488728600,7.118728515625,0.6630319952964783,0.2652592658996582,-0.023100055754184723
1772794590498772700,7.128772705078125,0.6785233020782471,0.2899129390716553,-0.0324552059173584
1772794590508817700,7.138817626953125,0.701301634311676,0.30922678112983704,-0.04669386148452759
1772794590518861600,7.148861572265625,0.7209177017211914,0.3030802011489868,-0.06495621800422668
1772794590528905700,7.15890576171875,0.7235488295555115,0.2669416069984436,-0.07916818559169769
1772794590538950700,7.16895068359375,0.7033026814460754,0.18285201489925385,-0.07767201960086823
1772794590548994600,7.17899462890625,0.6745046973228455,0.07279262691736221,-0.052200980484485626
1772794590559039500,7.18903955078125,0.6452280879020691,-0.04373211786150932,-0.004134652204811573
1772794590569083400,7.19908349609375,0.6256494522094727,-0.15098127722740173,0.07268890738487244
1772794590579128600,7.209128662109375,0.6141579151153564,-0.2399100810289383,0.14644755423069
1772794590589172500,7.21917236328125,0.6133783459663391,-0.30017995834350586,0.20264282822608948
1772794590599216400,7.22921630859375,0.6374802589416504,-0.3146819472312927,0.25949016213417053
1772794590609261600,7.239261474609375,0.6648367047309875,-0.2795505225658417,0.30268383026123047
1772794590619305700,7.2493056640625,0.6896336674690247,-0.2515724003314972,0.3203752338886261
1772794590629350700,7.2593505859375,0.6976020932197571,-0.21536463499069214,0.3113461136817932
1772794590639394600,7.26939453125,0.6942853927612305,-0.1682426631450653,0.29274100065231323
1772794590649439500,7.279439453125,0.680293619632721,-0.15533965826034546,0.2456696331501007
1772794590659483600,7.289483642578125,0.651513934135437,-0.16884134709835052,0.18163073062896729
1772794590669527600,7.299527587890625,0.6173552870750427,-0.18570241332054138,0.10308721661567688
1772794590679572500,7.309572509765625,0.5799189209938049,-0.20686015486717224,0.026590581983327866
1772794590689616600,7.31961669921875,0.5233259797096252,-0.2217995971441269,-0.035609520971775055
1772794590699661600,7.32966162109375,0.45568111538887024,-0.2227146476507187,-0.07646001130342484
1772794590709705500,7.33970556640625,0.4080890417098999,-0.18930897116661072,-0.08952604979276657
1772794590719750700,7.349750732421875,0.390819787979126,-0.12377283722162247,-0.0803956687450409
1772794590729794600,7.359794677734375,0.40355321764945984,-0.02311546355485916,-0.07588188350200653
1772794590739838700,7.369838623046875,0.448783278465271,0.1089288517832756,-0.06204250827431679
1772794590749883600,7.379883544921875,0.5191288590431213,0.23448625206947327,-0.032878778874874115
1772794590759927600,7.389927490234375,0.5954153537750244,0.3234805762767792,-0.0007749038049951196
1772794590769972500,7.399972412109375,0.6529434323310852,0.3745141923427582,0.0359853059053421
1772794590780016600,7.4100166015625,0.6938059329986572,0.4220132529735565,0.06990412622690201
1772794590790061600,7.4200615234375,0.733491063117981,0.46079570055007935,0.09955237805843353
1772794590800105500,7.43010546875,0.7657214403152466,0.43255046010017395,0.12034287303686142
1772794590810149600,7.440149658203125,0.7812654376029968,0.36392349004745483,0.13349011540412903
1772794590820195000,7.450195068359375,0.7758323550224304,0.2855818271636963,0.1426074504852295
1772794590830239000,7.460239013671875,0.7639540433883667,0.21091647446155548,0.15072381496429443
1772794590840284200,7.4702841796875,0.7428295612335205,0.15275277197360992,0.14057743549346924
1772794590850328300,7.480328369140625,0.7197871208190918,0.12464544177055359,0.10628190636634827
1772794590860373200,7.490373291015625,0.6925613880157471,0.12849371135234833,0.046203382313251495
1772794590870417200,7.500417236328125,0.6574816107749939,0.16806630790233612,-0.022544192150235176
1772794590880461300,7.51046142578125,0.6084190011024475,0.19831955432891846,-0.09894921630620956
1772794590890506200,7.52050634765625,0.5612691044807434,0.24074101448059082,-0.15689371526241302
1772794590900550100,7.530550048828125,0.546739935874939,0.30140435695648193,-0.17677180469036102
1772794590910595000,7.540594970703125,0.5383121371269226,0.34678494930267334,-0.16646543145179749
1772794590920639000,7.550638916015625,0.5232791304588318,0.345389187335968,-0.1407499462366104
1772794590930684200,7.56068408203125,0.500734806060791,0.34314262866973877,-0.109529510140419
1772794590940728000,7.57072802734375,0.48772844672203064,0.32081255316734314,-0.08181773126125336
1772794590950772000,7.58077197265625,0.4758645296096802,0.3009408414363861,-0.05279991030693054
1772794590960817200,7.590817138671875,0.4664747714996338,0.2834566533565521,-0.03763240948319435
1772794590970861300,7.600861328125,0.4659939408302307,0.24951644241809845,-0.020720208063721657
1772794590980906200,7.61090625,0.45427364110946655,0.23060958087444305,-0.029332337900996208
1772794590990950100,7.6209501953125,0.4488085210323334,0.15004539489746094,-0.04786248505115509
1772794591000995000,7.6309951171875,0.45259684324264526,0.09198848158121109,-0.06708411872386932
1772794591011039200,7.641039306640625,0.45813941955566406,0.02248637191951275,-0.0861707329750061
1772794591021083100,7.651083251953125,0.45564910769462585,-0.05543692409992218,-0.08054586499929428
1772794591031128000,7.661128173828125,0.44177818298339844,-0.07199763506650925,-0.04788418114185333
1772794591041172200,7.671172119140625,0.4550066292285919,-0.04846887290477753,-0.0022445274516940117
1772794591051217200,7.681217041015625,0.4648202657699585,-0.014150254428386688,0.029313834384083748
1772794591061261000,7.691260986328125,0.4751216471195221,0.03030376136302948,0.04840390756726265
1772794591071306200,7.70130615234375,0.4834834337234497,0.007554881274700165,0.03236650675535202
1772794591081350100,7.71135009765625,0.49022576212882996,0.021223556250333786,0.02093249186873436
1772794591091394300,7.721394287109375,0.5226001739501953,0.03908010199666023,0.01898862048983574
1772794591101439200,7.731439208984375,0.5511907935142517,0.033440858125686646,0.021748719736933708
1772794591111483100,7.741483154296875,0.5716180205345154,0.06537337601184845,0.026257561519742012
1772794591121528000,7.751528076171875,0.5728853940963745,0.07786999642848969,0.0165663193911314
1772794591131572200,7.761572265625,0.5704180598258972,0.09550955891609192,0.008201736956834793
1772794591141616000,7.7716162109375,0.5837423801422119,0.08400709927082062,0.009553290903568268
1772794591151661000,7.7816611328125,0.5988795161247253,0.04771114140748978,0.016346214339137077
1772794591161705200,7.791705322265625,0.603258490562439,-0.03475284203886986,0.024382321164011955
1772794591171750100,7.801750244140625,0.6032812595367432,-0.03606247529387474,0.06762978434562683
1772794591181794000,7.8117939453125,0.6050863265991211,-0.0729038417339325,0.10598276555538177
1772794591191839200,7.821839111328125,0.6140060424804688,-0.10165181756019592,0.13590946793556213
1772794591201883100,7.831883056640625,0.6303061842918396,-0.13303770124912262,0.13865704834461212
1772794591211927300,7.84192724609375,0.6608002781867981,-0.12242735177278519,0.11696557700634003
1772794591221972200,7.85197216796875,0.6983367800712585,-0.07601005584001541,0.06919325888156891
1772794591232016100,7.86201611328125,0.7312837839126587,-0.03179173171520233,-0.0049105240032076836
1772794591242061000,7.87206103515625,0.7665565609931946,-0.0075681498274207115,-0.09683912247419357
1772794591252105200,7.882105224609375,0.796273410320282,0.008904032409191132,-0.18433059751987457
1772794591262150100,7.892150146484375,0.8259490132331848,0.07449289411306381,-0.23764681816101074
1772794591272194000,7.902194091796875,0.875080406665802,0.10728046298027039,-0.2713198959827423
1772794591282238200,7.91223828125,0.9344188570976257,0.15316246449947357,-0.27418437600135803
1772794591292283100,7.922283203125,0.9812729358673096,0.19640330970287323,-0.26532503962516785
1772794591302327000,7.9323271484375,1.0244455337524414,0.2443079650402069,-0.2326890528202057
1772794591312372200,7.942372314453125,1.0504144430160522,0.24832923710346222,-0.19295938313007355
1772794591322416000,7.952416015625,1.05474054813385,0.24465568363666534,-0.13865593075752258
1772794591332461000,7.9624609375,1.057069182395935,0.25056156516075134,-0.07359203696250916
1772794591342505200,7.972505126953125,1.0608890056610107,0.25337493419647217,-0.020040132105350494
1772794591352549000,7.982549072265625,1.0657018423080444,0.24278295040130615,0.01547158695757389
1772794591362594000,7.992593994140625,1.0715423822402954,0.31623584032058716,0.044923484325408936
1772794591372638200,8.00263818359375,1.0771013498306274,0.36485201120376587,0.04857134446501732
1772794591382683100,8.01268310546875,1.0937002897262573,0.41298651695251465,0.04486555606126785
1772794591392727000,8.02272705078125,1.0917065143585205,0.40766510367393494,0.021044783294200897
1772794591402772200,8.032772216796875,1.085023283958435,0.4372405707836151,0.02924412302672863
1772794591412816100,8.042816162109375,1.0172247886657715,0.34738343954086304,0.0653914362192154
1772794591422860000,8.052860107421875,0.958526611328125,0.2388114333152771,0.10389301180839539
1772794591432905200,8.0629052734375,0.9249864220619202,0.2328445166349411,0.1273161768913269
1772794591442949000,8.07294921875,0.91774582862854,0.18146228790283203,0.15743066370487213
1772794591452994000,8.082994140625,0.9262905716896057,0.13861851394176483,0.18923909962177277
1772794591463038200,8.0930380859375,0.9074563980102539,0.05263835936784744,0.1856376975774765
1772794591473082000,8.10308203125,0.8510417938232422,-0.09579937160015106,0.16062669456005096
1772794591483127000,8.113126953125,0.772006630897522,-0.1808282434940338,0.13556447625160217
1772794591493171200,8.123171142578125,0.7021781206130981,-0.15624183416366577,0.16830871999263763
1772794591503216400,8.13321630859375,0.7042758464813232,-0.0967276394367218,0.24221090972423553
