time,seconds_elapsed,z,y,x
1772795003816079600,0.07407958984375,0.042049920222163195,-0.006721154060491244,-0.006831042463285848
1772795003826124500,0.08412451171875,0.022149287965893744,-0.013301342447445495,0.0035590441884472963
1772795003836168400,0.09416845703125,0.03783785548508167,0.003366875196524779,0.005514562170393765
1772795003846212600,0.104212646484375,0.017677695509791373,0.011787181874696398,-0.01094951063278131
1772795003856256500,0.114256591796875,0.009627660045027733,-0.010025664652977138,-0.009478552164230495
1772795003866300700,0.12430078125,0.022638532787561415,-0.005597693855359102,0.011365671951929106
1772795003876344300,0.13434423828125,0.023757892206311224,0.0029863525879831286,-0.013874430769309401
1772795003886389500,0.144389404296875,0.022883447459340095,-0.006318513805797556,-0.015492570023052394
1772795003896433700,0.15443359375,0.011842413485050201,-0.021031654713349415,-0.024279641924938186
1772795003906477600,0.1644775390625,0.029029110607504842,0.0019883488183579175,-0.01894323106673546
1772795003916521500,0.174521484375,0.03080255002081394,0.001907040339364903,-0.002616301711928099
1772795003926565600,0.184565673828125,0.01766951220333576,-0.008182154536497547,0.004005080056050792
1772795003936610600,0.194610595703125,0.020685645154118536,-0.007684825731429736,-0.0036961693705059584
1772795003946654500,0.204654541015625,0.029942718321084975,-0.020903541671519633,0.001452399898553267
1772795003956698600,0.21469873046875,0.014246552017331122,0.0004522937909205211,-0.004868090093554929
1772795003966742500,0.224742431640625,0.018454525101184845,-0.0032756058708764612,-0.009198410915443673
1772795003976786700,0.23478662109375,0.024618308427929878,-0.009943470828817226,-0.006013826062576845
1772795003986830600,0.24483056640625,0.024485037437081334,-0.00018607204045401884,-0.00929405330964364
1772795003996875500,0.25487548828125,0.011310498565435409,0.006615670121466973,0.015544729468552395
1772795004006919700,0.264919677734375,0.030901334220170974,-0.007905935977579793,-0.00584633314171806
1772795004016963600,0.274963623046875,0.03224865717589855,-0.009337013385246973,0.014995269759092478
1772795004027007500,0.285007568359375,0.025955109989643094,0.00003759434731910005,-0.011965638005919753
1772795004037051400,0.295051513671875,0.027153379863500592,-0.0016131068855989724,-0.00037254137312993406
1772795004047096600,0.3050966796875,0.032545594295859334,-0.0052916127352509645,-0.00601338767115958
1772795004057140500,0.315140380859375,0.017137597283720968,-0.00283437860913109,-0.013928060652688146
1772795004067184400,0.325184326171875,0.028815760117769238,0.0024222998100565745,-0.005094811521517113
1772795004077228500,0.335228515625,0.03688566932678222,0.004319861076667439,-0.011534178652940317
1772795004087272700,0.345272705078125,0.022075053685903546,-0.0055924953779671336,0.0007079290736466645
1772795004097317400,0.3553173828125,0.029545243436098097,-0.0009416168152238241,0.0038515882610809056
1772795004107361500,0.365361572265625,0.022669512447714806,0.018740108568425055,0.008808900141203776
1772795004117405700,0.37540576171875,0.03718377549052238,-0.0076011717441899235,0.0011506952719297259
1772795004127449600,0.38544970703125,0.04556640391051769,-0.004151075814443174,0.004059038732992485
1772795004137493500,0.395493408203125,0.014001637345552443,0.011022758532082661,0.006587945289257913
1772795004147537400,0.405537353515625,0.015649404552578926,0.010755178795702522,0.015100931223807856
1772795004157582600,0.41558251953125,0.0246346750408411,-0.0033250938686775044,0.0038502182879019526
1772795004167626500,0.42562646484375,0.03391162195205688,0.001474148222769145,0.004284444986702874
1772795004177670400,0.43567041015625,0.014306173250079154,-0.010271772343065822,0.002631590612605214
1772795004187714600,0.445714599609375,0.016399346137046814,0.0032385469547414683,-0.020012065874645487
1772795004197758500,0.455758544921875,0.024478023174405096,0.0078989685223205,0.001163764816056937
1772795004207803400,0.465803466796875,0.02657002701759338,0.004962353381421417,0.008003017985261976
1772795004217847600,0.47584765625,0.01324760410785675,-0.004208263061509933,0.011689524478279053
1772795004227891700,0.4858916015625,0.026558921101689337,-0.002888579314667731,-0.015079313047043979
1772795004237935900,0.495935791015625,0.01099544126689434,0.005412888469273457,-0.002131349472887814
1772795004247979500,0.5059794921875,0.027307109120488164,0.009500781120703322,-0.0008632109669037163
1772795004258023700,0.516023681640625,0.02625906137228012,0.00887126474524266,0.011097915260680019
1772795004268068900,0.52606884765625,0.020879706421494483,-0.01202991029761033,0.0076927099270746105
1772795004278112800,0.53611279296875,0.02731470790505409,-0.007396049085038248,0.0013204623482655734
1772795004288156700,0.54615673828125,0.011600421422719954,0.00021829152633436022,-0.005436665495438501
1772795004298200600,0.55620068359375,0.031200609427690505,0.00871077581226127,0.005180717972991988
1772795004308244700,0.56624462890625,0.017141688936948774,0.005421220189490122,-0.0018333894396200775
1772795004318289700,0.57628955078125,0.02103109759092331,0.006760655524639878,0.006336810939246788
1772795004328333600,0.58633349609375,0.024622400081157684,-0.010911215315852313,-0.006110217375447973
1772795004338377700,0.596377685546875,0.011451368340849876,-0.009110641300445421,-0.002850165266729891
1772795004348421600,0.606421630859375,0.02880757681131363,0.0027515294811339117,-0.01340589080895297
1772795004358465800,0.6164658203125,0.01219663375020027,-0.007692101430654292,0.0064107620914466675
1772795004368510700,0.6265107421875,0.011897943064570426,0.008491963696118909,-0.0032628377208486197
1772795004378554600,0.6365546875,0.02536415835916996,-0.013827510329574579,-0.0048479697541333735
1772795004388598800,0.646598876953125,0.029255905100703236,-0.015457296638627303,0.013752667553164065
1772795004398642700,0.656642578125,0.01982815154194832,0.016655380424461328,-0.013213738370873033
1772795004408686600,0.6666865234375,0.026263737547397612,-0.003808955837396206,-0.0056246623482089485
1772795004418730800,0.676730712890625,0.018781272837519646,0.01030530928648659,-0.0009897508228663354
1772795004428775700,0.686775634765625,0.015639467680454253,0.004505420518823666,0.002804042836371809
1772795004438819600,0.696819580078125,0.023267478340864182,-0.0009446478808822575,0.00468605719069019
1772795004448863700,0.70686376953125,0.021770517781376838,0.0018502218434121459,-0.011529648608295246
1772795004458907600,0.71690771484375,0.030599720925092694,-0.0013725624282611532,-0.0014909783432725816
1772795004468951800,0.726951904296875,0.0326911402463913,0.01088118436212535,0.0057921187364496285
1772795004478996700,0.736996826171875,0.02057517051696777,0.0050219300900411325,0.00787599407210946
1772795004489040600,0.74704052734375,0.024019173491001126,0.0046480438599071925,-0.0054163442266173655
1772795004499084800,0.757084716796875,0.023720482805371285,-0.008941793247783788,-0.01976561683290638
1772795004509128400,0.76712841796875,0.022971125742793082,0.02212781591960229,0.007383534380048513
1772795004519172600,0.777172607421875,0.01982815154194832,-0.002635139984783018,0.0016578136770054696
1772795004529217800,0.7872177734375,0.009205635240674019,0.009506084058550185,0.019874365303851664
1772795004539261700,0.79726171875,0.014892448705434798,0.015628404005389892,-0.005685744885681196
1772795004549305600,0.8073056640625,0.03838379893004894,-0.01661981249580276,0.01064530352181755
1772795004559349800,0.817349853515625,0.018927987831830976,-0.008959448777127545,-0.001802628975175321
1772795004569393700,0.8273935546875,0.02012742674946785,-0.00909516174516757,-0.011972478738659992
1772795004579437800,0.837437744140625,0.0027718028008937834,-0.007452212277153739,-0.002682498815935105
1772795004589482800,0.847482666015625,0.02416939561665058,0.0036432278986496384,-0.006917095045233145
1772795004599526700,0.857526611328125,0.022820319095253942,0.010589429165713954,0.0007276201548054814
1772795004609570800,0.86757080078125,0.018327683851122854,0.0014100346196384635,-0.007304130734596401
1772795004619614700,0.87761474609375,0.030599720925092694,-0.005970354530320037,-0.008095701237395406
1772795004629658600,0.88765869140625,0.019525369203090667,0.0012784178714035077,-0.0005365271626506001
1772795004639703800,0.897703857421875,0.020273557221889494,-0.004432170336233684,-0.002455914385290816
1772795004649747700,0.907747802734375,0.02536591192483902,-0.003262698440242093,-0.002277406880073249
1772795004659791600,0.91779150390625,0.028210195440053938,0.01107453324344824,0.006915195349091663
1772795004669835500,0.92783544921875,0.03404723103046417,0.004672294668463291,0.006371699589537456
1772795004679879700,0.937879638671875,0.018932079485058782,-0.0051035074262705165,0.01028943015569821
1772795004689924600,0.947924560546875,0.01878361092507839,-0.00662696555032744,0.007373204782279208
1772795004699968500,0.957968505859375,0.03285188376605511,0.007841757300723111,0.009663023619353771
1772795004710012700,0.9680126953125,0.029860885256528854,-0.009093700440443353,0.002434214010136202
1772795004720056800,0.978056884765625,0.009659808748960495,-0.004287102734670043,-0.011925397327076643
1772795004730100700,0.988100830078125,0.018638649496436118,0.022495288391970097,-0.013829879241529851
1772795004740144600,0.99814453125,0.018487842848896978,-0.0021205963250773494,-0.001507061828393489
1772795004750189800,1.00818994140625,0.02327273903787136,-0.0005868439942249096,-0.005023527250438928
1772795004760233700,1.018233642578125,0.024916414591670034,0.0051517989808286075,-0.006226875158213079
1772795004770277600,1.028277587890625,0.027158640560507773,0.01218393067389843,0.007427428320702165
1772795004780321500,1.038321533203125,0.019525953724980352,-0.004364833871199516,0.00763218451202847
1772795004790365700,1.04836572265625,0.024315526089072226,0.0011662604505312628,-0.014568267385521902
1772795004800410600,1.05841064453125,0.02805763522684574,-0.0026671699577069372,-0.010603921198658644
1772795004810454500,1.06845458984375,0.016686346384882925,0.004653456395608373,0.002019669259339571
1772795004820498700,1.078498779296875,0.014442951372265814,-0.00645291045794147,-0.0049487541143316775
1772795004830542600,1.08854248046875,0.02536591192483902,-0.00024689999124384484,0.0017661420228425413
1772795004840586800,1.098586669921875,0.014141338077187537,0.004019318643957376,0.0112240258583799
1772795004850631700,1.108631591796875,0.02072305455505848,0.0022036669320717917,0.009433343049325048
1772795004860675600,1.118675537109375,0.015782675543427466,0.005175972157571231,0.0026871475915890186
1772795004870719700,1.1287197265625,0.02221884607076645,0.004229874388407916,-0.00497418994968757
1772795004880763600,1.138763671875,0.021622049221396444,-0.00045283207621541805,-0.00006081767599098384
1772795004890807600,1.1488076171875,0.021621464699506758,0.011310454041307092,-0.010885669882642104
1772795004900852700,1.158852783203125,0.024014497315883634,0.018354011310689384,0.007153086625039577
1772795004910897000,1.16889697265625,0.030301030239462852,0.00022530807229923083,-0.0036628333564847704
1772795004920940500,1.1789404296875,0.01593406671285629,-0.008404291120887501,-0.0009278371683321893
1772795004930984700,1.188984619140625,0.020420856738090513,0.0027428849503747187,0.007606063690083101
1772795004941028600,1.199028564453125,0.027753683844208715,0.008028566843405133,0.009275777867436408
1772795004951072800,1.20907275390625,0.018625205492973328,0.006322051761532202,-0.0016790847938973456
1772795004961117700,1.21911767578125,0.01772621082663536,-0.003258528013556497,0.009003043606970459
1772795004971161600,1.22916162109375,0.026105916637182234,0.0075750543471775015,0.01767267227480188
1772795004981205800,1.239205810546875,0.02490881580710411,0.008240177467203466,-0.0031118392770644277
1772795004991249700,1.249249755859375,0.020422025781869888,0.0018973272295261267,-0.014767845078231766
1772795005001293600,1.25929345703125,0.016530279040336607,0.009088410060683963,0.002356335601489991
1772795005011338800,1.2693388671875,0.02790039883852005,0.00955443155367975,-0.007691531750140711
1772795005021382700,1.279382568359375,0.027749007669091223,-0.0034515047188324387,-0.0007625362045597285
1772795005031426600,1.289426513671875,0.022212416329979896,-0.002094746072834823,0.007033104374026879
1772795005041470700,1.299470703125,0.02221124728620052,-0.00460871307158377,0.005894766260171309
1772795005051514600,1.3095146484375,0.010089432337880134,0.004401122177421348,-0.008391725041903554
1772795005061559600,1.3195595703125,0.03044131549298763,-0.0038845201330143025,0.0018782971604261547
1772795005071603700,1.329603759765625,0.02161561948060989,0.006271466643543681,-0.000046770884329453105
1772795005081647600,1.339647705078125,0.022216507983207703,0.012460415235941763,0.008339209403377026
1772795005091691800,1.34969189453125,0.01189385141134262,-3.230853413697332e-7,-0.021130575910024343
1772795005101735700,1.359735595703125,0.00815466488301754,0.009876650387013797,-0.00111943248398602
1772795005111780600,1.369780517578125,0.020870938593149185,-0.002170824108395027,-0.0031108528963755813
1772795005121824800,1.37982470703125,0.022814473876357075,-0.005251715691346907,0.002471870006248355
1772795005131868700,1.38986865234375,0.025359482184052467,0.0008545687194331549,-0.010178672390757128
1772795005141912600,1.39991259765625,0.024760347247123716,0.010061253131233388,-0.0066265146008227015
1772795005151956500,1.40995654296875,0.011590484550595283,0.007686781368142692,-0.02080613886178471
1772795005162000600,1.420000732421875,0.02490823128521442,0.0027786184174590743,0.0014718169850762932
1772795005172045800,1.4300458984375,0.009649287354946136,0.0022505805219407192,-0.012033707406604663
1772795005182089500,1.44008935546875,0.021619711133837698,0.00615061674285098,-0.003380554949538782
1772795005192133600,1.450133544921875,0.016681670209765433,0.01413955140383332,-0.005924869137490168
1772795005202177800,1.460177734375,0.02221826154887676,-0.003818195164843928,-0.009356889412784949
1772795005212221700,1.4702216796875,0.01952653824687004,-0.008263535509904614,0.0021085896518081427
1772795005222266400,1.480266357421875,0.011596914291381835,0.0013092845087696332,0.016700192247144877
1772795005232310500,1.490310546875,0.020278817918896675,-0.009606557891494593,0.0041414563194382935
1772795005242354400,1.5003544921875,0.027612814068794247,0.013259940716333221,0.006375407650275155
1772795005252398600,1.510398681640625,0.0018798223972320556,0.006444944063905859,-0.014752766240108758
1772795005262442500,1.5204423828125,0.01968728176653385,-0.015443450776365351,-0.009616042672470211
1772795005272487400,1.5304873046875,0.029415479576587675,-0.0027256130135210697,0.003955806687381118
1772795005282531600,1.540531494140625,0.003081599402427673,-0.002528875731868902,-0.0033731662275269625
1772795005292575500,1.550575439453125,0.01430325064063072,-0.00004317013815743849,-0.012136902919597924
1772795005302619400,1.560619384765625,0.023879472759366034,0.004880989532679086,-0.003802972479537129
1772795005312663600,1.57066357421875,0.019537059640884397,0.003530828449182445,-0.005649267066502943
1772795005322707500,1.58070751953125,0.01714285798072815,0.008458326287998351,0.00571911743232049
1772795005332752400,1.59075244140625,0.03255728473365307,0.009584904323756928,0.0013315956636331975
1772795005342796500,1.600796630859375,0.032708091381192204,0.0027139728080772326,0.012671941378060728
1772795005352840400,1.61084033203125,0.027470190727710724,-0.008734490047988947,0.0026059081820771096
1772795005362884600,1.620884521484375,0.02777005045711994,0.0011053811257472261,-0.002290348560037091
1772795005372928500,1.630928466796875,0.02448094578385353,0.010856360448122722,0.008516410867497324
1772795005382973400,1.640973388671875,0.013255787414312362,0.006014515615743584,-0.007920098075317218
1772795005393017600,1.651017578125,0.022682956451177596,0.013724467796919633,0.004353427702840417
1772795005403061500,1.6610615234375,0.020287001225352284,0.0008969728142546955,-0.005808923740778118
1772795005413105400,1.67110546875,0.03180909671485424,-0.00002069572815671563,-0.0029638182416558264
1772795005423149600,1.681149658203125,0.02731996860206127,0.002716982182493666,-0.0025299660021904855
1772795005433194500,1.691194580078125,0.026423896545171736,0.005219385465967934,0.011790372770559042
1772795005443238400,1.70123828125,0.021635493224859238,-0.0035784635582589543,0.004324393404601142
1772795005453282600,1.711282470703125,0.02223053650856018,-0.005358988016191869,-0.005809480863204226
1772795005463326500,1.721326416015625,0.025820669955015182,0.0060233530843921464,-0.012466418001754208
1772795005473370600,1.73137060546875,0.030609657797217367,0.0010103769107197877,0.007762569426046684
1772795005483415600,1.74141552734375,0.005323825371265411,-0.000978901776933344,-0.002224635513219982
1772795005493459500,1.75145947265625,0.018640987583994864,0.013995616313430945,-0.003920488778827712
1772795005503503600,1.761503662109375,0.006819616886973381,0.0047006462634017225,0.0005900017824023962
1772795005513547500,1.771547607421875,0.023429975426197052,0.004847056438680738,-0.006871977261872961
1772795005523591400,1.78159130859375,0.02208382151424885,-0.005907621175167151,0.004091023040143773
1772795005533635600,1.791635498046875,0.0240291103631258,0.007028058306151069,-0.0005296224978286773
1772795005543680500,1.801680419921875,0.02193476843237877,-0.0019310240031511056,-0.010819317515008151
1772795005553724400,1.811724365234375,0.026273089897632596,-0.0038556970389734485,-0.0008698964360170066
1772795005563768600,1.8217685546875,0.022681202885508536,-0.009610735168046084,-0.01096476300084032
1772795005573812500,1.8318125,0.03180851219296455,-0.007462719971436309,-0.007869071140978484
1772795005583856600,1.841856689453125,0.025973814690113065,0.01146870649307384,-0.008701850437000393
1772795005593901300,1.8519013671875,0.01744505579769611,0.009953810701385372,-0.006276459054136648
1772795005603945500,1.861945556640625,0.020138532665371894,-0.0024440515592053995,-0.015246449774876237
1772795005613989600,1.87198974609375,0.03420446741878986,0.007569789083593059,0.004212530527962372
1772795005624033500,1.882033447265625,0.039590836632251734,-0.0022146141594159416,0.0023986951721832153
1772795005634077400,1.892077392578125,0.03211012548804283,0.01717878781063482,0.0013932353235315532
1772795005644122600,1.90212255859375,0.026575287714600562,0.0018328243256837595,0.0021185082576237616
1772795005654166500,1.91216650390625,0.028072832795977592,0.008008026378875365,-0.0016949490833096206
1772795005664210400,1.92221044921875,0.012211831319332123,-0.00211919552750187,-0.0015161310508381575
1772795005674254300,1.93225439453125,0.04632920497655868,-0.006820079252921277,0.000291530292481184
1772795005684298500,1.942298583984375,0.04363748167455196,0.0037116066849441267,-0.017558389112213624
1772795005694343700,1.95234375,0.03421031263768673,-0.00567645532588358,-0.0006565094136632978
1772795005704387300,1.96238720703125,0.034660979014635086,0.0064941169678757425,0.00575986043466255
1772795005714431500,1.972431396484375,0.031218729606270788,0.022322667204844764,0.013633918278012424
1772795005724475600,1.9824755859375,0.03585807984471321,-0.011009613639430607,-0.00922919877935201
1772795005734519600,1.99251953125,0.013712299010157584,-0.006359412071766564,0.0008142389923334122
1772795005744564500,2.002564453125,0.037353871360421176,-0.005728972676876583,-0.008220067402580753
1772795005754608400,2.0126083984375,0.014757424148917198,0.0018790637745842104,-0.0026287776010110973
1772795005764652500,2.022652587890625,0.03151917385756969,-0.004075202704037655,-0.0006649941142182797
1772795005774696700,2.03269677734375,0.019547581034898755,-0.0030566932900343087,-0.00011482201870530843
1772795005784740400,2.042740234375,0.022388941940665243,-0.011560991311341058,-0.0017003376444801688
1772795005794784500,2.052784423828125,0.01340834762752056,-0.00300965526093496,-0.0023129987832624464
1772795005804829700,2.06282958984375,0.02358604277074337,-0.0005319794225186343,-0.007114946571737528
1772795005814873300,2.072873291015625,0.017300678890943527,0.017133868673385587,0.006788180569093674
1772795005824917500,2.08291748046875,0.03331307153701782,-0.004999455680040409,-0.017078679303871466
1772795005834961400,2.09296142578125,0.02149403892755508,-0.00043782344921783074,0.004914660048484802
1772795005845005600,2.103005615234375,0.03451309497654438,-0.005106822190541424,0.021990973865333944
1772795005855050500,2.113050537109375,0.03885200096368789,0.004719534768606536,0.004624490596028045
1772795005865094400,2.123094482421875,0.031518589335680004,0.007741363953702966,0.004825456528225913
1772795005875138600,2.133138671875,0.01296528003513813,-0.01709824937073281,0.006758835743600502
1772795005885182700,2.1431826171875,0.0074298577398061744,-0.013529880231514106,0.0017281115673948078
1772795005895226400,2.153226318359375,0.008776596173644065,0.005491101379704196,-0.006196096427459269
1772795005905271600,2.163271484375,0.03017594255506992,0.005388859710536781,-0.014658566884323954
1772795005915315700,2.173315673828125,0.03616027766168117,-0.0034447056561097266,0.0038200788779649882
1772795005925359400,2.183359375,0.031069676524400708,-0.012512513032648711,0.003010835721157491
1772795005935403500,2.193403564453125,0.019695465072989464,0.008367628926152247,0.002460353098390624
1772795005945447400,2.203447509765625,0.027026538613438605,0.004752460361496196,0.00015223141964524982
1772795005955492600,2.21349267578125,0.016999650117754936,-0.01009852667649975,0.009933885583141818
1772795005965536500,2.22353662109375,0.03645253860652446,0.0010269404572754864,-0.004855303677218034
1772795005975580400,2.233580322265625,0.01939502082169056,0.0010855496223375666,-0.002541245448030531
1772795005985624600,2.24362451171875,0.03196574858129024,0.009330131553311366,-0.0006419785648118704
1772795005995668500,2.25366845703125,0.032865327769517894,-0.0011304139606596437,0.003511314322892576
1772795006005713400,2.26371337890625,0.0364554612159729,-0.013141525942966109,-0.007779675824474543
1772795006015757600,2.273757568359375,0.027627427116036413,0.0030217955065891147,-0.0077739310702774666
1772795006025801500,2.283801513671875,0.019248890349268914,0.009369924707582685,0.015507018673513083
1772795006035845600,2.293845703125,0.02702770765721798,0.009934200676972977,0.018038126320019363
1772795006045889500,2.3038896484375,0.031662381720542906,0.0008694055289612151,-0.005088701441138982
1772795006055934500,2.3139345703125,0.015650573596358297,0.010921243519522249,0.006226254103705286
1772795006065978600,2.323978515625,0.02103752733170986,0.011891288419853662,0.019362872117757796
1772795006076022500,2.3340224609375,0.03091419370174408,-0.011882737503928365,-0.0016604988244362175
1772795006086066400,2.34406640625,0.01445581085383892,-0.0024173644816793964,-0.014432731372350826
1772795006096110600,2.354110595703125,0.0328606515944004,0.016712725218443664,0.019798487056046723
1772795006106154500,2.364154541015625,0.03480477139949798,-0.004137868131353753,0.002677895706053823
1772795006116199400,2.374199462890625,0.024180501532554625,-0.006162140500574605,0.007762140167783945
1772795006126243600,2.38424365234375,0.017146949633955955,0.011350941315322416,0.011614842673717067
1772795006136287500,2.39428759765625,0.0276192438095808,0.011060158799868077,-0.005021006499789655
1772795006146331600,2.40433154296875,0.036296471261978144,-0.005360737015283667,0.00325254465569742
1772795006156375300,2.414375244140625,0.017591770792007445,0.009699096154799917,-0.0007827844081446528
1772795006166420500,2.42442041015625,0.01370119309425354,0.011747105592634761,-0.005701983634429052
1772795006176464600,2.434464599609375,0.020432547175884247,-0.002296248577861115,0.013713504586555063
1772795006186508500,2.444508544921875,0.034498481929302216,-0.01274406475771102,0.0025155082185752686
1772795006196552400,2.454552490234375,0.019984803408384322,0.003329308819491416,0.004242907399917021
1772795006206596600,2.4645966796875,0.015794950503110885,0.0029274534452648367,0.00513348129778169
1772795006216641500,2.4746416015625,0.014298574465513228,0.007750324719937634,0.000035957229370251296
1772795006226685400,2.484685546875,0.018639234018325804,-1.1188114294782281e-7,0.00025300664668902753
1772795006236729600,2.4947294921875,0.020884382596611975,-0.0055357037106557976,0.028120571794686838
1772795006246773500,2.5047734375,0.0376449632614851,-0.0166628091040242,-0.00011579013308510183
1772795006256817700,2.514817626953125,0.0359977805763483,0.006428656224452424,0.01136015552659519
1772795006266862300,2.5248623046875,0.02252864267230034,0.009973986981378403,0.013633415954513475
1772795006276906500,2.534906494140625,0.016692191603779792,0.004292618018359644,-0.003163633396383375
1772795006286950700,2.54495068359375,0.029111528193950652,-0.005159565587108955,0.009080410558963194
1772795006296994600,2.55499462890625,0.025670447829365728,-0.005926457735555595,-0.004046553710754961
1772795006307038500,2.56503857421875,0.028365093740820885,0.01159459218684351,-0.0033855964508373287
1772795006317083600,2.575083740234375,0.014745733711123466,0.0005044132788694696,-0.013874421636154875
1772795006327127600,2.58512744140625,0.019832243195176125,0.00023999760971055365,-0.020807408370263875
1772795006337171500,2.59517138671875,0.03120470108091831,0.013999548136454541,0.0029530502524692565
1772795006347215400,2.60521533203125,0.03165127580463886,0.001961939160400652,0.0035495548408944156
1772795006357259500,2.615259521484375,0.021027005937695502,0.004694227939058328,-0.007091830557631329
1772795006367303700,2.6253037109375,0.012647300127148627,0.01413481472156709,0.007126618743222206
1772795006377348400,2.635348388671875,0.019381576818227768,0.0006520695589191745,-0.009726517309620975
1772795006387392500,2.645392578125,0.021923662516474724,-0.01676206023590639,-0.006138228760380298
1772795006397436700,2.655436767578125,0.012346855875849723,0.0071084471906477115,0.011964733823621645
1772795006407480600,2.66548046875,0.007709259203076363,0.005181190042916568,-0.004265201430115849
1772795006417524500,2.6755244140625,0.025216274321079254,-0.0005654724126332439,-0.005392250964976847
1772795006427569700,2.685569580078125,0.014891279661655425,0.006248313525997218,0.003016836203681305
1772795006437613600,2.695613525390625,0.013696516919136047,0.007729523389681707,0.0078064998993184415
1772795006447657500,2.705657470703125,0.02118131971657276,-0.005803925051141414,-0.006518341518612578
1772795006457701400,2.715701416015625,0.017891630521416662,-0.0015046135721582686,-0.00950944049283862
1772795006467745500,2.72574560546875,0.02477671386003494,0.00014007633261498993,0.0015328173241578042
1772795006477790700,2.735790771484375,0.028517069432139396,0.0032205255283945006,0.008552495961030944
1772795006487834400,2.74583447265625,0.03480301783382892,0.018978586649551286,-0.0027663229081779715
1772795006497878500,2.75587841796875,0.021784546306729314,0.007313699997251387,-0.010990892955940216
1772795006507922400,2.76592236328125,0.023132453784346578,-0.0040802322180708865,0.0007474573664367198
1772795006517966600,2.775966552734375,0.018044190734624863,-0.004751979158417088,0.0013097948237787932
1772795006528011500,2.786011474609375,0.012356208226084709,-0.01154425937224878,-0.014514317841734736
1772795006538055400,2.796055419921875,0.01549976694881916,-0.015461354042525636,-0.00500126061970368
1772795006548099600,2.806099609375,0.01594809523820877,0.0017430528373777632,-0.007144400995085016
1772795006558143500,2.8161435546875,0.02313070021867752,0.0067715782066312385,0.01455529830609448
1772795006568187400,2.8261875,0.02043722335100174,0.002011233649490168,-0.0037213586106896396
1772795006578232600,2.836232666015625,0.019090484917163846,0.00230741157598095,-0.006859674902725965
1772795006588276700,2.84627685546875,0.02492576694190502,-0.005520770432183053,-0.004037868080800399
1772795006598320400,2.8563203125,0.02971417026221752,-0.004474902082973858,0.007755144171416759
1772795006608364500,2.866364501953125,0.014749825364351273,0.0013762967468181158,0.019091516963625325
1772795006618408400,2.876408447265625,0.03480184879004955,0.0003501600071409484,0.010159940290823578
1772795006628453400,2.886453369140625,0.016249124011397362,-0.001196058508817805,-0.012276704115932806
1772795006638497500,2.89649755859375,0.02597615277767181,-0.00765790062106389,0.0021364914388861504
1772795006648541400,2.90654150390625,0.00816986245214939,-0.010540852200076915,0.0041124037548899645
1772795006658585600,2.916585693359375,0.01969429602921009,0.005290203375343116,0.007399900992959737
1772795006668629500,2.92662939453125,0.025830022305250167,-0.013401763764751376,-0.006900235241977497
1772795006678673400,2.93667333984375,0.034957331612706186,0.000319143814369454,0.005625922723533586
1772795006688718600,2.946718505859375,0.01684825894832611,0.0025421422096405877,-0.0032403153617866333
1772795006698762500,2.956762451171875,0.02013736362159252,0.003221588399252505,-0.009851404064614325
1772795006708806400,2.966806396484375,0.026273089897632596,0.008376557726346072,-0.005335461010131984
1772795006718850600,2.9768505859375,0.024775544816255567,-0.0036307799798523774,-0.009608252091659232
1772795006728894500,2.98689453125,0.035249592557549475,0.010699654924403876,-0.00712448158506304
1772795006738939600,2.996939697265625,0.02088379807472229,-0.0034721656268375226,-0.004911974901054054
1772795006748983600,3.006983642578125,0.010857494100928306,-0.013944532296876422,0.0004614708987530321
1772795006759027500,3.01702734375,0.01923719991147518,0.0010335351656656712,-0.01737233762135729
1772795006769071600,3.027071533203125,0.01953647511899471,0.01061318906721426,-0.02094682597410865
1772795006779115500,3.037115478515625,0.019689619854092597,-0.003564042878084001,-0.02087162357973866
1772795006789160400,3.047160400390625,0.018045944300293923,-0.003041012234534719,-0.008913401695294304
1772795006799204600,3.05720458984375,0.011309914043545722,0.004643718740416807,-0.01131773202382028
1772795006809248500,3.06724853515625,0.021935352954268454,-0.0037744701875490135,0.002831213971087709
1772795006819292700,3.077292724609375,0.024031448450684546,-0.014865268437564373,0.009037886591488496
1772795006829336300,3.08733642578125,0.02971767739355564,-0.003693294710118789,-0.010718615353200584
1772795006839381500,3.097381591796875,0.025827099695801735,-0.0017742476974846795,0.00545259371693246
1772795006849425700,3.10742578125,0.013255787414312362,0.0005322979412827408,0.009098585536470636
1772795006859469300,3.11746923828125,0.019537059640884397,0.01870016471710405,-0.0025214539021719247
1772795006869513500,3.127513427734375,0.018790040665864944,0.00444226361362962,-0.008010342775192112
1772795006879557600,3.1375576171875,0.02118482684791088,-0.004308629009066499,-0.00870922089270316
1772795006889602300,3.147602294921875,0.019537644162774086,0.006283167926958413,0.001986442843172699
1772795006899646500,3.157646484375,0.02282967144548893,0.01713393831368885,-0.0027746706114150583
1772795006909690600,3.167690673828125,0.03166004363298416,-0.005167644433109671,-0.007317182012414559
1772795006919734500,3.177734619140625,0.021785130828619003,-0.000860960785957286,-0.01306512368042022
1772795006929778700,3.18777880859375,0.015499182426929473,-0.003149037473805947,0.0013671601673588157
1772795006939823600,3.19782373046875,0.024176994401216505,-0.011583649526076623,0.005620132303563878
1772795006949867500,3.207867431640625,0.0261205296844244,-0.0006870404076005798,-0.003308603958180174
1772795006959911700,3.21791162109375,0.012653145346045494,0.0024378221769962693,0.009416364515060558
1772795006969955300,3.227955322265625,0.02282908692359924,-0.00040469578528427516,0.00989689630731009
1772795006979999500,3.23799951171875,0.027167992910742757,0.0021206505531823493,-0.0067650462886784226
1772795006990043400,3.24804345703125,0.015945757150650025,-0.00032087911372946106,-0.004030461092479527
1772795007000088600,3.258088623046875,0.0339022696018219,-0.0036229334584699244,-0.007193226839182898
1772795007010132500,3.268132568359375,0.02238075863420963,-0.00799658938611974,-0.008491386024095118
1772795007020176400,3.27817626953125,0.02402560323178768,0.0033930120014905693,-0.000014001125888898967
1772795007030220500,3.288220458984375,0.003075169661641121,0.004430721589596942,-0.007902973410580307
1772795007040264700,3.2982646484375,0.01729015749692917,-0.00047142375389812514,-0.009750418775016442
1772795007050309400,3.308309326171875,0.02836217113137245,0.0021005210806062675,-0.002327584431041032
1772795007060353500,3.318353515625,0.02028115600645542,-0.001725742655439535,0.0066198382648639375
1772795007070397700,3.328397705078125,0.01908522422015667,-0.00509802867519902,-0.0004946607823017984
1772795007080441600,3.338441650390625,0.029411972445249557,-0.002366980863912613,0.01071076084030792
1772795007090485500,3.348485595703125,0.022681202885508536,0.004895727019151672,-0.0004850161711219698
1772795007100530700,3.35853076171875,0.02836743182837963,-0.005803544883584254,-0.005709947745176032
1772795007110574600,3.36857470703125,0.02088496711850166,0.010026915895147249,0.008286118376115337
1772795007120618500,3.378618408203125,0.026871055790781972,0.0036319604400749084,-0.0007872779201716184
1772795007130662400,3.388662353515625,0.035850481060147286,0.00047796309253899375,0.0004820113632827997
1772795007140706600,3.39870654296875,0.004876081603765487,0.007429854314873228,-0.005308518204279244
1772795007150751500,3.40875146484375,0.005325578936934471,-0.00036499339173606127,0.003976639412855729
1772795007160795400,3.41879541015625,0.014901216533780097,-0.007172857621300499,0.014974674495635554
1772795007170839600,3.428839599609375,0.021935352954268454,-0.006425824946549255,-0.005429395504435524
1772795007180883500,3.438883544921875,0.03151332863867283,0.005488074880623026,-0.023464370886143296
1772795007190927600,3.448927734375,0.024629998865723608,0.0019881867048650746,0.0031459972749929874
1772795007200972500,3.45897265625,0.02567570852637291,0.007580778551776893,-0.0002488693276885897
1772795007211016400,3.469016357421875,0.008467384093999861,0.010525983424508013,0.015619402139959855
1772795007221060400,3.479060302734375,0.021487024664878843,-0.004440717827226035,0.009396618634974584
1772795007231104300,3.489104248046875,0.01221066227555275,0.008422372483561048,-0.007442032234789803
1772795007241148400,3.4991484375,0.013557985231280326,-0.017634753700497094,-0.007538332216115668
1772795007251193300,3.509193359375,0.03076630966365337,-0.025146145394048653,-0.0014223426870070396
1772795007261237500,3.519237548828125,0.014606617501378058,-0.013857586949074175,-0.002692207359196618
1772795007271281400,3.529281494140625,0.011015315011143684,-0.011100801337510346,-0.005971073766238987
1772795007281325300,3.5393251953125,0.011910802546143531,-0.008035547427574057,-0.002696317278733477
1772795007291369500,3.549369384765625,0.00801788676083088,0.012318995187967084,-0.0203513990979176
1772795007301413400,3.559413330078125,0.02193476843237877,-0.0007517419575538951,-0.010289512354088946
1772795007311458300,3.569458251953125,0.027023031482100484,-0.009022755808549117,0.0054606674255337564
1772795007321502500,3.57950244140625,0.04827098669409752,0.00039196017211943395,-0.005191823888896033
1772795007331546400,3.58954638671875,0.00891629690527916,-0.0030154685137909836,-0.008794871615851298
1772795007341590500,3.599590576171875,0.008766074779629707,0.00021673432348761707,-0.003009383549587801
1772795007351634400,3.609634521484375,0.02253331884741783,0.00373269114299037,-0.0029756182773038745
1772795007361679400,3.619679443359375,0.03121288438737392,0.0007964881356892874,0.003957277125259861
1772795007371723500,3.6297236328125,0.02911737341284752,-0.006107982606699806,-0.006091530941287056
1772795007381767200,3.63976708984375,0.01983984197974205,-0.01601848446014337,-0.009700570017611607
1772795007391811300,3.649811279296875,0.04063713081479072,0.007013688429148169,0.000486523141618818
1772795007401855500,3.65985546875,0.023279168778657912,-0.00752200441911118,0.01093488845238462
1772795007411900200,3.669900146484375,0.026573534148931502,0.005953410816207178,-0.0025108229103032497
1772795007421944300,3.6799443359375,0.02268237192928791,-0.007596768992886064,0.004927875723084434
1772795007431988500,3.689988525390625,0.033606501525640486,-0.008835505020339042,0.00525961929494515
1772795007442032400,3.700032470703125,0.008766659301519394,-0.014630037192872258,0.0058682801120448855
1772795007452076500,3.71007666015625,0.03016425211727619,0.015631825513404328,-0.018732593123894185
1772795007462121500,3.72012158203125,0.017296002715826035,0.00548572309333249,-0.01210953998863697
1772795007472165400,3.730165283203125,0.024780220991373062,-0.0004954296797484857,0.0010388141289819032
1772795007482209500,3.74020947265625,0.017597616010904312,-0.0021628919636888892,-0.006281208294490352
1772795007492253200,3.750253173828125,0.015803718331456183,-0.005359167825171607,0.006249297052575275
1772795007502297300,3.76029736328125,0.018348142117261886,0.003909504448043299,0.002552524893870577
1772795007512342500,3.770342529296875,0.02014379336237907,-0.013805780271667753,0.0052578657292760905
1772795007522386400,3.780386474609375,0.012064531803131103,-0.008219239710451801,0.011168350148387253
1772795007532430300,3.790430419921875,0.022688801670074463,-0.000911924929858651,-0.0035045375222340224
1772795007542474200,3.80047412109375,0.029274609801173208,-0.002839708375619375,-0.007702975592762232
1772795007552518400,3.810518310546875,0.020295184531807897,0.008712335298396646,-0.003885243935510516
1772795007562563300,3.820563232421875,0.021493454405665396,-0.0013553395821130833,-0.0020391228784807027
1772795007572607200,3.830607177734375,0.024486791002750394,-0.006946954181490582,-0.001972386918356642
1772795007582651400,3.8406513671875,0.023439912298321722,-0.006365239024354377,0.0004431497907731682
1772795007592695600,3.850695556640625,0.02164192296564579,0.00022451120456680655,0.018090504961227997
1772795007602739500,3.860739501953125,0.0165524908721447,-0.0023710028768371555,0.015436227592779322
1772795007612784400,3.870784423828125,0.019695465072989464,0.005905892154850881,0.0012352956823073328
1772795007622828500,3.88082861328125,0.03091711631119251,-0.002892799402881064,-0.0037829982705879952
1772795007632872400,3.89087255859375,0.021041618984937668,0.0034924366633087628,0.00015947401118464766
1772795007642916400,3.900916259765625,0.01670095943212509,-0.0036501377008709823,-0.012799239285849034
1772795007652960300,3.910960205078125,0.03256196090877056,0.0007601747132925084,-0.00743387632779777
1772795007663005400,3.92100537109375,0.022985738790035248,-0.000622180169087369,0.005613017576187849
1772795007673049300,3.93104931640625,0.021488778230547904,-0.006424214086419669,0.00634556963443756
1772795007683093200,3.94109326171875,0.029567455267906186,0.007017131057582446,-0.007542049410007893
1772795007693137400,3.951137451171875,0.020440730482339856,-0.021439799406111706,0.012135469014337286
1772795007703181300,3.961181396484375,0.023584873726963995,-0.004298100765186245,-0.005728396717319265
1772795007713226200,3.971226318359375,0.015651158118247986,0.006570701893512159,0.006822895689448341
1772795007723270400,3.9812705078125,0.008467968615889549,0.004878353475953918,0.00961447176989168
1772795007733313300,3.991313232421875,0.008470306703448295,0.0048956921990000405,0.00976472129500471
1772795007743357400,4.001357421875,0.01550327408015728,-0.009441839737145345,-0.00025805728114210066
1772795007753401300,4.0114013671875,0.03405716790258884,-0.004700991039985092,0.000562510987278074
1772795007763445500,4.021445556640625,0.015949264281988142,0.0077846956345310895,-0.007318972110701725
1772795007773490400,4.031490478515625,0.020738836646080016,0.01355612206775695,0.00963382492433302
1772795007783534300,4.041534423828125,0.010113397735357283,0.0033537622699135678,-0.010636754889180883
1772795007793578500,4.05157861328125,0.022981062614917752,-0.012804287637013476,-0.017866651343787086
1772795007803622400,4.061622314453125,0.024777882903814313,-0.011538696139497914,-0.006293437588401138
1772795007813666300,4.071666259765625,0.02791910353899002,-0.004476852582287393,-0.008318312745820731
1772795007823711500,4.08171142578125,0.03285831350684166,0.009110081894730683,-0.00957825881219469
1772795007833755400,4.09175537109375,0.008467384093999861,0.0019980796236835885,-0.004802724106609821
1772795007843799300,4.10179931640625,0.02896656676530838,-0.0011691722143586957,0.004695162945752963
1772795007853843500,4.111843505859375,0.020436638829112053,-0.008453617005195702,-0.00041898346389643846
1772795007863887400,4.121887451171875,0.027770634979009626,-0.00722188496562012,-0.005696558540640399
1772795007873932300,4.131932373046875,0.011311667609214782,0.012863127985049504,-0.004542009077500552
1772795007883976400,4.1419765625,0.004875497081875801,-0.017831544639432102,0.023166693980665877
1772795007894020400,4.152020263671875,0.02911678889095783,-0.006399587676883675,0.01822439700658433
1772795007904064500,4.162064453125,0.0406423915117979,0.005090740988709148,-0.003265276273107156
1772795007914108200,4.172108154296875,0.028674305820465085,0.006416769994658534,-0.011430544748529791
1772795007924153300,4.1821533203125,0.03032148850560188,-0.0003777455587434815,0.00691570680574514
1772795007934197500,4.192197509765625,0.015208090525865555,0.0015577856561663792,0.005847730514360591
1772795007944241400,4.202241455078125,0.030769232273101806,0.018364367166277953,0.013253924250788985
1772795007954285300,4.212285400390625,0.01595686306655407,-0.008064592571434331,0.008869955279212444
1772795007964329500,4.22232958984375,0.02388707154393196,0.0014727474251936654,-0.004319370169611647
1772795007974374400,4.23237451171875,0.016554828959703446,0.00024354584024404173,0.012566270780190824
1772795007984418300,4.242418212890625,0.01745382362604141,0.0045761122765019535,0.009956344010122119
1772795007994462500,4.25246240234375,0.02104746420383453,-0.003287822606699774,0.006096819037757813
1772795008004506400,4.26250634765625,0.028081016102433205,-0.010107721479819155,-0.012880770956305786
1772795008014550500,4.272550537109375,0.018952537751197814,0.006761726957830251,-0.021900884429086
1772795008024595500,4.282595458984375,0.01880114658176899,0.005198124623874901,0.010886126540368423
1772795008034639400,4.292639404296875,0.039300913774967194,-0.003712968095790711,0.006531356263812631
1772795008044683500,4.30268359375,0.025236732587218282,-0.002264816255736514,-0.007297381333401427
1772795008054727400,4.3127275390625,0.006829553759098053,-0.016456363279110518,-0.0009805811357218772
1772795008064771300,4.322771240234375,0.018351064726710317,-0.0031423211802961305,0.01872607205156237
1772795008074816500,4.33281640625,0.028076924449205398,-0.003460386711609317,0.008839185681613161
1772795008084860400,4.3428603515625,0.0346603944927454,0.0014200000328710302,-0.00420860327151604
1772795008094904300,4.352904296875,0.0173018479347229,0.008521319367233082,0.0056126887826249
1772795008104948200,4.3629482421875,0.025084172374010085,0.0011604882968706078,0.020342832198971882
1772795008114992400,4.372992431640625,0.01595803211033344,-0.004934289480850566,-0.006328454102855176
1772795008125037300,4.383037353515625,0.027480127599835393,-0.012917446279950673,0.0013114296584390104
1772795008135081200,4.393081298828125,0.021644261053204536,-0.00587707362738729,-0.004656200908543542
1772795008145125400,4.40312548828125,0.025385201147198676,0.00814541413912666,-0.0024085041801445183
1772795008155169500,4.41316943359375,0.01566051046848297,0.00941379866946081,-0.0075338204377796494
1772795008165213400,4.42321337890625,0.016709142738580703,-0.001713522494683275,-0.011794437024323269
1772795008175257300,4.43325732421875,0.02703589096367359,-0.0016564379956049379,-0.009714297148864716
1772795008185302500,4.443302490234375,0.02478898881971836,0.008978286479160305,-0.0010528700537979602
1772795008195346400,4.453346435546875,0.02643500246107578,-0.012134367327572544,-0.004962417313503101
1772795008205390300,4.463390380859375,0.03406652025282383,-0.009073726231494219,0.004935145714087412
1772795008215434200,4.473434326171875,0.020448329266905783,0.0004286069546564249,0.003807785651972517
1772795008225479400,4.4834794921875,0.02089607303440571,0.0030162676648120396,-0.01168207182418555
1772795008235523600,4.493523681640625,0.00428688353896141,0.009256645050348015,0.0027131496825255454
1772795008245567200,4.503567138671875,0.01910334439873695,-0.002373979143568431,0.000926174934208393
1772795008255611400,4.513611328125,0.015963877329230308,-0.0028769568047107893,0.0026254074669908732
1772795008265655300,4.5236552734375,0.020602058523893355,0.0029427811618486883,-0.0029406108960043638
1772795008275699500,4.533699462890625,0.01267243456840515,-0.009325142567651346,0.010893131669890135
1772795008285744400,4.543744384765625,0.015517887127399444,0.004267707910211175,-0.0067599225889891385
1772795008295788300,4.553788330078125,0.022849545189738273,-0.011215844835212919,-0.0037863136056810616
1772795008305832400,4.56383251953125,0.017015432208776472,-0.006376046971092,0.008585667578270659
1772795008315876600,4.573876708984375,0.02150456032156944,0.006075519379758042,0.008279067580820991
1772795008325920300,4.583920166015625,0.027341595911979672,0.004739230987164774,-0.0038999300479888913
1772795008335965400,4.59396533203125,0.02300210540294647,-0.007097116941635613,0.005533312536636367
1772795008346009600,4.604009521484375,0.019859131202101706,-0.006948655231521115,-0.0042383408226538445
1772795008356053200,4.61405322265625,0.014771452674269676,0.010679890778008847,-0.006960212667752057
1772795008366097400,4.624097412109375,0.021655951490998266,-0.00484111418001703,0.0021204079537652434
1772795008376141300,4.634141357421875,0.020011691415309906,-0.010261827479430939,0.025447653657849876
1772795008386186200,4.644186279296875,0.016121113717556,-0.0018798789086256875,0.01167029918800108
1772795008396230400,4.65423046875,0.015372925698757171,0.0013362901050597428,-0.0013621277992147951
1772795008406274300,4.6642744140625,0.011929507246613501,0.00556947297869483,-0.0004358158676885068
1772795008416318500,4.674318359375,0.03287935629487038,0.0013645469435199628,0.003945221361285075
1772795008426362400,4.6843623046875,0.024051906716823578,-0.006701202113606268,-0.006173893728805706
1772795008436407300,4.6944072265625,0.010732990938425063,-0.01601071899550734,0.0027286943115293976
1772795008446451500,4.704451416015625,0.02644377028942108,-0.008556053895541116,-0.0006169080556370318
1772795008456495400,4.714495361328125,0.016565350353717805,0.0014152839002024846,0.002370217996370047
1772795008466539300,4.724539306640625,0.008034253373742103,0.008063789995480328,-0.0035815939469728618
1772795008476583400,4.73458349609375,0.03242401374280453,-0.0028278461203561163,0.0044211409104987975
1772795008486628400,4.74462841796875,0.027187282133102415,-0.01022912165307207,-0.009307131986925378
1772795008496672500,4.754672607421875,0.0180599728256464,0.00855157693735673,0.004018487526895478
1772795008506716400,4.76471630859375,0.012073884153366089,-0.002321001139094005,0.008014534893119707
1772795008516760300,4.77476025390625,0.025091186636686323,-0.01988387748429086,0.0043403124929405745
1772795008526804500,4.784804443359375,0.01760813740491867,-0.013047119949560145,0.005620808156998828
1772795008536849400,4.794849365234375,0.024639351215958595,-0.014984869379375595,0.002210935781430453
1772795008546893300,4.804893310546875,0.027331659039855002,0.0031046646133618193,-0.013426486072409897
1772795008556937500,4.8149375,0.01476210032403469,0.007280218994402093,0.004833502837363631
1772795008566981400,4.8249814453125,0.0295756385743618,-0.0015600512493110727,0.003425152143090963
1772795008577025500,4.835025634765625,0.03810439746677875,-0.005576857134129386,0.0035382845282088964
1772795008587070500,4.845070556640625,0.01775309883356094,-0.02233480973378755,-0.0006863565626554191
1772795008597114400,4.8551142578125,0.025685060876607893,-0.004605781899802969,0.006735107808141037
1772795008607158500,4.865158447265625,0.016407529443502426,-0.015524198137177153,-0.009860792947467415
1772795008617202200,4.8752021484375,0.02463642860651016,-0.011209894585039,-0.007989784044353292
1772795008627246300,4.885246337890625,0.030922961530089377,0.0011248689942178315,0.0015412380926311015
1772795008637291500,4.89529150390625,0.026133389165997504,-0.0024758623364206866,0.01239091421328485
1772795008647335200,4.905335205078125,0.018950199663639068,0.0030289519039826697,0.004549964055093005
1772795008657379300,4.91537939453125,0.03346387818455696,0.005877889903073082,0.001965765381325036
1772795008667423500,4.925423583984375,0.030471710631251335,-0.002126377041070373,-0.01044967135186307
1772795008677467400,4.93546728515625,0.013561492362618445,-0.00006887083499459549,-0.004207936551235616
1772795008687512300,4.94551220703125,0.011617372557520865,-0.0016572280134714674,0.0037699013269972053
1772795008697556500,4.955556396484375,0.012514029136300087,0.003713356254858081,-0.002122627310315147
1772795008707600400,4.965600341796875,0.019694880551099775,-0.0024917956953140674,0.0025447251799050716
1772795008717644500,4.97564453125,0.031066753914952276,0.00589577319045784,0.005333926640171557
1772795008727688200,4.985688232421875,0.015353636476397514,-0.005214190984331071,-0.010876938586914912
1772795008737733400,4.9957333984375,0.007720365118980407,0.006980390089389402,-0.0030612872667610644
1772795008747777500,5.005777587890625,0.020287585747241973,0.0025258851945836793,-0.00022570764780975876
1772795008757821400,5.015821533203125,0.01954348938167095,-0.0088847664017434,-0.0008618135942611843
1772795008767865300,5.025865234375,0.03166647337377071,0.0025057408806314924,0.00872356907846406
1772795008777909200,5.0359091796875,0.01939502082169056,-0.004298108185874298,-0.0009188044785056262
1772795008787954400,5.045954345703125,0.026277181550860403,0.0009895105067378607,0.001546115197148174
1772795008797998300,5.055998291015625,0.017298925325274467,-0.01087086960573215,0.005572411571163683
1772795008808042200,5.066042236328125,0.03166355076432228,0.00013122345176816452,0.004485009060101583
1772795008818086400,5.07608642578125,0.04004208753108978,-0.005967163634457392,0.001714704096550122
1772795008828130600,5.086130615234375,0.011309914043545722,0.01355727284522727,-0.020552346763806417
1772795008838175200,5.09617529296875,0.02208382151424885,0.003602237159491051,-0.011288670326117425
1772795008848219400,5.106219482421875,0.01535071386694908,0.0034440075406106186,0.005543514270242304
1772795008858263600,5.116263671875,0.02791910353899002,-0.004829729132077773,-0.009956965064629912
1772795008868307500,5.126307373046875,0.0202864167034626,-0.01149397222342668,-0.00015442337673157453
1772795008878352400,5.136352294921875,0.02462649173438549,-0.006244210456326255,0.003915027152420952
1772795008888396500,5.146396484375,0.029713585740327834,0.003008256746648112,-0.007347695881687104
1772795008898440400,5.1564404296875,0.02462649173438549,-0.003277880597175681,0.004668147074664011
1772795008908484400,5.166484375,0.022981062614917752,0.0018068142432370222,0.016386166995065284
1772795008918528300,5.1765283203125,0.018341127854585648,-0.0028870460863516197,0.008225474230060353
1772795008928572400,5.186572509765625,0.026721418187022207,0.00873542562550574,0.007820975949242711
1772795008938617300,5.196617431640625,0.022084406036138534,0.005323889303347096,0.0031490020828321575
1772795008948661200,5.2066611328125,0.032408231651782984,-0.004084608711555484,-0.002181508757546544
1772795008958705400,5.216705322265625,0.03315583514869213,0.005994221175563871,0.012767373709706589
1772795008968749300,5.226749267578125,0.03285539089739323,-0.004152456633243128,0.005644243831513449
1772795008978794200,5.236794189453125,0.021631986093521117,0.012347827415162464,0.004384443895611912
1772795008988838400,5.24683837890625,0.020136779099702833,0.00905021920420986,-0.005697069997293874
1772795008998882300,5.25688232421875,0.0144523037225008,-0.01440343677920755,-0.00887802898781374
1772795009008926500,5.266926513671875,0.016994973942637444,-0.0065961023378942624,-0.009234112416487186
1772795009018970400,5.276970458984375,0.029714754784107206,-0.0014926371524634306,0.012472436750587075
1772795009029014300,5.28701416015625,0.034653964751958845,-0.005646035642267088,-0.0010361289815511553
1772795009039059500,5.2970595703125,0.02013736362159252,0.010973542245628777,-0.00027261552945710715
1772795009049103600,5.307103515625,0.02163140157163143,-0.00565240316343843,0.0001717581040225923
1772795009059147300,5.317147216796875,0.020583353823423384,0.00741999507456203,-0.018713952355505898
1772795009069191400,5.32719140625,0.018040099081397056,0.007816848334218958,-0.0047580721141304815
1772795009079235300,5.3372353515625,0.021183657804131506,-0.0058595596619386925,0.013576297206105663
1772795009089280300,5.3472802734375,0.027019524350762367,-0.009106832775007933,0.009047859996231273
1772795009099324400,5.357324462890625,0.024625322690606116,0.004036514090641867,-0.0063629043617285785
1772795009109368300,5.367368408203125,0.027318215036392212,0.002948034438167815,-0.012829807954048738
1772795009119412500,5.37741259765625,0.023874796584248542,0.009804703962232451,-0.0008259933622088283
1772795009129456400,5.387456298828125,0.02656710440814495,0.000518035378845525,-0.004773753740452229
1772795009139501300,5.397501220703125,0.03434942884743213,-0.00883467219081067,0.0057764736427459865
1772795009149545500,5.40754541015625,0.02986146977841854,-0.005480049121082993,0.0028492336849682033
1772795009159589400,5.41758935546875,0.014300912553071974,0.0035912876488582695,-0.002559411292383447
1772795009169633300,5.42763330078125,0.011757657811045647,-0.0017485418632481014,-0.0028485212989151475
1772795009179677400,5.437677490234375,0.022082652470469474,-0.005692306486386223,0.0022440343334339556
1772795009189722400,5.447722412109375,0.024627076256275176,-0.011907216641347623,-0.005932824115082621
1772795009199766300,5.457766357421875,0.02941489505469799,0.00808850431162864,-0.004772319835191593
1772795009209810400,5.467810546875,0.03195990336239338,-0.005396725639872602,-0.010527440162654965
1772795009219854800,5.477854736328125,0.01968903533220291,-0.0012449665513064247,-0.020896146099641917
1772795009229899500,5.4878994140625,0.02612345229387283,-0.008069678596861194,-0.005778711265604942
1772795009239943700,5.497943603515625,0.022233459118008614,-0.0011288818739878478,0.016851409886637702
1772795009249987800,5.50798779296875,0.021935352954268454,-0.0061063609009492205,-0.011070260068774223
1772795009260031700,5.51803173828125,0.01938976012468338,0.00822460943449114,0.0030415139872115105
1772795009270076000,5.528075927734375,0.021036358287930487,0.004731535733654164,0.015336813205759971
1772795009280120800,5.538120849609375,0.026722002708911893,0.0062409151000087145,0.005600541687104851
1772795009290164700,5.548164794921875,0.023280337822437287,-0.006020666224494925,0.014709931745380163
1772795009300209000,5.558208984375,0.02791910353899002,-0.009074220563482959,0.012162329621799289
1772795009310252500,5.56825244140625,0.011308744999766349,-0.009519485821173294,-0.007038209807407111
1772795009320296700,5.578296630859375,0.02387830371558666,0.004752126430533826,-0.0049063854104839264
1772795009330342000,5.588341796875,0.027170915520191193,0.008507418135221814,-0.014905335586471483
1772795009340385800,5.5983857421875,0.029865561431646346,-0.00290021894928941,-0.0004775087181013077
1772795009350429700,5.6084296875,0.0258241770863533,-0.004771703347261063,-0.0028116964198648927
1772795009360473900,5.618473876953125,0.004875497081875801,-0.01329294793679146,0.002024144505057484
1772795009370517800,5.628517822265625,0.02013911718726158,-0.00881257680672279,0.006531118801794946
1772795009380562700,5.638562744140625,0.011908464458584785,-0.0011627869977004592,-0.0011347579172812402
1772795009390606600,5.648606689453125,0.03869125744402408,-0.006011131211169413,-0.008753306629601866
1772795009400650800,5.658650634765625,0.028667876079678533,-0.010645054643356706,-0.0100991591474507
1772795009410695000,5.66869482421875,0.021038111853599547,0.00024332321960246188,-0.005339388266578316
1772795009420738800,5.67873876953125,0.018496610677242276,-0.005195864168129628,-0.0032457313224207606
1772795009430783700,5.68878369140625,0.009966098219156264,-0.000045790782684343864,0.0017682609146926552
1772795009440828000,5.698827880859375,0.01340834762752056,0.004602567029409693,0.004188236336922273
1772795009450871800,5.708871826171875,0.023133038306236267,-0.008079053779982496,0.003638877092162147
1772795009460915700,5.718915771484375,0.02717325360774994,0.005433833075891016,0.009014514849055558
1772795009470959600,5.728959716796875,0.021486440142989158,-0.008437288066546898,0.0002919230181258172
1772795009481004800,5.7390048828125,0.0163999306589365,-0.001938030845139292,-0.0032174916086252776
1772795009491048700,5.749048583984375,0.017448562929034232,0.009944752895383862,0.010331177805038168
1772795009501092600,5.759092529296875,0.014606617501378058,0.0036516697875427777,0.0010076335394289344
1772795009511136800,5.76913671875,0.021041618984937668,-0.0031390195449348536,-0.018132179545331747
1772795009521181000,5.779180908203125,0.02732639834284782,0.0018827330194151727,0.002103548150509596
1772795009531225600,5.7892255859375,0.015655249771475793,-0.004493317376609775,-0.012395288994302972
1772795009541269800,5.799269775390625,0.011165537136793136,0.0025732160554500297,-0.005084025266021489
1772795009551314000,5.80931396484375,0.026579963889718054,-0.00008285084046365227,0.012067262616334482
1772795009561357800,5.81935791015625,0.028079262536764144,0.0009061156727577326,-0.005533486066572368
1772795009571401700,5.829401611328125,0.015060206487774848,-0.0019443835249345282,0.0025069504527840763
1772795009581446700,5.83944677734375,0.013864274701476097,0.00212228710030904,-0.0027813286810647693
1772795009591490800,5.84949072265625,0.0259855051279068,0.0029685309493914245,-0.010984764609253033
1772795009601534700,5.85953466796875,0.023439912298321722,-0.002703220231088926,0.004893014472257345
1772795009611578600,5.86957861328125,0.021943536260724067,-0.005153651869553141,0.0026444957599509504
1772795009621622800,5.879622802734375,0.005934066224098205,-0.00952546632492158,-0.0005213569929823279
1772795009631668000,5.88966796875,0.02553834588229656,-0.0029135014100815167,-0.010715153887635095
1772795009641711600,5.899711669921875,0.016262568014860153,-0.010815494148194556,-0.009390161494724452
1772795009651755800,5.909755859375,0.017613982623815534,-0.0071256078171805706,-0.0008715769364498555
1772795009661799700,5.919799560546875,0.017913842353224754,0.0034567728365276704,-0.005011033095046877
1772795009671843800,5.92984375,0.016718495088815687,0.009488159101147902,0.0009347326999995857
1772795009681888800,5.939888671875,0.01956044051647186,0.0017206726130330934,-0.0046521823205519465
1772795009691932700,5.9499326171875,0.02823942153453827,-0.006857544023610535,-0.005858480237238109
1772795009701976800,5.959976806640625,0.02494797877371311,-0.00033843189508479555,-0.002362655744422227
1772795009712021000,5.97002099609375,0.0288391409933567,-0.018572557423706164,-0.005040341387921944
1772795009722064600,5.980064697265625,0.01252864218354225,-0.004726138610151247,-0.004427205325104296
1772795009732109800,5.99010986328125,0.03856500071585178,0.008706968428468099,0.006157344452803954
1772795009742153700,6.00015380859375,0.031982115194201466,-0.015120375709794461,-0.014421086600329727
1772795009752197600,6.01019775390625,0.02659633050262928,-0.009239030620199628,0.004369712117360904
1772795009762241800,6.02024169921875,0.011034019711613654,-0.005288665009627584,-0.006407191028026863
1772795009772285700,6.03028564453125,0.03437865494191646,-0.012454298305697739,-0.013951478060893713
1772795009782330600,6.04033056640625,0.03123743430674076,-0.0015471986176038626,-0.01028527457038872
1772795009792374800,6.050374755859375,0.01717149955332279,-0.001901928056118777,0.010385319145070388
1772795009802418700,6.060418701171875,0.020463526836037634,-0.0003457475518604042,-0.005364513574680313
1772795009812462800,6.070462890625,0.021661796709895133,-0.008106602228144766,0.002506895653856918
1772795009822506800,6.0805068359375,0.012834931653738021,0.003508926002983935,-0.005425660044234245
1772795009832551700,6.0905517578125,0.036927170380949975,-0.009435743356499006,0.0035588432590477168
1772795009842595800,6.100595947265625,0.034683190846443175,0.0030620190607674883,-0.00955366322705522
1772795009852639700,6.1106396484375,0.013137713992595671,-0.0049021733137808035,0.0037700657237786797
1772795009862683600,6.12068359375,0.016580547922849655,0.0036318245844013286,0.008319646186381579
1772795009872727800,6.130727783203125,0.01807867752611637,0.012454232090327422,0.0021777458978816866
1772795009882772700,6.140772705078125,0.008951368218660355,-0.003341360016888939,-0.000622141353180632
1772795009892817000,6.15081689453125,0.015835867035388945,-0.006754328531841747,-0.005633521508099511
1772795009902860500,6.160860595703125,0.02376724455654621,0.005730659456353169,-0.018922845865832642
1772795009912904700,6.17090478515625,0.018529928424954413,-0.009201958575155003,0.005765705653559416
1772795009922950000,6.180949951171875,0.023919220247864723,0.006976957164931809,-0.001090726979309693
1772795009932993500,6.19099365234375,0.018083938223123548,0.004060960120375967,0.010755577229568734
1772795009943037700,6.20103759765625,0.018084522745013237,-0.00318450836269767,0.013792926498316227
1772795009953081900,6.211081787109375,0.02317337031662464,0.007616186650231247,0.011482978188665583
1772795009963125800,6.221125732421875,0.01614157198369503,0.0059438381286192445,0.0030331388845108447
1772795009973170700,6.231170654296875,0.015245499926805496,-0.0009728031129983719,-0.0007278758831322193
1772795009983214800,6.24121484375,0.012702245184779167,-0.0014801938002434326,0.006526232564123347
1772795009993258800,6.2512587890625,0.018986440020799637,-0.014633418743335642,0.001975391726195812
1772795010003303000,6.261302978515625,0.027815643164515493,-0.012958491818036417,0.0027605233550537377
1772795010013346600,6.2713466796875,0.018839140504598617,0.005779114836870576,0.026066023018211124
1772795010023391700,6.281391845703125,0.018092706051468847,-0.0003969754155987175,0.01123842884306796
1772795010033436000,6.291435791015625,0.022432781082391738,-0.00906218706157233,-0.01597451745425351
1772795010043479800,6.301479736328125,0.013753800064325332,0.018125369636988034,0.011286277439631521
1772795010053523700,6.311523681640625,0.02916647325158119,0.00011642374568036757,0.0033526440293062476
1772795010063568000,6.32156787109375,0.025724223843216893,0.0010260653869074304,-0.0005897003883030265
1772795010073612800,6.33161279296875,0.0079167644739151,-0.002530612172873225,0.007010810343828052
1772795010083656700,6.34165673828125,0.024078210201859473,0.006794400818148278,-0.0020709793214686214
1772795010093700600,6.35170068359375,0.026920155629515646,0.0018269802484312094,-0.0027389782435260713
1772795010103744800,6.361744873046875,0.023030746975541114,0.0018147246967011596,-0.002383525002514943
1772795010113789000,6.371788818359375,0.020487492233514783,-0.01003164116097032,0.016245205888105557
1772795010123833600,6.38183349609375,0.0326081381380558,0.003762241464460385,-0.003960144935781136
1772795010133877800,6.391877685546875,0.025275895553827286,0.0017300974576821317,0.010385410476615653
1772795010143922000,6.401921875,0.027370237484574317,0.0019152356330858309,0.011547777920030056
1772795010153965800,6.4119658203125,0.029016835647821426,-0.008886377261872984,0.02177361392076127
1772795010164009700,6.422009765625,0.021833646145462987,-0.009687094048107974,0.019036370976595208
1772795010174055000,6.432054931640625,0.024826982742547986,0.0008446438345737988,0.019852628396078945
1772795010184098800,6.442098876953125,0.03575052781701088,-0.0009129095980810233,0.002922216722788289
1772795010194142700,6.452142822265625,0.020336101064085958,-0.0006930032158619724,0.003979744685394689
1772795010204186600,6.4621865234375,0.028265725019574164,-0.0059451447405386715,-0.007457211537612602
1772795010214230800,6.472230712890625,0.027216508227586745,-0.0048234666421834846,-0.014615622791741043
1772795010224275700,6.482275634765625,0.02601940739750862,-0.016424551360250915,0.0010908913760911672
1772795010234319400,6.4923193359375,0.03275309956669807,-0.0051100182238034905,0.006624870633007958
1772795010244363500,6.502363525390625,0.018835633373260496,0.0012858887918060645,0.01268866418399848
1772795010254407400,6.512407470703125,0.017639117065072058,-0.007762418158174841,-0.002834785034507513
1772795010264451600,6.52245166015625,0.017637363499402998,0.004243973124885815,-0.006392504915548488
1772795010274496500,6.53249658203125,0.011052139890193938,0.006418766730566858,-0.004106421538675203
1772795010284540400,6.54254052734375,0.02825929527878761,-0.004673997430960298,-0.0016320216486230491
1772795010294584600,6.55258447265625,0.021825462839007378,0.008874058919705566,-0.006957673650793731
1772795010304628700,6.562628662109375,0.030656419548392294,0.007609648453234695,0.0005180781905073672
1772795010314672400,6.57267236328125,0.008958382481336593,0.007802076027594739,-0.0001099997131153941
1772795010324717600,6.582717529296875,0.027813889598846436,0.0014960672228102338,-0.0010846260320860892
1772795010334761700,6.59276171875,0.028111411240696906,-0.004102388109307503,0.00013501542336307465
1772795010344805400,6.602805419921875,0.019133155015110967,-0.0016493312597391195,0.002076532279420644
1772795010354849500,6.612849609375,0.02945581158697605,-0.018705953995429445,-0.014092082974826916
1772795010364893400,6.6228935546875,0.02436813305914402,-0.0012843544218456371,-0.004211297552101314
1772795010374938400,6.6329384765625,0.01703530595302582,0.0048779664585308635,0.005767313088756054
1772795010384982500,6.642982421875,0.02975508679449558,0.006887890641990816,0.017177500035846605
1772795010395026400,6.6530263671875,0.02810848863124847,-0.00675446895409259,0.007700354377413168
1772795010405070600,6.663070556640625,0.02496668347418308,-0.0013246984194993274,0.003263851501001045
1772795010415114500,6.673114501953125,0.018382044386863708,0.003500947621683008,-0.0005218136507086456
1772795010425159400,6.683159423828125,0.024966098952293396,-0.01179360590726137,-0.004557818567985669
1772795010435203600,6.69320361328125,0.0251139829903841,-0.01985197994210757,-0.0031742278556339443
1772795010445247500,6.70324755859375,0.023767829078435897,-0.005424468167568556,0.004669270452670753
1772795010455291400,6.71329150390625,0.01568447586596012,-0.0025387829212413634,0.01299910923950374
1772795010465336600,6.723336669921875,0.02241875255703926,0.00295824187999533,-0.007919714482827111
1772795010475380500,6.73338037109375,0.029002807122468947,-0.0009309167538740439,0.005567689730273559
1772795010485424600,6.743424560546875,0.029303835895657538,0.00974206650520209,-0.008992604411346838
1772795010495468500,6.753468505859375,0.03289513838589191,-0.005067361825588159,0.010169036912731825
1772795010505512400,6.763512451171875,0.017930208966135976,-0.0019319852676650043,0.00801047063935548
1772795010515557600,6.7735576171875,0.02361643790900707,-0.009467397728443029,-0.004723466591630131
1772795010525601500,6.7836015625,0.0269090497136116,0.004977896868780953,-0.0006291921484749763
1772795010535645400,6.7936455078125,0.02601063956916332,-0.004511554573732428,0.015791598635399712
1772795010545689600,6.803689697265625,0.02242050612270832,0.0046394404283433685,0.00642357590724714
1772795010555733500,6.8137333984375,0.02990063274502754,-0.006103208250171155,-0.004133583540236577
1772795010565778400,6.8237783203125,0.02586217100918293,0.006560436798646697,-0.010030331694940104
1772795010575822600,6.833822509765625,0.018230068695545196,-0.00029765978081268255,0.004743468200042843
1772795010585866500,6.843866455078125,0.018826865544915198,-0.011373930606909562,0.0029821941485628483
1772795010595910700,6.85391064453125,0.020023381853103636,-0.009417906305709038,0.001747291191900149
1772795010605954300,6.863954345703125,0.01508709449470043,-0.00011443899703735951,-0.003187215201370418
1772795010615999500,6.87399951171875,0.027058687317371367,-0.00409946264574828,-0.00047219322216697035
1772795010626043600,6.884043701171875,0.02675999663174152,0.009895321979798609,-0.0031321879453491417
1772795010636087300,6.89408740234375,0.019876082336902617,0.011165932145726401,-0.0036151308903936293
1772795010646131500,6.90413134765625,0.023018472015857695,-0.0038339955221745182,-0.0006016100218053906
1772795010656175600,6.914175537109375,0.020175357544422148,-0.002413159234842169,-0.0008961816547438502
1772795010666220500,6.924220458984375,0.021671733582019806,-0.005843540108899469,0.008355457285279408
1772795010676264400,6.934264404296875,0.023917466682195663,0.0039436430380184895,-0.0009723156308755278
1772795010686308600,6.94430859375,0.023172201272845267,-0.0023215462742547967,0.018952364221261814
1772795010696352500,6.9543525390625,0.030505612900853154,0.001943458793038735,0.0142472370039206
1772795010706396700,6.964396728515625,0.03589198211431503,-0.001814778353984002,0.0020880126546602693
1772795010716441300,6.97444140625,0.027064532536268233,-0.020759265229466837,0.008273496356559917
1772795010726485500,6.984485595703125,0.03828735281825065,-0.009503984574653441,0.003963597268192097
1772795010736529700,6.99452978515625,0.02242518229782581,-0.0027601546039397362,-0.013149943286506458
1772795010746573600,7.004573486328125,0.018832710763812065,0.008227069677991675,-0.004983734096167609
1772795010756617500,7.014617431640625,0.027810966989398,-0.004384641400078544,0.0026385226768907157
1772795010766662700,7.02466259765625,0.014044891965389251,-0.0003703693948191358,-0.0037585122833028433
1772795010776706600,7.03470654296875,0.012250409764051437,-0.0103205833457876,-0.012199510693876071
1772795010786750500,7.04475048828125,0.006266074657440186,0.002464149636562797,-0.004331151938950643
1772795010796794400,7.05479443359375,0.015243746361136436,0.004623387767618987,0.004129939411580562
1772795010806838500,7.064838623046875,0.019732289952039718,-0.005896881727088475,-0.014594461272703483
1772795010816883500,7.074883544921875,0.005370587122440338,-0.002227930298715364,-0.009146735527133569
1772795010826927400,7.08492724609375,0.027667759126424787,-0.0009542342682019807,0.003649215823085978
1772795010836971500,7.094971435546875,0.02706862418949604,-0.0013511223480105398,-0.008039641934912651
1772795010847015700,7.105015625,0.017494155636429785,-0.005963322572156903,-0.001467825796548277
1772795010857060400,7.115060302734375,0.022283143478631973,-0.01210572917991085,0.014453381434734909
1772795010867104500,7.1251044921875,0.007619827353954315,0.0019887032989179716,0.007357943281065672
1772795010877148400,7.1351484375,0.014651041164994239,-0.0015115267993125597,-0.0015831501387525348
1772795010887192600,7.145192626953125,0.020486907711625098,0.008532930460746865,-0.00921114253285341
1772795010897236500,7.155236572265625,0.022734394377470015,0.01180707502689911,-0.005450630088709295
1772795010907281400,7.165281494140625,0.028121932634711265,-0.01176572695306968,-0.01196827748757787
1772795010917325600,7.17532568359375,0.019444705182313917,-0.006005085633695125,0.007585669356025755
1772795010927369500,7.185369384765625,0.02273556342124939,-0.01424461464692722,-0.001770279341842979
1772795010937413400,7.195413330078125,0.008819266271591186,-0.011061850716744084,0.014257612267462536
1772795010947457500,7.20545751953125,0.023335282880067823,-0.004744450584976584,-0.004381658283481374
1772795010957502700,7.215502685546875,0.013907529321312903,-0.0040853559177601705,-0.0021812712955288586
1772795010967546400,7.22554638671875,0.019292729490995406,-0.010621884971967664,0.005314025496458635
1772795010977590500,7.235590576171875,0.009864391410350799,-0.010466382741357664,0.0021181429314427076
1772795010987634400,7.245634521484375,0.014354104045033454,0.0077180949592584504,0.0036545221858657892
1772795010997678600,7.2556787109375,0.00492693500816822,-0.008905285745853324,0.011878178918175398
1772795011007723500,7.2657236328125,0.0194411980509758,0.00009480728138296398,0.0031469836556818334
1772795011017767400,7.275767333984375,0.01570025795698166,-0.003859364571337937,-0.010291192854521795
1772795011027811600,7.2858115234375,0.02976560818850994,-0.0100140461387753,0.0017818053828552365
1772795011037855700,7.295855712890625,0.025575755283236502,0.0026247892665938704,0.0013353311238344758
1772795011047899400,7.3058994140625,0.026924247282743452,0.013140395715093471,-0.006947627180814743
1772795011057944600,7.315944580078125,0.03650105392336845,0.010536495685367844,-0.004405696746194735
1772795011067988500,7.325988525390625,0.03350888637006283,0.004319693254953017,-0.0052661129678133875
1772795011078032400,7.336032470703125,0.011663549786806105,-0.0038116706675791643,-0.005898346456745639
1772795011088076500,7.34607666015625,0.023186229798197743,0.002720663985412102,0.0023653865576256064
1772795011098120400,7.356120361328125,0.02109013430178165,0.01579301084941835,0.0032181583289057013
1772795011108165400,7.366165283203125,0.015553542962670325,0.0010715684752241942,0.01054130429122597
1772795011118209500,7.37620947265625,0.016003040295839308,0.006021029838209506,0.009820552268624305
1772795011128253400,7.38625341796875,0.005677461114525795,0.0010229481271031545,-0.006644479515776038
1772795011138297600,7.396297607421875,0.019445289704203606,-0.0053153486622206396,0.002998716025101021
1772795011148342500,7.406342529296875,0.023186814320087432,-0.0013688937542523489,0.01771171651040204
1772795011158386400,7.416386474609375,0.032464930275082585,0.0016933256650925614,0.0036994755724444983
1772795011168430600,7.4264306640625,0.030369419300556182,0.0067557909782102795,0.003967451459402218
1772795011178474500,7.436474609375,0.02438333062827587,0.004740985694478149,-0.010022714644065126
1772795011188518400,7.446518310546875,0.035008769538998605,-0.00937206243656401,0.004711703088600188
1772795011198563600,7.4565634765625,0.02752688935101032,0.0047833789436786895,0.0009679317167028785
1772795011208607500,7.466607421875,0.010168927314877509,-0.0069341055455384775,-0.0006798080908600241
1772795011218651600,7.476651611328125,0.0170534261316061,0.002409604154442786,0.0031613227082882074
1772795011228695300,7.4866953125,0.016152093377709387,-0.004569565517173032,-0.00035195524282753465
1772795011238739500,7.496739501953125,0.018391396737098692,-0.0014812817872763844,0.0001982351189944893
1772795011248784600,7.50678466796875,0.017277298015356064,0.0011109066842356697,-0.01618171219783835
1772795011258828300,7.516828369140625,-0.1248907005161047,0.01697531368587515,-0.0366023040744476
1772795011268872400,7.52687255859375,0.1874053166180849,0.002372908852022374,0.04945384893626906
1772795011278916400,7.536916259765625,0.007694061633944511,0.027327174660982563,0.01911529056485742
1772795011288960500,7.54696044921875,0.0038262802898883816,0.0005768637396162376,-0.00031274661044590176
1772795011299005400,7.55700537109375,0.06251169349253177,0.0056224715327669395,0.025058809603890404
1772795011309049300,7.56704931640625,0.017941314882040024,-0.0052683682861592385,-0.014214366780780256
1772795011319093500,7.577093505859375,0.0074824647098779675,0.006958442548240418,-0.020972928529744965
1772795011329137400,7.587137451171875,-0.007779986351728439,0.012668655725719872,-0.006870716886548325
1772795011339181300,7.597181396484375,-0.005679799202084541,0.008592738352340529,-0.0014149813644587993
1772795011349226500,7.6072265625,0.04519464798867702,-0.0020840654194384115,0.0018842702434863894
