time,seconds_elapsed,z,y,x
1772795003816079600,0.07407958984375,-0.0023947181180119514,0.0002920175902545452,-0.0021052975207567215
1772795003826124500,0.08412451171875,-0.0011220298474654555,0.0009340657852590084,0.00048600498121231794
1772795003836168400,0.09416845703125,0.0004135488998144865,0.0007484434172511101,0.0009680371731519699
1772795003846212600,0.104212646484375,0.0015330328606069088,0.0015330049209296703,-0.0030067574698477983
1772795003856256500,0.114256591796875,-0.0014244075864553452,0.00015428615733981133,0.00012485357001423836
1772795003866300700,0.12430078125,0.0011429886799305677,-0.0011655702255666256,-0.0008189439540728927
1772795003876344300,0.13434423828125,0.0023627164773643017,0.00016228202730417252,0.0007264884188771248
1772795003886389500,0.144389404296875,0.00017460272647440434,-0.0008197566494345665,-0.0016918405890464783
1772795003896433700,0.15443359375,-0.0020403484813869,0.0005232756957411766,-0.00016132183372974396
1772795003906477600,0.1644775390625,0.0003854284295812249,-0.0002874075435101986,0.0005332680884748697
1772795003916521500,0.174521484375,0.0005390928126871586,-0.00009219814091920853,0.0005111639620736241
1772795003926565600,0.184565673828125,-0.001784672960639,-0.0002361559309065342,0.00045908987522125244
1772795003936610600,0.194610595703125,0.00018420210108160973,0.001363072544336319,0.0005965089658275247
1772795003946654500,0.204654541015625,0.001086650649085641,-0.00024229800328612328,0.0003004033351317048
1772795003956698600,0.21469873046875,-0.0002372066373936832,0.0021590739488601685,0.0005166520131751895
1772795003966742500,0.224742431640625,-0.0003245341358706355,-0.0025654365308582783,0.00018541212193667889
1772795003976786700,0.23478662109375,0.0001566990977153182,0.0008535296656191349,0.0008120539132505655
1772795003986830600,0.24483056640625,-0.0005444870330393314,0.0015565427020192146,-0.0004931043367832899
1772795003996875500,0.25487548828125,-0.0011881730752065778,0.0011839661747217178,-0.0012622252106666565
1772795004006919700,0.264919677734375,0.0008949153125286102,0.0006715338677167892,-0.001937555382028222
1772795004016963600,0.274963623046875,0.0006879876600578427,0.00033783959224820137,0.000629731803201139
1772795004027007500,0.285007568359375,-0.00069177191471681,0.00042033568024635315,0.0010385841596871614
1772795004037051400,0.295051513671875,-0.0010353196412324905,0.000717544462531805,-0.0010655793594196439
1772795004047096600,0.3050966796875,-0.0013464493677020073,-0.0014796429313719273,-0.0011264713248237967
1772795004057140500,0.315140380859375,0.00037847994826734066,-0.0004332871176302433,0.0031966380774974823
1772795004067184400,0.325184326171875,0.0008524985751137137,0.00029168836772441864,-0.0001893622102215886
1772795004077228500,0.335228515625,0.0018668966367840767,0.000010458286851644516,-0.00012997363228350878
1772795004087272700,0.345272705078125,-0.0002005153219215572,-0.0006771697662770748,0.0018825771985575557
1772795004097317400,0.3553173828125,-0.0007342128083109856,0.0011074147187173367,-0.000865805079229176
1772795004107361500,0.365361572265625,-0.0007042524521239102,0.0010246466845273972,-0.0017077148659154773
1772795004117405700,0.37540576171875,0.00023824023082852364,0.0009295716881752014,0.001327489735558629
1772795004127449600,0.38544970703125,0.002316752914339304,-0.0017484179697930813,-0.001622294425033033
1772795004137493500,0.395493408203125,0.001570268883369863,0.0010795928537845612,-0.0009900599252432585
1772795004147537400,0.405537353515625,-0.0007869926048442721,0.0005057789385318756,0.0026633976958692074
1772795004157582600,0.41558251953125,0.002250875346362591,-0.002255653031170368,0.0012231601867824793
1772795004167626500,0.42562646484375,0.00028031819965690374,0.00013088993728160858,0.0025014111306518316
1772795004177670400,0.43567041015625,0.001251040492206812,-0.0012270561419427395,0.00019085267558693886
1772795004187714600,0.445714599609375,0.0005059484392404556,-0.0012988299131393433,-0.0013402864569798112
1772795004197758500,0.455758544921875,0.0006699991645291448,-0.00030813366174697876,-0.0015413551591336727
1772795004207803400,0.465803466796875,0.0015004092128947377,0.002074635121971369,0.00026342214550822973
1772795004217847600,0.47584765625,-0.0019371991511434317,0.0013742237351834774,-0.00027799844974651933
1772795004227891700,0.4858916015625,-0.0004918289487250149,0.0005657668225467205,0.002203973475843668
1772795004237935900,0.495935791015625,-0.0015981059987097979,-0.0008353223092854023,0.0011802545050159097
1772795004247979500,0.5059794921875,-0.0001328107318840921,-0.0017661591991782188,0.000042875646613538265
1772795004258023700,0.516023681640625,0.0009279262740164995,-0.0008718692697584629,-0.0002804321120493114
1772795004268068900,0.52606884765625,-0.0005249375244602561,0.0006072451360523701,-0.0006825979216955602
1772795004278112800,0.53611279296875,0.00023113389033824205,0.00047035887837409973,0.0033395744394510984
1772795004288156700,0.54615673828125,0.0008891528705134988,0.0013432004489004612,-0.0004028137191198766
1772795004298200600,0.55620068359375,-0.000506077311001718,-0.0015788199380040169,-0.001587920356541872
1772795004308244700,0.56624462890625,0.00028745527379214764,-0.000014958903193473816,-0.0010313130915164948
1772795004318289700,0.57628955078125,0.000714093679562211,0.00008650729432702065,0.0031495834700763226
1772795004328333600,0.58633349609375,-0.0005239262827672064,0.000895921140909195,0.0022891582921147346
1772795004338377700,0.596377685546875,-0.0004717283300124109,-0.0017115799710154533,0.0013288225745782256
1772795004348421600,0.606421630859375,-0.0007872970891185105,-0.0010486613027751446,0.002125517465174198
1772795004358465800,0.6164658203125,0.001481449929997325,0.001527148298919201,-0.001343249692581594
1772795004368510700,0.6265107421875,-0.000047918991185724735,0.001215646043419838,-0.002392022404819727
1772795004378554600,0.6365546875,-0.0015083964681252837,-0.001763366162776947,0.00034038093872368336
1772795004388598800,0.646598876953125,-0.0013586390996351838,-0.0005797292105853558,0.0013436730951070786
1772795004398642700,0.656642578125,-0.001477948622778058,0.0005840719677507877,-0.0010342635214328766
1772795004408686600,0.6666865234375,0.001704994821920991,0.0010512364096939564,0.0018544787308201194
1772795004418730800,0.676730712890625,-0.0005365878459997475,0.002205716911703348,0.0032670190557837486
1772795004428775700,0.686775634765625,-0.001089596189558506,0.0014394116587936878,-0.00036349520087242126
1772795004438819600,0.696819580078125,-0.0007242105202749372,0.0019952128641307354,0.0005574258975684643
1772795004448863700,0.70686376953125,0.0008654771372675896,-0.0004590214230120182,-0.0025016730651259422
1772795004458907600,0.71690771484375,-0.0015691847074776888,0.001128489151597023,-0.0019128482090309262
1772795004468951800,0.726951904296875,0.0013918381882831454,-0.000006404239684343338,0.00205210386775434
1772795004478996700,0.736996826171875,0.000637364573776722,0.0002087792381644249,0.0008928298484534025
1772795004489040600,0.74704052734375,-0.0010718269040808082,-0.0006293952465057373,-0.0019471319392323494
1772795004499084800,0.757084716796875,0.002440083771944046,-0.000017667189240455627,0.0008268167730420828
1772795004509128400,0.76712841796875,0.0005729596596211195,-0.0003013364039361477,-0.002544298069551587
1772795004519172600,0.777172607421875,-0.0017852694727480412,0.00024594319984316826,-0.001178362756036222
1772795004529217800,0.7872177734375,-0.001396126695908606,-0.0010397681035101414,-0.0004069468122906983
1772795004539261700,0.79726171875,-0.0004733414389193058,-0.001623532734811306,0.000014631543308496475
1772795004549305600,0.8073056640625,-0.0011835420737043023,-0.0005552889779210091,-0.00035049812868237495
1772795004559349800,0.817349853515625,-0.0019273629877716303,-0.0006556902080774307,0.00039891537744551897
1772795004569393700,0.8273935546875,-0.001971430843695998,0.0019682548008859158,0.0009072802495211363
1772795004579437800,0.837437744140625,0.00208722660318017,-0.0011140876449644566,0.0011661394964903593
1772795004589482800,0.847482666015625,0.0001774184638634324,0.00032721227034926414,0.001342499628663063
1772795004599526700,0.857526611328125,-0.0020330052357167006,0.00019698403775691986,0.0007352989632636309
1772795004609570800,0.86757080078125,-0.0003466179477982223,-0.0005531525239348412,-0.0003189226845279336
1772795004619614700,0.87761474609375,-0.00007843761704862118,-0.0016293362714350224,0.001375913037918508
1772795004629658600,0.88765869140625,0.002258994849398732,0.0010934737510979176,0.00001905369572341442
1772795004639703800,0.897703857421875,0.0007844027131795883,-0.0015614312142133713,-0.00010877812746912241
1772795004649747700,0.907747802734375,-0.0011908167507499456,-0.0016921521164476871,0.0003744129789993167
1772795004659791600,0.91779150390625,0.0009082868928089738,-0.0005336767062544823,-0.0018029875354841352
1772795004669835500,0.92783544921875,-0.0008387794368900359,0.0030120075680315495,0.0005024254787713289
1772795004679879700,0.937879638671875,-0.00021719763753935695,0.0026815091259777546,0.0001420998014509678
1772795004689924600,0.947924560546875,0.0004300428554415703,-0.001242519821971655,-0.0016310366336256266
1772795004699968500,0.957968505859375,-0.0034211543388664722,-0.00022785551846027374,0.0011863213730975986
1772795004710012700,0.9680126953125,-0.0002708405954763293,-0.0010574925690889359,0.0018705535912886262
1772795004720056800,0.978056884765625,0.00027990108355879784,0.0020181923173367977,-0.000501257658470422
1772795004730100700,0.988100830078125,-0.0009369493927806616,-0.0016325712203979492,0.0014419651124626398
1772795004740144600,0.99814453125,-0.00046956463484093547,0.0010702707804739475,-0.0013319833669811487
1772795004750189800,1.00818994140625,0.0011387239210307598,0.0004931176081299782,-0.0006908029899932444
1772795004760233700,1.018233642578125,0.0010537689086049795,0.0009011137299239635,0.0003931035753339529
1772795004770277600,1.028277587890625,0.00039411161560565233,-0.0007167216390371323,0.0013507091207429767
1772795004780321500,1.038321533203125,0.0014982582069933414,-0.00040992535650730133,0.0026399455964565277
1772795004790365700,1.04836572265625,-0.0007024990627542138,-0.001538755837827921,-0.00031386211048811674
1772795004800410600,1.05841064453125,-0.000854565529152751,0.0023175012320280075,0.0012635281309485435
1772795004810454500,1.06845458984375,-0.0002680319594219327,-0.000703868456184864,0.0007612989284098148
1772795004820498700,1.078498779296875,-0.0018475528340786695,0.0012122760526835918,-0.0001830579712986946
1772795004830542600,1.08854248046875,0.0013058185577392578,0.0022520804777741432,0.0003497898578643799
1772795004840586800,1.098586669921875,0.00202673627063632,0.0013282299041748047,-0.0005463638808578253
1772795004850631700,1.108631591796875,-0.0013613376067951322,0.00021355506032705307,-0.0012428023619577289
1772795004860675600,1.118675537109375,0.000025370391085743904,0.0013840142637491226,-0.0009660999057814479
1772795004870719700,1.1287197265625,-0.0008012652397155762,-0.0003007478080689907,0.0023991581983864307
1772795004880763600,1.138763671875,-0.0019035476725548506,-0.0004219217225909233,-0.0010637501254677773
1772795004890807600,1.1488076171875,-0.0011755366576835513,0.00017985748127102852,0.00032732042018324137
1772795004900852700,1.158852783203125,-0.00011213641846552491,0.00005628680810332298,0.0012940478045493364
1772795004910897000,1.16889697265625,0.000009861891157925129,-0.0018485672771930695,-0.0005288841784931719
1772795004920940500,1.1789404296875,0.0009568819077685475,0.0021384512074291706,-0.002139564137905836
1772795004930984700,1.188984619140625,0.0005536832613870502,0.0002514524385333061,-0.0003812781651504338
1772795004941028600,1.199028564453125,-0.0018077417043969035,0.0011500027030706406,0.0007873168215155602
1772795004951072800,1.20907275390625,-0.0015314221382141113,-0.00020973803475499153,-0.0006667875568382442
1772795004961117700,1.21911767578125,0.0011639632284641266,0.0032449145801365376,0.0000807617325335741
1772795004971161600,1.22916162109375,0.0014613390667364001,-0.0008953921496868134,0.00006623601075261831
1772795004981205800,1.239205810546875,-0.0012268557911738753,-0.001998207066208124,0.0023810556158423424
1772795004991249700,1.249249755859375,-0.00081173877697438,-0.000027597881853580475,0.0039166612550616264
1772795005001293600,1.25929345703125,0.00025752047076821327,-0.00021774740889668465,-0.0032962439581751823
1772795005011338800,1.2693388671875,-0.00033239880576729774,0.002126050181686878,-0.0005981719004921615
1772795005021382700,1.279382568359375,0.002386688720434904,-0.000760816503316164,0.0020647230558097363
1772795005031426600,1.289426513671875,0.0006844253512099385,-0.0006972947157919407,0.0003481155727058649
1772795005041470700,1.299470703125,0.0006860231515020132,0.0010665166191756725,-0.0005885182181373239
1772795005051514600,1.3095146484375,-0.0009353520581498742,-0.0014427145943045616,0.000218322966247797
1772795005061559600,1.3195595703125,0.0006652077427133918,0.0004073833115398884,-0.0006948749651201069
1772795005071603700,1.329603759765625,-0.00025935779558494687,-0.002390902489423752,0.000008314615115523338
1772795005081647600,1.339647705078125,-0.0013286169851198792,-0.00260555325075984,0.00009247043635696173
1772795005091691800,1.34969189453125,0.0008140321588143706,-0.0017141629941761494,-0.0015211431309580803
1772795005101735700,1.359735595703125,-0.0006120905745774508,0.0023261182941496372,-0.000028175069019198418
1772795005111780600,1.369780517578125,0.0006024870090186596,0.0001555602066218853,0.0023649996146559715
1772795005121824800,1.37982470703125,-0.0016771787777543068,0.00005409354344010353,-0.0015306725399568677
1772795005131868700,1.38986865234375,-0.0009079495212063193,0.00038972264155745506,0.00028433382976800203
1772795005141912600,1.39991259765625,0.0024737324565649033,0.0017660446465015411,-0.000035778037272393703
1772795005151956500,1.40995654296875,-0.000024136505089700222,-0.0004167156293988228,0.0022615271154791117
1772795005162000600,1.420000732421875,-0.0001983072143048048,-0.00002123601734638214,-0.0031971540302038193
1772795005172045800,1.4300458984375,0.0014329322148114443,-0.001620809081941843,-0.000749488128349185
1772795005182089500,1.44008935546875,-0.0000073052942752838135,0.0005177091807126999,0.0006566609954461455
1772795005192133600,1.450133544921875,0.00047025876119732857,0.0006734048947691917,-0.0003386804601177573
1772795005202177800,1.460177734375,-0.0000181649811565876,-0.0008366075344383717,0.000364127685315907
1772795005212221700,1.4702216796875,-0.0001536529161967337,0.001054743304848671,0.0020783606451004744
1772795005222266400,1.480266357421875,-0.00036750471917912364,0.0007058689370751381,-0.002522516530007124
1772795005232310500,1.490310546875,0.00007946649566292763,-0.002011722419410944,-0.0032473811879754066
1772795005242354400,1.5003544921875,-0.0010457190219312906,-0.002555007115006447,-0.0001847457606345415
1772795005252398600,1.510398681640625,-0.00021992006804794073,-0.0017957231029868126,-0.0017714905552566051
1772795005262442500,1.5204423828125,-0.0010604136623442173,-0.0008215392008423805,-0.0003413730300962925
1772795005272487400,1.5304873046875,0.002016373910009861,-0.001832050271332264,0.0012287693098187447
1772795005282531600,1.540531494140625,-0.0009953947737812996,-0.000758263748139143,0.0013123925309628248
1772795005292575500,1.550575439453125,0.00045216421131044626,0.0006455010734498501,-0.001533074420876801
1772795005302619400,1.560619384765625,0.0011869303416460752,0.0002689301036298275,-0.0009836643002927303
1772795005312663600,1.57066357421875,0.00009968236554414034,0.0017458908259868622,-0.001207920489832759
1772795005322707500,1.58070751953125,-0.001094212755560875,-0.0008317832835018635,0.00024403491988778114
1772795005332752400,1.59075244140625,0.0003647138364613056,-0.00012111896649003029,-0.00026802567299455404
1772795005342796500,1.600796630859375,-0.00005686457734555006,-0.0016266042366623878,0.002129884669557214
1772795005352840400,1.61084033203125,0.0008029226446524262,0.0012543280608952045,0.0020293937996029854
1772795005362884600,1.620884521484375,0.002800825983285904,-0.0009427797049283981,0.0014677330618724227
1772795005372928500,1.630928466796875,-0.0025591286830604076,0.0009220046922564507,0.00013515434693545103
1772795005382973400,1.640973388671875,0.0008822079980745912,0.002243997994810343,-0.0015399738913401961
1772795005393017600,1.651017578125,0.001979752443730831,-0.001000694464892149,0.001162762870080769
1772795005403061500,1.6610615234375,-0.0007414654828608036,0.0008408813737332821,0.0005518337711691856
1772795005413105400,1.67110546875,-0.0006140011828392744,-0.0006452943198382854,0.00034763303119689226
1772795005423149600,1.681149658203125,0.0009535354329273105,-0.0005281153135001659,-0.0022545417305082083
1772795005433194500,1.691194580078125,0.000630125985480845,-0.0019323439337313175,0.0006345321889966726
1772795005443238400,1.70123828125,-0.0009014579700306058,0.003040044102817774,0.0005455826176330447
1772795005453282600,1.711282470703125,0.0028774417005479336,0.0004960019141435623,0.00033904053270816803
1772795005463326500,1.721326416015625,0.0009338665986433625,-0.00009415438398718834,-0.0009312873589806259
1772795005473370600,1.73137060546875,0.0003408660413697362,-0.0002262587659060955,-0.000054012169130146503
1772795005483415600,1.74141552734375,0.001286288257688284,-0.0006933771073818207,0.0010919459164142609
1772795005493459500,1.75145947265625,0.002263246104121208,0.0011342386715114117,-0.0022913888096809387
1772795005503503600,1.761503662109375,0.00010555295739322901,-0.001136372797191143,0.0000372790964320302
1772795005513547500,1.771547607421875,0.00031934224534779787,-0.0027015283703804016,-0.00043165480019524693
1772795005523591400,1.78159130859375,0.0009483807953074574,-0.0013880571350455284,-0.0015549762174487114
1772795005533635600,1.791635498046875,-0.00036878278478980064,-0.0009227413684129715,-0.0014896559296175838
1772795005543680500,1.801680419921875,0.002399573102593422,0.0006780847907066345,0.0010155796771869063
1772795005553724400,1.811724365234375,0.001191488467156887,-0.0017872839234769344,0.00010567216668277979
1772795005563768600,1.8217685546875,-0.0018021708820015192,0.0005600261501967907,-0.001750817522406578
1772795005573812500,1.8318125,0.00036216131411492825,-0.0013261325657367706,0.001132338191382587
1772795005583856600,1.841856689453125,0.0003941192990168929,0.0011269054375588894,-0.0018267001723870635
1772795005593901300,1.8519013671875,0.00015022477600723505,-0.0020890827290713787,0.0016317828558385372
1772795005603945500,1.861945556640625,0.0006466379854828119,-0.0015617767348885536,0.0012565434444695711
1772795005613989600,1.87198974609375,0.0008536761160939932,0.000545126385986805,-0.001384815201163292
1772795005624033500,1.882033447265625,-0.0008259796304628253,-0.0018429304473102093,0.0017667695647105575
1772795005634077400,1.892077392578125,0.0002744891680777073,-0.0007407693192362785,0.00033704086672514677
1772795005644122600,1.90212255859375,0.0008790267165750265,-0.0008017555810511112,0.0012313303304836154
1772795005654166500,1.91216650390625,0.000035721343010663986,0.002030367497354746,-0.002560771768912673
1772795005664210400,1.92221044921875,0.0018370836041867733,-0.0007475758902728558,0.0019756569527089596
1772795005674254300,1.93225439453125,0.0015613100258633494,-0.0005054664798080921,-0.00036988366628065705
1772795005684298500,1.942298583984375,-0.0004182176780886948,0.0006764442659914494,-0.0016852188855409622
1772795005694343700,1.95234375,-0.0006985869840718806,-0.00027726637199521065,-0.0006632065051235259
1772795005704387300,1.96238720703125,-0.0004823383060283959,-0.0016226954758167267,0.0003003251040354371
1772795005714431500,1.972431396484375,0.00074798334389925,-0.0005154712125658989,-0.0016474100993946195
1772795005724475600,1.9824755859375,0.002099005039781332,-0.0017258781008422375,0.00022692268248647451
1772795005734519600,1.99251953125,-0.00029049161821603775,0.00015482725575566292,0.000877865357324481
1772795005744564500,2.002564453125,0.003181205131113529,0.00043525826185941696,0.0017375338356941938
1772795005754608400,2.0126083984375,-0.000055617187172174454,-0.00009579537436366081,0.00022171717137098312
1772795005764652500,2.022652587890625,0.001335351844318211,-0.00007235957309603691,0.0012973678531125188
1772795005774696700,2.03269677734375,-0.0000345682492479682,0.000016767997294664383,0.002624704036861658
1772795005784740400,2.042740234375,0.0002924678847193718,0.0017241202294826508,-0.00038946146378293633
1772795005794784500,2.052784423828125,-0.000658750650472939,-0.002234400250017643,-0.0006063852924853563
1772795005804829700,2.06282958984375,-0.003412991762161255,-0.0005488856695592403,0.0013568969443440437
1772795005814873300,2.072873291015625,0.0010811107931658626,0.0007318621501326561,-0.0027238833718001842
1772795005824917500,2.08291748046875,0.002436659764498472,0.0010455823503434658,0.0025984439998865128
1772795005834961400,2.09296142578125,0.0010296649998053908,-0.0008607706986367702,-0.0028680688701570034
1772795005845005600,2.103005615234375,0.002272295765578747,0.0010814727284014225,0.0006811257917433977
1772795005855050500,2.113050537109375,-0.00021519901929423213,-0.0014999755658209324,0.002394667826592922
1772795005865094400,2.123094482421875,-0.0008897777297534049,-0.0005263239145278931,-0.00028180901426821947
1772795005875138600,2.133138671875,0.0014610596699640155,-0.001272660680115223,0.00113506312482059
1772795005885182700,2.1431826171875,0.0012562625342980027,0.0000016619451344013214,-0.00039652077248319983
1772795005895226400,2.153226318359375,-0.0035847059916704893,-0.0003869449719786644,-0.001789695699699223
1772795005905271600,2.163271484375,-0.0008738743490539491,0.0025633047334849834,0.0023445955011993647
1772795005915315700,2.173315673828125,0.0013224598951637745,-0.000395454466342926,-0.0010316334664821625
1772795005925359400,2.183359375,0.0010396321304142475,0.00088845519348979,-0.00041351374238729477
1772795005935403500,2.193403564453125,-0.0014655309496447444,0.0008935178630053997,0.0028563672676682472
1772795005945447400,2.203447509765625,-0.0021678064949810505,0.0004218718968331814,-0.0007277149707078934
1772795005955492600,2.21349267578125,0.0001572502078488469,0.001057279296219349,-0.001366143929772079
1772795005965536500,2.22353662109375,-0.0016217413358390331,-0.0007025375962257385,0.00017422845121473074
1772795005975580400,2.233580322265625,0.0006265640258789062,0.00001837499439716339,0.0017667388310655951
1772795005985624600,2.24362451171875,-0.0005534826195798814,-0.0009046765044331551,0.0010396958095952868
1772795005995668500,2.25366845703125,-0.0014591343933716416,-0.0005843937397003174,0.0008651403477415442
1772795006005713400,2.26371337890625,-0.0001224938314408064,-0.00013937987387180328,0.0020779441110789776
1772795006015757600,2.273757568359375,0.0004229305777698755,-0.0014762491919100285,-0.0014093429781496525
1772795006025801500,2.283801513671875,-0.0014703106135129929,0.00015893159434199333,-0.000750210601836443
1772795006035845600,2.293845703125,-0.0017610285431146622,0.0025150659494102,0.0003953255945816636
1772795006045889500,2.3038896484375,0.00015937699936330318,0.0033877831883728504,0.0005982584552839398
1772795006055934500,2.3139345703125,0.00038255658000707626,0.002188608516007662,-0.002777171554043889
1772795006065978600,2.323978515625,0.0002270280383527279,0.00003411155194044113,0.0008788158884271979
1772795006076022500,2.3340224609375,0.0011735945008695126,-0.001247713342308998,0.0008443546248599887
1772795006086066400,2.34406640625,0.0009885048493742943,0.0005563120357692242,-0.00002143892925232649
1772795006096110600,2.354110595703125,0.001101342379115522,0.001076921820640564,0.0012280152877792716
1772795006106154500,2.364154541015625,-0.00004275154788047075,-0.0008341623470187187,-0.0001280664000660181
1772795006116199400,2.374199462890625,0.000133198918774724,0.0010071932338178158,-0.0017107354942709208
1772795006126243600,2.38424365234375,0.0011622444726526737,0.0000053122639656066895,0.0025820136070251465
1772795006136287500,2.39428759765625,0.00038724811747670174,0.001285145990550518,-0.00016869616229087114
1772795006146331600,2.40433154296875,0.0009334624046459794,0.0004302714951336384,0.0011650149244815111
1772795006156375300,2.414375244140625,0.0013901503989472985,-0.0006602583453059196,-0.0016772202216088772
1772795006166420500,2.42442041015625,0.0017621939769014716,0.00006571924313902855,-0.0005395178450271487
1772795006176464600,2.434464599609375,-0.0013474149163812399,-0.0006041247397661209,0.0005420325323939323
1772795006186508500,2.444508544921875,-0.0006326225120574236,-0.0005093161016702652,0.0028595151379704475
1772795006196552400,2.454552490234375,0.003313424065709114,-0.0013936744071543217,-0.00031933095306158066
1772795006206596600,2.4645966796875,0.0023259238805621862,-0.0010943352244794369,-0.001236523617990315
1772795006216641500,2.4746416015625,-0.0006656033219769597,0.000217304565012455,-0.000644611835014075
1772795006226685400,2.484685546875,-0.00030181551119312644,-0.00011905282735824585,-0.0027232090942561626
1772795006236729600,2.4947294921875,0.00047800573520362377,-0.0014974200166761875,-0.0012104497291147709
1772795006246773500,2.5047734375,-0.0010927267139777541,0.00015986524522304535,0.0015432587824761868
1772795006256817700,2.514817626953125,0.0013690312625840306,0.00047069787979125977,0.001322062686085701
1772795006266862300,2.5248623046875,0.002390619833022356,0.0012171813286840916,-0.0014718595193699002
1772795006276906500,2.534906494140625,0.0009781491244211793,-0.00025744037702679634,0.0022758166305720806
1772795006286950700,2.54495068359375,-0.0012775483774021268,-0.00018233945593237877,0.002205509226769209
1772795006296994600,2.55499462890625,0.001332256244495511,-0.0004333457909524441,-0.0013515461469069123
1772795006307038500,2.56503857421875,-0.0016062755603343248,-0.0016765091568231583,0.0006112034898251295
1772795006317083600,2.575083740234375,-0.0008583167800679803,0.0012022596783936024,-0.0011412296444177628
1772795006327127600,2.58512744140625,-0.0024069449864327908,-0.0006635510362684727,0.0029501845128834248
1772795006337171500,2.59517138671875,-0.0015713247703388333,0.0013173683546483517,-0.0008143199956975877
1772795006347215400,2.60521533203125,-0.0015359047101810575,0.0005490458570420742,-0.0004838216700591147
1772795006357259500,2.615259521484375,-0.000011494499631226063,-0.0012815059162676334,-0.00039124698378145695
1772795006367303700,2.6253037109375,0.0012894596438854933,-0.00025112880393862724,-0.001807516091503203
1772795006377348400,2.635348388671875,0.00048810290172696114,-0.0005102888680994511,-0.0027076262049376965
1772795006387392500,2.645392578125,0.0003520153695717454,0.0020673843100667,-0.000026089372113347054
1772795006397436700,2.655436767578125,0.0019552726298570633,-0.00004166737198829651,-0.0028023184277117252
1772795006407480600,2.66548046875,-0.0004445016384124756,-0.000167901162058115,-0.0032587843015789986
1772795006417524500,2.6755244140625,-0.0024642148055136204,0.0009542484767735004,0.0021068835631012917
1772795006427569700,2.685569580078125,0.0008255881257355213,-0.0014071762561798096,0.00031564151868224144
1772795006437613600,2.695613525390625,-0.00036132370587438345,-0.002102852798998356,-0.0027004636358469725
1772795006447657500,2.705657470703125,-0.0009802423883229494,-0.0015790089964866638,0.0025366428308188915
1772795006457701400,2.715701416015625,-0.00033609173260629177,0.0006555118598043919,-0.0004539715009741485
1772795006467745500,2.72574560546875,0.0020873849280178547,-0.0011618291027843952,0.005462240893393755
1772795006477790700,2.735790771484375,-0.0015141721814870834,0.0003728535957634449,-0.00019324617460370064
1772795006487834400,2.74583447265625,0.0013921355130150914,-0.00013554375618696213,0.00042327551636844873
1772795006497878500,2.75587841796875,-0.0002609652001410723,0.001264569815248251,0.00012227147817611694
1772795006507922400,2.76592236328125,0.00114385224878788,-0.0007820692844688892,-0.0006628283299505711
1772795006517966600,2.775966552734375,0.0025867267977446318,0.0008917427621781826,-0.0014523325953632593
1772795006528011500,2.786011474609375,-0.002149438951164484,0.0006722984835505486,0.0012142907362431288
1772795006538055400,2.796055419921875,0.0011693574488162994,-0.001189736183732748,-0.0002233097329735756
1772795006548099600,2.806099609375,0.0010497814510017633,0.00038552330806851387,-0.002602045191451907
1772795006558143500,2.8161435546875,0.0005596921546384692,0.00040644221007823944,0.0005460465326905251
1772795006568187400,2.8261875,0.00023318862076848745,0.0020488137379288673,-0.0006861980655230582
1772795006578232600,2.836232666015625,-0.0008265991928055882,-0.0008108499459922314,0.002084487583488226
1772795006588276700,2.84627685546875,0.0002373337047174573,0.0005494928918778896,-0.0014945344300940633
1772795006598320400,2.8563203125,-0.0006838213885203004,0.0011953874491155148,-0.000148312421515584
1772795006608364500,2.866364501953125,-0.0007368182996287942,0.00028911372646689415,0.00040642404928803444
1772795006618408400,2.876408447265625,-0.0011983615113422275,-0.0007970207370817661,-0.0008297726744785905
1772795006628453400,2.886453369140625,-0.0005703881615772843,-0.0010164650157094002,-0.00042097741970792413
1772795006638497500,2.89649755859375,0.0024065100587904453,-0.00046736840158700943,-0.0013880402548238635
1772795006648541400,2.90654150390625,-0.0006502663600258529,-0.00024765729904174805,0.001978195272386074
1772795006658585600,2.916585693359375,0.0025552515871822834,-0.0011909808963537216,0.001711384393274784
1772795006668629500,2.92662939453125,-0.0004706319305114448,-0.00015394575893878937,0.00048819452058523893
1772795006678673400,2.93667333984375,0.001216362463310361,0.0005577257834374905,0.00012353796046227217
1772795006688718600,2.946718505859375,-0.000025203218683600426,0.0022877156734466553,-0.00175106106325984
1772795006698762500,2.956762451171875,-0.002680919598788023,0.00037420354783535004,-0.00016557273920625448
1772795006708806400,2.966806396484375,0.0013942494988441467,0.00005382532253861427,-0.00014613161329180002
1772795006718850600,2.9768505859375,0.001304668840020895,-0.0005662115290760994,-0.0027891891077160835
1772795006728894500,2.98689453125,-0.0025055157020688057,0.0026511531323194504,-0.0008940838160924613
1772795006738939600,2.996939697265625,-0.0025002863258123398,-0.00007476704195141792,0.0011843068059533834
1772795006748983600,3.006983642578125,-0.0011958698742091656,0.000010454095900058746,-0.0007355660200119019
1772795006759027500,3.01702734375,-0.000025580404326319695,0.0001926962286233902,-0.0016713525401428342
1772795006769071600,3.027071533203125,-0.0003667313139885664,-0.0007290239445865154,-0.0009262000676244497
1772795006779115500,3.037115478515625,0.00255412794649601,-0.0008255681023001671,-0.0008013513870537281
1772795006789160400,3.047160400390625,-0.0008195642731152475,0.001016806811094284,0.0005275659495964646
1772795006799204600,3.05720458984375,0.00013491988647729158,0.00009414227679371834,0.00090364133939147
1772795006809248500,3.06724853515625,0.002025231719017029,0.0006632599979639053,0.0009497140999883413
1772795006819292700,3.077292724609375,0.0006370798218995333,-0.001770287286490202,-0.0021155369468033314
1772795006829336300,3.08733642578125,-0.0008351156720891595,-0.00007678335532546043,0.001792652066797018
1772795006839381500,3.097381591796875,-0.001468330156058073,0.00018305610865354538,0.00014804862439632416
1772795006849425700,3.10742578125,-0.0008571347570978105,0.003689906559884548,-0.0015449229395017028
1772795006859469300,3.11746923828125,-0.0008954089134931564,0.001610413659363985,-0.002517034998163581
1772795006869513500,3.127513427734375,-0.002040035557001829,0.0009528789669275284,-0.0006064831977710128
1772795006879557600,3.1375576171875,0.0005534430965781212,-0.00003320956602692604,0.0002201161114498973
1772795006889602300,3.147602294921875,0.000053301453590393066,0.0005944976583123207,0.001317338552325964
1772795006899646500,3.157646484375,-0.00005695410072803497,-0.0016476931050419807,0.0007616090588271618
1772795006909690600,3.167690673828125,0.0002447819570079446,0.0013403738848865032,-0.0006179082556627691
1772795006919734500,3.177734619140625,0.00025632057804614305,-0.0010511712171137333,0.002292787656188011
1772795006929778700,3.18777880859375,-0.0016161480452865362,0.001246337778866291,-0.001671061385422945
1772795006939823600,3.19782373046875,0.001331200823187828,0.0014345678500831127,-0.0007216271478682756
1772795006949867500,3.207867431640625,0.0009615540038794279,0.001579177100211382,0.00008451170288026333
1772795006959911700,3.21791162109375,-0.0011873077601194382,-0.00010707508772611618,0.0003381881397217512
1772795006969955300,3.227955322265625,0.0006513386033475399,-0.0003182636573910713,0.000055094133131206036
1772795006979999500,3.23799951171875,0.0014762310311198235,0.0010577463544905186,-0.0008515966474078596
1772795006990043400,3.24804345703125,0.00007700617425143719,0.0009027505293488503,-0.00031283916905522346
1772795007000088600,3.258088623046875,0.0011430623708292842,-0.0005777827464044094,-0.00017253926489502192
1772795007010132500,3.268132568359375,0.0028424253687262535,-0.0002997484989464283,0.0027809063903987408
1772795007020176400,3.27817626953125,0.001233462942764163,0.0019019250757992268,0.00040447746869176626
1772795007030220500,3.288220458984375,-0.0005761550855822861,0.0008012400940060616,-0.0013564046239480376
1772795007040264700,3.2982646484375,-0.00013257376849651337,0.0019205124117434025,-0.0019058476900681853
1772795007050309400,3.308309326171875,0.001181163708679378,0.00020144181326031685,-0.00003897177521139383
1772795007060353500,3.318353515625,0.0009130206890404224,-0.0004239114932715893,0.0031134532764554024
1772795007070397700,3.328397705078125,-0.00021083332831040025,-0.002927016466856003,0.0031182467937469482
1772795007080441600,3.338441650390625,0.0014103143475949764,-0.0006850799545645714,-0.0006295004859566689
1772795007090485500,3.348485595703125,-0.00019610434537753463,-0.00011223414912819862,0.0005084682488813996
1772795007100530700,3.35853076171875,0.0003996343584731221,0.0021312320604920387,0.0009158506290987134
1772795007110574600,3.36857470703125,-0.0011455317726358771,0.0021424181759357452,-0.0018794031348079443
1772795007120618500,3.378618408203125,0.0011542277643457055,-0.0006753080524504185,0.0007226674351841211
1772795007130662400,3.388662353515625,0.00021786021534353495,-0.0003354884684085846,-0.000706118531525135
1772795007140706600,3.39870654296875,0.0009355987422168255,-0.0005040853284299374,-0.0019513815641403198
1772795007150751500,3.40875146484375,-0.00046602293150499463,-0.00007318565621972084,-0.0017343339277431369
1772795007160795400,3.41879541015625,0.0001513076713308692,-0.0005361158400774002,-0.0014079204993322492
1772795007170839600,3.428839599609375,0.0007656988454982638,-0.00035129254683852196,-0.005107583478093147
1772795007180883500,3.438883544921875,-0.00001546274870634079,-0.00012363353744149208,0.0012220984790474176
1772795007190927600,3.448927734375,-0.0022834106348454952,0.0011051492765545845,-0.0013603689149022102
1772795007200972500,3.45897265625,-0.00049826770555228,0.00027136877179145813,-0.003932563122361898
1772795007211016400,3.469016357421875,0.0014058924280107021,-0.001288178376853466,0.002071799710392952
1772795007221060400,3.479060302734375,0.0009883880848065019,-0.00019376864656805992,0.0006224742392078042
1772795007231104300,3.489104248046875,-0.0004702252917923033,-0.0016321418806910515,-0.0006180261261761189
1772795007241148400,3.4991484375,-0.000099624739959836,0.0005262764170765877,-0.00003559770993888378
1772795007251193300,3.509193359375,0.0004577748477458954,0.00015423260629177094,-0.0022388307843357325
1772795007261237500,3.519237548828125,0.0002935366937890649,-0.001477251760661602,-0.002041885629296303
1772795007271281400,3.529281494140625,-0.001481726416386664,0.00028922315686941147,-0.0002714161528274417
1772795007281325300,3.5393251953125,-0.0025213691405951977,0.0016025332733988762,0.0016079953638836741
1772795007291369500,3.549369384765625,-0.0013722151052206755,-0.0016174945048987865,-0.0027199075557291508
1772795007301413400,3.559413330078125,-0.00007996475324034691,-0.0016046823002398014,0.0009228368289768696
1772795007311458300,3.569458251953125,0.0009389605838805437,-0.0012936252169311047,0.00003600411582738161
1772795007321502500,3.57950244140625,0.00023370247799903154,0.0010723047889769077,-0.0009003569721244276
1772795007331546400,3.58954638671875,0.0010883109644055367,0.0020520812831819057,-0.0009104770142585039
1772795007341590500,3.599590576171875,-0.0008003566181287169,0.0013932245783507824,-0.0018553955014795065
1772795007351634400,3.609634521484375,0.0003842173609882593,-0.0017860573716461658,0.00004743307363241911
1772795007361679400,3.619679443359375,-0.0004758855211548507,0.0018486212939023972,0.000025426852516829967
1772795007371723500,3.6297236328125,-0.00035764119820669293,0.001409200020134449,0.0003655125619843602
1772795007381767200,3.63976708984375,-0.0007034242153167725,-0.0008789971470832825,0.0009237065678462386
1772795007391811300,3.649811279296875,-0.0010006329976022243,0.001711992546916008,0.0011194489197805524
1772795007401855500,3.65985546875,0.0004286771873012185,-0.0003564567305147648,-0.00029156694654375315
1772795007411900200,3.669900146484375,-0.0008632222888991237,-0.0020363787189126015,-0.001064948970451951
1772795007421944300,3.6799443359375,-0.0004360065213404596,0.001869991421699524,0.0001403955975547433
1772795007431988500,3.689988525390625,0.0014926547883078456,0.00038954056799411774,-0.0007672097417525947
1772795007442032400,3.700032470703125,-0.0011487938463687897,-0.0010891170240938663,-0.0007596184150315821
1772795007452076500,3.71007666015625,-0.0002041705884039402,0.0030883168801665306,-0.0028723040595650673
1772795007462121500,3.72012158203125,0.0005925403675064445,-0.001505853608250618,-0.003245287574827671
1772795007472165400,3.730165283203125,0.004126288928091526,-0.0008728201501071453,-0.001251911511644721
1772795007482209500,3.74020947265625,0.0005430910969153047,-0.0009450274519622326,0.0010387301445007324
1772795007492253200,3.750253173828125,-0.001229242654517293,0.00011144857853651047,-0.000718423631042242
1772795007502297300,3.76029736328125,0.000555823789909482,-0.0013486645184457302,0.0002917204983532429
1772795007512342500,3.770342529296875,0.00013158225920051336,-0.0007678288966417313,0.0009670982835814357
1772795007522386400,3.780386474609375,-0.0007867616368457675,-0.0015634740702807903,-0.0005702385096810758
1772795007532430300,3.790430419921875,0.0018042277079075575,0.00016438495367765427,-0.001805412583053112
1772795007542474200,3.80047412109375,0.000043201958760619164,-0.0004913415759801865,0.00009253923781216145
1772795007552518400,3.810518310546875,-0.0011541552376002073,0.0010631456971168518,0.0011809731367975473
1772795007562563300,3.820563232421875,0.0009920436423271894,-0.0023106527514755726,-0.0007697945111431181
1772795007572607200,3.830607177734375,0.0007960349321365356,-0.0009644245728850365,-0.0014771301066502929
1772795007582651400,3.8406513671875,-0.0011162288719788194,0.0013624881394207478,-0.0028309181798249483
1772795007592695600,3.850695556640625,0.0014446668792515993,0.0009560897015035152,-0.0003983868518844247
1772795007602739500,3.860739501953125,0.0005344564560800791,0.000056490302085876465,0.00025727401953190565
1772795007612784400,3.870784423828125,-0.00002081261482089758,0.0011824751272797585,-0.0014146585017442703
1772795007622828500,3.88082861328125,-0.0006461829179897904,-0.0006785867735743523,-0.0001193253556266427
1772795007632872400,3.89087255859375,-0.000329533067997545,-0.00043490761891007423,-0.0003121382324025035
1772795007642916400,3.900916259765625,-0.00019393186084926128,0.0012501874007284641,0.0007531408919021487
1772795007652960300,3.910960205078125,0.000309405499137938,-0.0013783522881567478,-0.0008021451067179441
1772795007663005400,3.92100537109375,0.000597961014136672,0.0005084932781755924,0.00008272635750472546
1772795007673049300,3.93104931640625,0.0013066282263025641,0.001028608065098524,0.0011772855650633574
1772795007683093200,3.94109326171875,-0.0000754843931645155,-0.0003310246393084526,-0.0014107144670560956
1772795007693137400,3.951137451171875,0.00017272215336561203,-0.00266262236982584,0.0033563438337296247
1772795007703181300,3.961181396484375,0.00111990119330585,0.00045161135494709015,-0.0026717246510088444
1772795007713226200,3.971226318359375,-0.0013264785520732403,0.0017722728662192822,0.0011246114736422896
1772795007723270400,3.9812705078125,-0.001044101663865149,-0.0030826092697679996,-0.0018332169856876135
1772795007733313300,3.991313232421875,0.00018414831720292568,-0.001195493619889021,-0.001085667754523456
1772795007743357400,4.001357421875,-0.0007666643941774964,0.000536265317350626,-0.000027463305741548538
1772795007753401300,4.0114013671875,-0.00012111419346183538,0.0006885984912514687,-0.0017268263036385179
1772795007763445500,4.021445556640625,-0.0014114078367128968,-0.00011126650497317314,0.0027337409555912018
1772795007773490400,4.031490478515625,0.0002738405019044876,-0.0008913064375519753,-0.00033715018071234226
1772795007783534300,4.041534423828125,-0.0010158778168261051,0.002114837523549795,0.00422888807952404
1772795007793578500,4.05157861328125,0.0004198323003947735,-0.0004130350425839424,0.002011806471273303
1772795007803622400,4.061622314453125,0.002237633801996708,-0.0006504678167402744,0.001106755924411118
1772795007813666300,4.071666259765625,0.0011361505603417754,0.001090174075216055,-0.0005494640208780766
1772795007823711500,4.08171142578125,-0.000375493080355227,-0.0012451126240193844,-0.0008077996899373829
1772795007833755400,4.09175537109375,0.00014382333029061556,-0.001092247199267149,-0.002518081571906805
1772795007843799300,4.10179931640625,0.00036027783062309027,0.000987138133496046,0.000338950427249074
1772795007853843500,4.111843505859375,-0.0013998053036630154,-0.0007590968161821365,-0.0011795839527621865
1772795007863887400,4.121887451171875,-0.001401478541083634,-0.0016724588349461555,0.0002614597324281931
1772795007873932300,4.131932373046875,0.0008640727028250694,-0.0004490027204155922,-0.0014453601324930787
1772795007883976400,4.1419765625,-0.0012801376869902015,0.0023213429376482964,-0.000872251926921308
1772795007894020400,4.152020263671875,0.0024573425762355328,-0.0013748579658567905,0.00020579562988132238
1772795007904064500,4.162064453125,-0.001741047715768218,-0.002328277099877596,-0.0010330448858439922
1772795007914108200,4.172108154296875,-0.0019088268745690584,-0.001823608297854662,-0.0026122992858290672
1772795007924153300,4.1821533203125,-0.00011567503679543734,0.0019015627913177013,0.0026876130141317844
1772795007934197500,4.192197509765625,-0.0022906786762177944,0.002024867106229067,-0.0023801159113645554
1772795007944241400,4.202241455078125,0.0023173466324806213,-0.0016799494624137878,-0.0009670047438703477
1772795007954285300,4.212285400390625,0.00023635267280042171,-0.00007672654464840889,-0.00010014581494033337
1772795007964329500,4.22232958984375,0.00004405889194458723,-0.0016167759895324707,0.0005968703189864755
1772795007974374400,4.23237451171875,0.0013791014207527041,0.00019151018932461739,-0.0007035512826405466
1772795007984418300,4.242418212890625,-0.0011888998560607433,-0.000726867001503706,0.0005144721362739801
1772795007994462500,4.25246240234375,0.000009256298653781414,-0.0006408467888832092,0.002227949909865856
1772795008004506400,4.26250634765625,-0.0023959039244800806,-0.0006656288169324398,-0.0016820927849039435
1772795008014550500,4.272550537109375,-0.0010829655220732093,-0.000016883015632629395,0.00032326753716915846
1772795008024595500,4.282595458984375,0.002547432668507099,-0.0005130171775817871,-0.0005828897701576352
1772795008034639400,4.292639404296875,-0.0024113734252750874,0.0019024698995053768,-0.002875338774174452
1772795008044683500,4.30268359375,0.0011436267523095012,-0.0004934286698698997,0.0022899929899722338
1772795008054727400,4.3127275390625,0.003282411489635706,-0.0016998406499624252,-0.002341510495170951
1772795008064771300,4.322771240234375,0.00005554978270083666,0.002060101367533207,0.000469089369289577
1772795008074816500,4.33281640625,-0.00013726309407502413,-0.0010222415439784527,-0.0004169442690908909
1772795008084860400,4.3428603515625,-0.002990761073306203,0.0017168098129332066,0.00040433171670883894
1772795008094904300,4.352904296875,0.0006899938452988863,0.0002430160529911518,-0.0005365630495361984
1772795008104948200,4.3629482421875,0.0007973611354827881,-0.0017826687544584274,0.0008462342666462064
1772795008114992400,4.372992431640625,0.0013121501542627811,-0.0006907726638019085,-0.0028773974627256393
1772795008125037300,4.383037353515625,-0.0006553554558195174,-0.0007636253722012043,0.00016625761054456234
1772795008135081200,4.393081298828125,-0.0008186072227545083,-0.000532196369022131,0.00031725887674838305
1772795008145125400,4.40312548828125,0.0018889580387622118,0.0010949084535241127,-0.004189827013760805
1772795008155169500,4.41316943359375,0.003318543080240488,-0.002442568074911833,0.00006137683521956205
1772795008165213400,4.42321337890625,0.00029899890068918467,-0.0005416776984930038,0.0034228397998958826
1772795008175257300,4.43325732421875,-0.0010733279632404447,-0.0009051994420588017,0.0009048210922628641
1772795008185302500,4.443302490234375,0.0016581167001277208,0.001387499738484621,0.0008491982007399201
1772795008195346400,4.453346435546875,0.00048153207171708345,0.0004391474649310112,0.00024812272749841213
1772795008205390300,4.463390380859375,-0.000015072408132255077,0.0005836989730596542,-0.0005862676189281046
1772795008215434200,4.473434326171875,-0.00008777668699622154,0.0016921069473028183,0.002089676447212696
1772795008225479400,4.4834794921875,0.0009245023829862475,-0.0011719344183802605,0.0023178686387836933
1772795008235523600,4.493523681640625,0.00027202803175896406,-0.0012190723791718483,-0.002105109393596649
1772795008245567200,4.503567138671875,-0.00007358111906796694,-0.002839510329067707,-0.0010671033523976803
1772795008255611400,4.513611328125,0.0018138012383133173,-0.001265049446374178,0.0009070979431271553
1772795008265655300,4.5236552734375,-0.002497435547411442,0.0004576779901981354,0.002790433820337057
1772795008275699500,4.533699462890625,0.003205724060535431,-0.003782873507589102,-0.0005054945359006524
1772795008285744400,4.543744384765625,-0.00010363245382905006,0.00031455326825380325,-0.0012490677181631327
1772795008295788300,4.553788330078125,0.0024889549240469933,-0.003976065665483475,0.0001520212972536683
1772795008305832400,4.56383251953125,-0.0014435851480811834,0.001039933878928423,-0.0016795853152871132
1772795008315876600,4.573876708984375,0.0008691039402037859,-0.00012759631499648094,-0.00032270466908812523
1772795008325920300,4.583920166015625,-0.0011951649794355035,-0.00026548048481345177,-0.001785127678886056
1772795008335965400,4.59396533203125,-0.0010340437293052673,0.00006927875801920891,-0.0019174867775291204
1772795008346009600,4.604009521484375,-0.0007647890015505254,0.0016518332995474339,-0.000977870193310082
1772795008356053200,4.61405322265625,0.0005438883090391755,-0.002392443362623453,0.0008724940707907081
1772795008366097400,4.624097412109375,0.0002779992064461112,-0.0009592799469828606,0.0009108958765864372
1772795008376141300,4.634141357421875,0.0005845290143042803,-0.00044289324432611465,0.0007015714654698968
1772795008386186200,4.644186279296875,-0.0009926060447469354,0.00098892068490386,-0.0023789857514202595
1772795008396230400,4.65423046875,0.0015850674826651812,0.0007955753244459629,-0.000041263061575591564
1772795008406274300,4.6642744140625,-0.00033845315920189023,0.00007105804979801178,-0.0006451372755691409
1772795008416318500,4.674318359375,0.00047727313358336687,-0.002346559427678585,0.00045368296559900045
1772795008426362400,4.6843623046875,0.0008216596907004714,-0.00023834547027945518,0.0015744181582704186
1772795008436407300,4.6944072265625,-0.0014883661642670631,0.00013875775039196014,0.0007134181214496493
1772795008446451500,4.704451416015625,-0.0016170160379260778,0.00029783695936203003,0.0010308749042451382
1772795008456495400,4.714495361328125,-0.0011131459614261985,0.0007159532979130745,0.0007062354125082493
1772795008466539300,4.724539306640625,0.0012269768631085753,0.00006846711039543152,0.0007701240247115493
1772795008476583400,4.73458349609375,-0.002210897859185934,-0.0006987894885241985,-0.000855203194078058
1772795008486628400,4.74462841796875,-0.001577822957187891,-0.002425584476441145,0.002239252207800746
1772795008496672500,4.754672607421875,-0.00048113317461684346,0.00177102442830801,-0.002369081834331155
1772795008506716400,4.76471630859375,0.0014276898000389338,0.0003098100423812866,-0.0015302918618544936
1772795008516760300,4.77476025390625,0.000693988986313343,0.0006749294698238373,-0.0011483945418149233
1772795008526804500,4.784804443359375,-0.0007356533315032721,0.0004879697225987911,-0.001185498433187604
1772795008536849400,4.794849365234375,-0.001685070339590311,0.0018573673442006111,-0.003401780966669321
1772795008546893300,4.804893310546875,-0.00029901182278990746,-0.0028515858575701714,-0.0005879602394998074
1772795008556937500,4.8149375,-0.0006396301323547959,0.004271038342267275,-0.0010966239497065544
1772795008566981400,4.8249814453125,0.00010667124297469854,-0.0008126194588840008,0.00004538637585937977
1772795008577025500,4.835025634765625,0.0005596749251708388,-0.00040222611278295517,0.0023508849553763866
1772795008587070500,4.845070556640625,-0.0011929001193493605,-0.0004674987867474556,0.0012099469313398004
1772795008597114400,4.8551142578125,0.0021885153837502003,0.0009205411188304424,0.0009454950923100114
1772795008607158500,4.865158447265625,0.0004805464996024966,-0.0010556899942457676,0.002207938116043806
1772795008617202200,4.8752021484375,0.00045258330646902323,0.000949137844145298,-0.0003478973521851003
1772795008627246300,4.885246337890625,0.0018499474972486496,-0.0008569653145968914,0.0023775151930749416
1772795008637291500,4.89529150390625,-0.0012422489235177636,0.0005089696496725082,0.002032902091741562
1772795008647335200,4.905335205078125,0.0011344566009938717,-0.0005684569478034973,-0.0008323336951434612
1772795008657379300,4.91537939453125,0.0005419033113867044,-0.0017897826619446278,0.0009575767908245325
1772795008667423500,4.925423583984375,0.0011042477563023567,0.00011802418157458305,0.00040879903826862574
1772795008677467400,4.93546728515625,-0.000278465508017689,-0.00027798768132925034,0.0009323763661086559
1772795008687512300,4.94551220703125,-0.0007881743367761374,-0.0003604940138757229,-0.0025460398755967617
1772795008697556500,4.955556396484375,0.0021082796156406403,0.000995853915810585,-0.0023284596391022205
1772795008707600400,4.965600341796875,0.0023083691485226154,0.004273410886526108,0.0008647505892440677
1772795008717644500,4.97564453125,0.000391958630643785,0.0008280794136226177,0.002267437521368265
1772795008727688200,4.985688232421875,-0.001573967863805592,0.0005895057693123817,0.002279585227370262
1772795008737733400,4.9957333984375,-0.0012828843900933862,0.0017951186746358871,0.0011450786842033267
1772795008747777500,5.005777587890625,0.0000974584836512804,0.0002860766835510731,0.000373485148884356
1772795008757821400,5.015821533203125,-0.000433575885836035,-0.0028860147576779127,0.00035084818955510855
1772795008767865300,5.025865234375,-0.0011572762159630656,-0.0006392598152160645,-0.0026610824279487133
1772795008777909200,5.0359091796875,0.0015977638540789485,0.00022946344688534737,-0.00047143135452643037
1772795008787954400,5.045954345703125,0.0006344213616102934,0.0010127611458301544,-0.0004618444945663214
1772795008797998300,5.055998291015625,-0.002431942382827401,0.001952857244759798,-0.0015100646996870637
1772795008808042200,5.066042236328125,0.001306789694353938,0.001177127007395029,-0.00006157264579087496
1772795008818086400,5.07608642578125,-0.000699103286024183,0.0009108111262321472,0.0012489689979702234
1772795008828130600,5.086130615234375,-0.002284618094563484,0.0008496171794831753,0.00005905644502490759
1772795008838175200,5.09617529296875,-0.0015298782382160425,0.0007100673392415047,0.0009086048230528831
1772795008848219400,5.106219482421875,0.0012477905256673694,-0.0015030675567686558,0.00039546797052025795
1772795008858263600,5.116263671875,-0.0005461148684844375,0.0015363977290689945,0.002849837299436331
1772795008868307500,5.126307373046875,-0.0007920445641502738,-0.0009441114962100983,0.0008407110581174493
1772795008878352400,5.136352294921875,0.0012769653694704175,0.0014601903967559338,-0.0017513434868305922
1772795008888396500,5.146396484375,-0.0010612629121169448,0.00040523987263441086,0.000012138858437538147
1772795008898440400,5.1564404296875,-0.0011632619425654411,0.0011762245558202267,0.0026071229949593544
1772795008908484400,5.166484375,0.00118179467972368,0.0010432964190840721,0.0005282857455313206
1772795008918528300,5.1765283203125,-0.00028800382278859615,0.0004507428966462612,-0.000562545086722821
1772795008928572400,5.186572509765625,0.00008086825255304575,-0.0016548852436244488,-0.00009360047988593578
1772795008938617300,5.196617431640625,0.0002936548553407192,-0.0007952172309160233,-0.000852867728099227
1772795008948661200,5.2066611328125,-0.0003175231395289302,-0.0008330447599291801,-0.0004887943505309522
1772795008958705400,5.216705322265625,-0.00001498800702393055,0.0022477000020444393,-0.002402808051556349
1772795008968749300,5.226749267578125,0.0020936112850904465,0.0004784748889505863,-0.00002191285602748394
1772795008978794200,5.236794189453125,0.0008975856471806765,-0.001072550192475319,0.0007298975251615047
1772795008988838400,5.24683837890625,0.00016896531451493502,-0.0007769647054374218,0.0012383298017084599
1772795008998882300,5.25688232421875,0.0009732400067150593,-0.00018094945698976517,-0.0012048542266711593
1772795009008926500,5.266926513671875,0.0013497944455593824,-0.00025892211124300957,-0.0005439653759822249
1772795009018970400,5.276970458984375,-0.00024677050532773137,0.0006878315471112728,0.0014126590685918927
1772795009029014300,5.28701416015625,0.0002424808917567134,-0.0002834005281329155,-0.0008001772221177816
1772795009039059500,5.2970595703125,-0.0005221126484684646,0.0012854677625000477,-0.0008776751928962767
1772795009049103600,5.307103515625,0.0014194740215316415,0.0009349226020276546,0.0016288962215185165
1772795009059147300,5.317147216796875,-0.0009083951590582728,-0.0008246279321610928,-0.00033438607351854444
1772795009069191400,5.32719140625,0.001906354445964098,-0.0005483324639499187,-0.0006533401319757104
1772795009079235300,5.3372353515625,0.002691187895834446,0.001129991840571165,-0.002270677825435996
1772795009089280300,5.3472802734375,-0.00015080964658409357,-0.00041022012010216713,0.00024292187299579382
1772795009099324400,5.357324462890625,0.001984246540814638,0.00016209296882152557,0.0002517102984711528
1772795009109368300,5.367368408203125,-0.0009923598263412714,0.0022485372610390186,0.0007054031593725085
1772795009119412500,5.37741259765625,0.0008569392375648022,0.0011774138547480106,-0.0016669407486915588
1772795009129456400,5.387456298828125,-0.0006593159632757306,0.0014372332952916622,-0.0025794198736548424
1772795009139501300,5.397501220703125,-0.002208476886153221,-0.00008795922622084618,0.00013993389438837767
1772795009149545500,5.40754541015625,-0.0004693685914389789,-0.0013282084837555885,-0.000518165819812566
1772795009159589400,5.41758935546875,-0.0015729825245216489,-0.0003289901651442051,-0.0006063164328224957
1772795009169633300,5.42763330078125,0.0005301532801240683,-0.001564193982630968,-0.001161624095402658
1772795009179677400,5.437677490234375,-0.002033139346167445,0.0013264007866382599,0.00013187318108975887
1772795009189722400,5.447722412109375,0.00008616561535745859,-0.0005317325703799725,0.0009943199111148715
1772795009199766300,5.457766357421875,0.001444111461751163,-0.00014184555038809776,0.0013184266863390803
1772795009209810400,5.467810546875,-0.001490952679887414,0.000001398380845785141,-0.00032939185621216893
1772795009219854800,5.477854736328125,0.0011591590009629726,-0.0007554721087217331,0.0020666541531682014
1772795009229899500,5.4878994140625,0.0005939379334449768,0.00042662350460886955,0.00001663784496486187
1772795009239943700,5.497943603515625,-0.001300634816288948,0.000540073961019516,-0.0009008211782202125
1772795009249987800,5.50798779296875,0.0006737693911418319,0.0004082559607923031,0.0022297734394669533
1772795009260031700,5.51803173828125,-0.0003052086103707552,0.000921979546546936,-0.0009726777789182961
1772795009270076000,5.528075927734375,-0.001257747644558549,-0.0009845001623034477,0.00175387947820127
1772795009280120800,5.538120849609375,-0.00004228099714964628,0.0008946261368691921,-0.000045884749852120876
1772795009290164700,5.548164794921875,-0.0016340997535735369,-0.0009136563166975975,-0.00046310870675370097
1772795009300209000,5.558208984375,-0.002746768295764923,0.0024264799430966377,-0.003781141247600317
1772795009310252500,5.56825244140625,0.0003044009208679199,0.001776744145900011,0.002422938123345375
1772795009320296700,5.578296630859375,0.0024272066075354815,-0.0013205124996602535,-0.002985675586387515
1772795009330342000,5.588341796875,-0.0016796833369880915,-0.0004324098117649555,-0.0016537244664505124
1772795009340385800,5.5983857421875,-0.0002210700185969472,0.00020887935534119606,0.0006957162404432893
1772795009350429700,5.6084296875,-0.00013717380352318287,0.0008829007856547832,-0.000005754409357905388
1772795009360473900,5.618473876953125,-0.00013264641165733337,0.00011724187061190605,-0.0003208063426427543
1772795009370517800,5.628517822265625,0.00033163244370371103,-0.0008932752534747124,0.00039329694118350744
1772795009380562700,5.638562744140625,-0.000611392839346081,0.0028133122250437737,-0.00016729847993701696
1772795009390606600,5.648606689453125,-0.0014342799549922347,-0.000578736886382103,-0.000028297072276473045
1772795009400650800,5.658650634765625,-0.002310459967702627,0.00038958853110671043,-0.0012381711276248097
1772795009410695000,5.66869482421875,0.00040145288221538067,-0.0010054213926196098,0.0013548597926273942
1772795009420738800,5.67873876953125,0.0003146338276565075,-0.0006882390007376671,0.00026456161867827177
1772795009430783700,5.68878369140625,0.0005296991439536214,0.00008832057937979698,-0.0010897871106863022
1772795009440828000,5.698827880859375,-0.001214937656186521,0.001899536233395338,-0.001020544907078147
1772795009450871800,5.708871826171875,0.0009357421658933163,0.0005163629539310932,0.0011125273304060102
1772795009460915700,5.718915771484375,-0.0005566933541558683,0.001317707821726799,-0.0004970872541889548
1772795009470959600,5.728959716796875,-0.0016960432985797524,0.0001273173838853836,-0.0016840856987982988
1772795009481004800,5.7390048828125,-0.0005719229811802506,-0.00026736315339803696,0.0004714768147096038
1772795009491048700,5.749048583984375,-0.0016553247114643455,-0.0009465999901294708,0.00022259820252656937
1772795009501092600,5.759092529296875,-0.0007493173470720649,-0.0002824077382683754,-0.00032707827631384134
1772795009511136800,5.76913671875,0.00038072618190199137,0.0006414256058633327,0.0015224810922518373
1772795009521181000,5.779180908203125,-0.00011488806921988726,-0.0003612544387578964,-8.471542969346046e-7
1772795009531225600,5.7892255859375,0.0017230923986062407,0.0011663702316582203,0.0013743218732997775
1772795009541269800,5.799269775390625,-0.000028735026717185974,-0.0004301946610212326,0.0011596711119636893
1772795009551314000,5.80931396484375,0.0012211233843117952,-0.0014982204884290695,-0.002775461645796895
1772795009561357800,5.81935791015625,0.0011625338811427355,-0.00021990342065691948,-0.00011309958063066006
1772795009571401700,5.829401611328125,0.000902901403605938,-0.0005835373885929585,0.0017458441434428096
1772795009581446700,5.83944677734375,-0.0026657343842089176,-0.0010661021806299686,-0.0017069443129003048
1772795009591490800,5.84949072265625,-0.00034442037576809525,0.0011985069140791893,-0.0029182168655097485
1772795009601534700,5.85953466796875,0.0006563955685123801,0.0026475321501493454,-0.0009844956221058965
1772795009611578600,5.86957861328125,0.0009893279056996107,-0.0005960641428828239,0.0009422489674761891
1772795009621622800,5.879622802734375,-0.0012543854536488652,-0.0008469340391457081,0.000691911787725985
1772795009631668000,5.88966796875,0.0014036052161827683,-0.0021197404712438583,0.0015480667352676392
1772795009641711600,5.899711669921875,0.0013596630888059735,-0.0014720596373081207,-0.00007273303344845772
1772795009651755800,5.909755859375,0.0002680497709661722,-0.0029135108925402164,0.0014047181466594338
1772795009661799700,5.919799560546875,-0.0004499384667724371,-0.00039043230935931206,-0.0016227634623646736
1772795009671843800,5.92984375,0.0010827030055224895,-0.0004357956349849701,0.002127702347934246
1772795009681888800,5.939888671875,-0.000040618469938635826,-0.00041901785880327225,0.0005364636890590191
1772795009691932700,5.9499326171875,-0.001422156230546534,0.0018205051310360432,-0.001511643989942968
1772795009701976800,5.959976806640625,-0.0008647566428408027,-0.0021286960691213608,0.001233542338013649
1772795009712021000,5.97002099609375,-0.0006345412693917751,0.0008177408017218113,-0.001211856142617762
1772795009722064600,5.980064697265625,0.0001817176816985011,-0.0009876154363155365,0.00024595821741968393
1772795009732109800,5.99010986328125,0.0019913669675588608,0.0011785691604018211,0.0021067901980131865
1772795009742153700,6.00015380859375,0.0010683152358978987,0.0002456638030707836,0.0025595275219529867
1772795009752197600,6.01019775390625,0.0008730256231501698,-0.00024343980476260185,-0.0015725917182862759
1772795009762241800,6.02024169921875,0.001117237494327128,-0.0011060377582907677,0.0012298526708036661
1772795009772285700,6.03028564453125,-0.00034894212149083614,-0.0012067905627191067,-0.0010935589671134949
1772795009782330600,6.04033056640625,-0.000033357529900968075,-0.0031570238061249256,0.0007203200366348028
1772795009792374800,6.050374755859375,-0.001305552665144205,-0.0005680550821125507,-0.0022324449382722378
1772795009802418700,6.060418701171875,0.00026917445939034224,-0.0003925529308617115,-0.00037781958235427737
1772795009812462800,6.070462890625,-0.0005180147709324956,-0.001944023184478283,0.0001618515234440565
1772795009822506800,6.0805068359375,-0.0022871526889503,-0.0005485266447067261,0.00004680291749536991
1772795009832551700,6.0905517578125,0.00033756741322577,-0.00005404651165008545,-0.0013162358663976192
1772795009842595800,6.100595947265625,0.0006528857629746199,-0.00028201332315802574,0.0021453408990055323
1772795009852639700,6.1106396484375,0.00038432294968515635,-0.0005288533866405487,0.00010382605250924826
1772795009862683600,6.12068359375,-0.0012993274722248316,-0.0019613676704466343,-0.0011025859275832772
1772795009872727800,6.130727783203125,0.0004990204470232129,-0.0004909266717731953,0.0007175181526690722
1772795009882772700,6.140772705078125,0.0025376700796186924,-0.0022254432551562786,-0.0009011511574499309
1772795009892817000,6.15081689453125,0.0023326510563492775,0.0014494992792606354,0.0006362901767715812
1772795009902860500,6.160860595703125,-0.0002346363035030663,-0.0018144706264138222,0.002387318527325988
1772795009912904700,6.17090478515625,0.00026422087103128433,-0.0018287473358213902,0.003222886472940445
1772795009922950000,6.180949951171875,-0.0012860052520409226,-0.000558419618755579,0.0004345568595454097
1772795009932993500,6.19099365234375,0.0009769829921424389,-0.0012858458794653416,-0.00017421290976926684
1772795009943037700,6.20103759765625,-0.00018948165234178305,-0.0008040801621973515,0.0017070439644157887
1772795009953081900,6.211081787109375,0.0010822564363479614,-0.0004582996480166912,0.0019789505749940872
1772795009963125800,6.221125732421875,-0.00009113235864788294,-0.000568821094930172,0.0016828071093186736
1772795009973170700,6.231170654296875,0.0037841256707906723,-0.0007785973139107227,0.00023943197447806597
1772795009983214800,6.24121484375,0.0024461536668241024,-0.00173893291503191,0.0030330875888466835
1772795009993258800,6.2512587890625,-0.001651410711929202,0.0007453490979969501,-0.0002788899000734091
1772795010003303000,6.261302978515625,0.00034649274311959743,0.0002824920229613781,-0.0011268403613939881
1772795010013346600,6.2713466796875,-0.0006412985967472196,-0.002127301413565874,0.0024267109110951424
1772795010023391700,6.281391845703125,-0.0014415784971788526,-0.0018263645470142365,-0.0007911866996437311
1772795010033436000,6.291435791015625,0.0014870843151584268,-0.0004552733153104782,0.000730319763533771
1772795010043479800,6.301479736328125,0.0014940084656700492,-0.0010097436606884003,0.0006943671032786369
1772795010053523700,6.311523681640625,0.0012972978875041008,-0.00042484840378165245,0.0003661119844764471
1772795010063568000,6.32156787109375,0.002155102090910077,0.002406358253210783,0.002910229843109846
1772795010073612800,6.33161279296875,0.0023407707922160625,-0.0016766935586929321,0.00011448469012975693
1772795010083656700,6.34165673828125,0.0005929383914917707,0.000747316051274538,0.00017600366845726967
1772795010093700600,6.35170068359375,-0.0005338289774954319,-0.0030990205705165863,-0.0010060452623292804
1772795010103744800,6.361744873046875,-0.001036633737385273,-0.0005833986215293407,-0.00027234439039602876
1772795010113789000,6.371788818359375,0.00008247676305472851,0.0008306708186864853,-0.002108324086293578
1772795010123833600,6.38183349609375,-0.001882669748738408,0.0007252097129821777,-0.0007080340292304754
1772795010133877800,6.391877685546875,0.0006571600679308176,-0.001280126627534628,0.0008022385882213712
1772795010143922000,6.401921875,0.0006776663940399885,0.0005020606331527233,-0.00025610148441046476
1772795010153965800,6.4119658203125,0.0024020629934966564,-0.0005654199048876762,0.0011626812629401684
1772795010164009700,6.422009765625,-0.002589500043541193,0.0023185177706182003,0.0017405874095857143
1772795010174055000,6.432054931640625,-0.0019313921220600605,-0.00037348363548517227,0.00228384998627007
1772795010184098800,6.442098876953125,0.00016824412159621716,-0.0002331351861357689,-0.0013777300482615829
1772795010194142700,6.452142822265625,0.000004468020051717758,0.0005997256375849247,-0.002302851527929306
1772795010204186600,6.4621865234375,-0.00018142058979719877,0.001649277750402689,-0.00018750270828604698
1772795010214230800,6.472230712890625,0.0008142865262925625,-0.0005515185184776783,-0.0008249211823567748
1772795010224275700,6.482275634765625,-0.00015403889119625092,-0.0018053348176181316,-0.0003484816988930106
1772795010234319400,6.4923193359375,0.00017283635679632425,-0.0004824022762477398,-0.0009332280606031418
1772795010244363500,6.502363525390625,0.0005286346422508359,-0.0027215881273150444,0.0007062139920890331
1772795010254407400,6.512407470703125,-0.0006602737121284008,-0.0005370732396841049,-0.0010675484081730247
1772795010264451600,6.52245166015625,-0.00025600584922358394,0.0009785317815840244,-0.00208887062035501
1772795010274496500,6.53249658203125,0.0012191125424578786,0.0005622738972306252,-0.001976204104721546
1772795010284540400,6.54254052734375,-0.00022352189989760518,0.0003561452031135559,-0.0014259950257837772
1772795010294584600,6.55258447265625,0.0019355920376256108,-0.0004738876596093178,0.00008941837586462498
1772795010304628700,6.562628662109375,0.0012010923819616437,-0.0018563345074653625,0.0013799862936139107
1772795010314672400,6.57267236328125,-0.00032015895703807473,-0.001558846328407526,-0.0014711612602695823
1772795010324717600,6.582717529296875,-0.0006818162510171533,-0.0006610951386392117,-0.0008208173094317317
1772795010334761700,6.59276171875,-0.0000404018210247159,0.0024266233667731285,-0.0003754149656742811
1772795010344805400,6.602805419921875,-0.001278505427762866,0.00018477486446499825,-0.0006007184274494648
1772795010354849500,6.612849609375,0.0003306991420686245,0.000690010841935873,-0.0002975104725919664
1772795010364893400,6.6228935546875,-0.0005697155720554292,-0.0002641999162733555,-0.001028548227623105
1772795010374938400,6.6329384765625,-0.0017929307650774717,0.00031552091240882874,0.0021225244272500277
1772795010384982500,6.642982421875,-0.00040116277523338795,0.0017648129723966122,-0.0021209565456956625
1772795010395026400,6.6530263671875,-0.0023950436152517796,-0.0010156896896660328,-0.0011336711468175054
1772795010405070600,6.663070556640625,0.0004393588751554489,-0.00003458093851804733,0.00024717790074646473
1772795010415114500,6.673114501953125,-0.001392772188410163,-0.0009608413092792034,-0.0004441494238562882
1772795010425159400,6.683159423828125,0.0011928909225389361,0.00035662436857819557,0.0006916887359693646
1772795010435203600,6.69320361328125,0.0004754984984174371,-0.0005904277786612511,0.0005475736688822508
1772795010445247500,6.70324755859375,0.0005873512709513307,0.0010122624225914478,-0.0013067853869870305
1772795010455291400,6.71329150390625,-0.001103098620660603,0.0012081456370651722,0.0010862058261409402
1772795010465336600,6.723336669921875,0.00027508719358593225,-0.0030446560122072697,0.0024550706148147583
1772795010475380500,6.73338037109375,0.0006942636100575328,-0.0007676323875784874,-0.0007594299968332052
1772795010485424600,6.743424560546875,-0.0013952526496723294,-0.00023340201005339622,0.0011146364267915487
1772795010495468500,6.753468505859375,-0.00008926959708333015,-0.0009494088590145111,0.00012607011012732983
1772795010505512400,6.763512451171875,0.0006404365412890911,-7.906928658485413e-7,-0.00021428184118121862
1772795010515557600,6.7735576171875,-0.0008570554782636464,0.0012682233937084675,-0.001124723581597209
1772795010525601500,6.7836015625,-0.0007755627739243209,0.0017241560854017735,0.0005357573973014951
1772795010535645400,6.7936455078125,0.0014136828249320388,0.000669215340167284,-0.0012990857940167189
1772795010545689600,6.803689697265625,0.00027544773183763027,-0.00015396811068058014,0.0000029336661100387573
1772795010555733500,6.8137333984375,0.000018855789676308632,-0.0009326227009296417,0.0013853193959221244
1772795010565778400,6.8237783203125,0.0012212730944156647,-0.000807187519967556,0.00044442457146942616
1772795010575822600,6.833822509765625,0.0005236669676378369,0.0007734368555247784,-0.00208750506862998
1772795010585866500,6.843866455078125,-0.0003173592849634588,-0.002037529367953539,0.00027338729705661535
1772795010595910700,6.85391064453125,0.0024505266919732094,-0.00019583944231271744,0.0011883246479555964
1772795010605954300,6.863954345703125,-0.0018563373014330864,0.00022467365488409996,0.0031457478180527687
1772795010615999500,6.87399951171875,0.0012586426455527544,-0.0007568197324872017,0.0010915324091911316
1772795010626043600,6.884043701171875,0.0008884633425623178,-0.001176800113171339,-0.0003332587075419724
1772795010636087300,6.89408740234375,-0.000050107832066714764,0.0012579713948071003,0.0022503118962049484
1772795010646131500,6.90413134765625,0.00048438855446875095,-0.00038812868297100067,-0.001150810974650085
1772795010656175600,6.914175537109375,0.00033411686308681965,0.0003588525578379631,0.0009335152572020888
1772795010666220500,6.924220458984375,0.0008744720835238695,-0.0010510245338082314,-0.0010606596479192376
1772795010676264400,6.934264404296875,-0.00008192774839699268,-0.000378316268324852,-0.0011884233681485057
1772795010686308600,6.94430859375,-0.00001428346149623394,-0.0009429063647985458,-0.0017737862654030323
1772795010696352500,6.9543525390625,-0.00014215375995263457,-0.0012211138382554054,-0.00039958831621333957
1772795010706396700,6.964396728515625,0.0010285719763487577,0.0031456714496016502,-0.0015085285995155573
1772795010716441300,6.97444140625,-0.0012012894731014967,-0.0010110349394381046,-0.0028211637400090694
1772795010726485500,6.984485595703125,0.000615519005805254,-0.0006477795541286469,0.0020116749219596386
1772795010736529700,6.99452978515625,0.0001291919033974409,-0.0008848565630614758,-0.0028210312593728304
1772795010746573600,7.004573486328125,-0.0014420731458812952,0.0015082601457834244,0.0005097843240946531
1772795010756617500,7.014617431640625,-0.002595515688881278,0.001609074417501688,0.000549817574210465
1772795010766662700,7.02466259765625,-0.00056325743207708,-0.0010993601754307747,-0.0000014567049220204353
1772795010776706600,7.03470654296875,-0.0034128190018236637,0.00022187456488609314,-0.00007841840852051973
1772795010786750500,7.04475048828125,0.001010691630654037,0.00015609432011842728,-0.0015583368949592113
1772795010796794400,7.05479443359375,-0.0013086639810353518,0.0015461146831512451,-0.0003733731573447585
1772795010806838500,7.064838623046875,0.000618132995441556,0.0006510256789624691,0.0007608671439811587
1772795010816883500,7.074883544921875,-0.002214043401181698,-0.001659016590565443,0.0012792515335604548
1772795010826927400,7.08492724609375,-0.0019863429479300976,-0.00047683902084827423,-0.0024560983292758465
1772795010836971500,7.094971435546875,-0.00029490020824596286,0.0004497841000556946,-0.00027063320158049464
1772795010847015700,7.105015625,0.0009461328154429793,-0.0005550268106162548,0.0024346057325601578
1772795010857060400,7.115060302734375,-0.0011164157185703516,-0.0018551466055214405,-0.00053686264436692
1772795010867104500,7.1251044921875,-0.0017433238681405783,0.0015004361048340797,0.002149201463907957
1772795010877148400,7.1351484375,-0.0013856138102710247,0.0000883094035089016,0.00005943886935710907
1772795010887192600,7.145192626953125,-0.0009278163779526949,-3.739260137081146e-7,-0.0015786713920533657
1772795010897236500,7.155236572265625,0.002505968092009425,-0.003126845695078373,-0.0017447267891839147
1772795010907281400,7.165281494140625,-0.0002911500632762909,-0.0014415974728763103,0.002752819564193487
1772795010917325600,7.17532568359375,-0.0013745534233748913,-0.0004179077222943306,0.0019415386486798525
1772795010927369500,7.185369384765625,0.0006172248395159841,0.0010739951394498348,0.0016613740008324385
1772795010937413400,7.195413330078125,0.00030833506025373936,-0.00029001152142882347,-0.0025454717688262463
1772795010947457500,7.20545751953125,0.0030300854705274105,0.00027005141600966454,0.00033686740789562464
1772795010957502700,7.215502685546875,0.00010951841250061989,-0.0006893654353916645,-0.002797219902276993
1772795010967546400,7.22554638671875,0.001624324475415051,0.001908282283693552,-0.0006746805156581104
1772795010977590500,7.235590576171875,-0.00023450958542525768,0.0003831232897937298,-0.0024823746643960476
1772795010987634400,7.245634521484375,0.00013060984201729298,-0.0015423418954014778,0.0023256961721926928
1772795010997678600,7.2556787109375,-0.0006459621363319457,-0.0003294050693511963,-0.00023135647643357515
1772795011007723500,7.2657236328125,0.0021367748267948627,0.0022655786015093327,0.00006878178101032972
1772795011017767400,7.275767333984375,-0.0012088353978469968,-0.000303853303194046,0.0024132588878273964
1772795011027811600,7.2858115234375,-0.0019910058472305536,-0.0004788232035934925,-0.002277366816997528
1772795011037855700,7.295855712890625,0.00003677199129015207,0.0013337424024939537,-0.0020194509997963905
1772795011047899400,7.3058994140625,-0.0003113031852990389,-0.0019400818273425102,-0.0005480545805767179
1772795011057944600,7.315944580078125,0.000602761167101562,0.0013017719611525536,0.0005878036608919501
1772795011067988500,7.325988525390625,-0.0012364177964627743,0.00043837539851665497,-0.0016284789890050888
1772795011078032400,7.336032470703125,0.0007752883248031139,-0.000380110926926136,0.0012718267971649766
1772795011088076500,7.34607666015625,0.0002924571745097637,-0.0014744037762284279,0.003955494146794081
1772795011098120400,7.356120361328125,0.0002140189753845334,-0.0005950652994215488,0.0018733182223513722
1772795011108165400,7.366165283203125,0.0011748874094337225,0.00046087801456451416,-0.0005751919816248119
1772795011118209500,7.37620947265625,0.00018227100372314453,-0.0017532175406813622,0.0006505904020741582
1772795011128253400,7.38625341796875,-0.0011466463329270482,0.0012228651903569698,0.0008908075978979468
1772795011138297600,7.396297607421875,0.00258762133307755,-0.00037348782643675804,-0.0013527019182220101
1772795011148342500,7.406342529296875,0.00030981970485299826,-0.0005276850424706936,0.004229550249874592
1772795011158386400,7.416386474609375,-0.0012958759907633066,5.9138983488082886e-8,0.000009181909263134003
1772795011168430600,7.4264306640625,0.0013089618878439069,0.0017244559712707996,0.0007159848464652896
1772795011178474500,7.436474609375,-0.00040232628816738725,-0.0005655465647578239,0.000058655510656535625
1772795011188518400,7.446518310546875,0.0015665485989302397,-0.00041720829904079437,-0.0003549333196133375
1772795011198563600,7.4565634765625,0.0009318881202489138,-0.0010547018609941006,-0.0005052943015471101
1772795011208607500,7.466607421875,0.0005270875990390778,-0.00012286193668842316,0.001116570783779025
1772795011218651600,7.476651611328125,-0.00034742674324661493,-0.00046326033771038055,0.0035649361088871956
1772795011228695300,7.4866953125,-0.0013013710267841816,0.0019021593034267426,8.278293535113335e-7
1772795011238739500,7.496739501953125,0.0032796692103147507,0.009255184791982174,0.006033327896147966
1772795011248784600,7.50678466796875,-0.019017647951841354,0.05290332809090614,0.05367541313171387
1772795011258828300,7.516828369140625,0.0014816864859312773,-0.01732574589550495,-0.006487053819000721
1772795011268872400,7.52687255859375,0.0016574549954384565,0.0059287105686962605,-0.001436102669686079
1772795011278916400,7.536916259765625,0.0016939283814281225,-0.012355323880910873,-0.012477995827794075
1772795011288960500,7.54696044921875,0.0047701457515358925,-0.015006501227617264,-0.017516430467367172
1772795011299005400,7.55700537109375,0.0043022045865654945,-0.018100233748555183,-0.011372840031981468
1772795011309049300,7.56704931640625,0.002216683467850089,-0.01296912133693695,-0.00840235035866499
1772795011319093500,7.577093505859375,-0.0004952965537086129,-0.003360621863976121,-0.0018920507282018661
1772795011329137400,7.587137451171875,0.0024187343660742044,-0.0004239543341100216,-0.0002392929745838046
1772795011339181300,7.597181396484375,-0.000017116894014179707,-0.0017838645726442337,0.0017280550673604012
1772795011349226500,7.6072265625,0.0010255107190459967,0.0020910343155264854,0.00219437456689775
