time,seconds_elapsed,z,y,x
1772648621070438700,0.073438720703125,-0.22252631435990333,-0.20152078960165382,0.12578216946311294
1772648621080481500,0.0834814453125,-0.22995032688081263,-0.19439897489771246,0.1316976771172136
1772648621090525700,0.093525634765625,-0.2614595638662576,-0.20256416117474435,0.1252156216215342
1772648621100568600,0.103568603515625,-0.2379857492983341,-0.21608137600421903,0.08575754452347754
1772648621110612700,0.11361279296875,-0.15469371810555457,-0.21000103317722676,0.020200382387824355
1772648621120655600,0.123655517578125,-0.040378772139549254,-0.23885274139121174,-0.022178367929905653
1772648621130698500,0.133698486328125,0.029417233142256735,-0.269747938131541,-0.0016858341950923203
1772648621140742700,0.14374267578125,0.12871814984977245,-0.2706390417523682,0.011388130378909409
1772648621150785500,0.15378564453125,0.18913024071455,-0.288720641887933,0.02260189057160169
1772648621160829400,0.163829345703125,0.3203939833939075,-0.2843945953823626,0.03265424230210483
1772648621170872600,0.17387255859375,0.4478916515380144,-0.32012861045598984,0.037795623778551814
1772648621180915700,0.183915771484375,0.5199509255766869,-0.36160555309578774,0.09036814359147101
1772648621190959400,0.19395947265625,0.5467039079457521,-0.37225919518768785,0.15049604722000656
1772648621201002500,0.20400244140625,0.5402823504656553,-0.34692455518394705,0.1651664872052148
1772648621211046400,0.21404638671875,0.5074281286120415,-0.30294191333353515,0.14148659213855863
1772648621221089500,0.224089599609375,0.4751408929914236,-0.2705423033796251,0.1260316507121548
1772648621231132400,0.23413232421875,0.4309785106599331,-0.23648484321609137,0.13628745259288697
1772648621241176600,0.244176513671875,0.38220541966259475,-0.22339052997380493,0.1644967712501064
1772648621251219500,0.254219482421875,0.3899631941825151,-0.22613427572399378,0.15295637291893363
1772648621261263600,0.264263671875,0.40563773317635055,-0.22523308910056947,0.2102375088142231
1772648621271306500,0.274306396484375,0.4177326601177454,-0.2727148251131177,0.2674842675158754
1772648621281349400,0.284349365234375,0.44761926433742044,-0.33101518452093004,0.28012740292456
1772648621291393500,0.2943935546875,0.44434185010194777,-0.35642566623985766,0.2980381400052458
1772648621301436400,0.3044365234375,0.43848610981106756,-0.4068015162587166,0.3418287298822775
1772648621311480600,0.31448046875,0.44125323643684383,-0.4531736835941672,0.4230316433086991
1772648621321523500,0.3245234375,0.4723264200925827,-0.5113222134411335,0.5032928554382174
1772648621331566600,0.334566650390625,0.4600333402305841,-0.5900792315527796,0.5188610479807481
1772648621341610500,0.344610595703125,0.4101934967845678,-0.659279609028995,0.502000660203211
1772648621351653600,0.354653564453125,0.36809389220178124,-0.7348280403576791,0.5200892380688339
1772648621361697500,0.364697509765625,0.2890904981136322,-0.7621404101751744,0.5662733354862779
1772648621371740700,0.37474072265625,0.23236264871954918,-0.7981389214038849,0.5479219784986228
1772648621381783600,0.384783447265625,0.1559077700704336,-0.8170806455001235,0.5178898648610338
1772648621391827500,0.394827392578125,0.10177695143222808,-0.8157017583623528,0.4376325617216527
1772648621401870600,0.40487060546875,0.09844809927046298,-0.8160964567683636,0.38020821796339005
1772648621411914500,0.41491455078125,0.1015150856256485,-0.8252415939934551,0.4298700744939968
1772648621421957400,0.424957275390625,0.052961774858832356,-0.78771791902408,0.5028756529394537
1772648621432000500,0.43500048828125,-0.022958850783109663,-0.7244365563333034,0.5470790979336947
1772648621442044400,0.44504443359375,-0.08130641033351421,-0.6832694102950394,0.529905917879939
1772648621452087300,0.45508740234375,-0.0664841042548418,-0.6530037436299025,0.5231581971853971
1772648621462131500,0.46513134765625,-0.034568040034174914,-0.6539855942741036,0.48783900999035684
1772648621472174300,0.47517431640625,-0.018558569997549054,-0.701483696899563,0.3445486198328435
1772648621482218500,0.485218505859375,-0.06815934399068355,-0.9127687054727226,0.2844354753820225
1772648621492261400,0.495261474609375,-0.14804595065414905,-0.8645047330413013,0.14735263462774453
1772648621502304500,0.505304443359375,-0.2041582984983921,-0.7784768471438437,-0.24347649220172315
1772648621512348400,0.515348388671875,-0.1907727472245693,-1.1161904333248733,0.10058072738498448
1772648621522391600,0.5253916015625,-0.25031565403938294,-1.3267001466766,0.4671046668563038
1772648621532435500,0.535435546875,-0.16089432631134987,-1.389610191836953,0.44793585600592195
1772648621542478600,0.545478515625,-0.04168985473811626,-1.0776547317687422,0.25401143981739877
1772648621552521500,0.555521484375,-0.10310732325315475,-0.7746031475156545,0.012200104348920285
1772648621562565600,0.565565673828125,0.014186930784583092,-0.52980158072263,-0.19419157922472804
1772648621572608500,0.5756083984375,0.16178455314934254,-0.5320131192922591,-0.019990502496808765
1772648621582652700,0.585652587890625,0.30757892548441884,-0.47782487137839197,0.2726784386254847
1772648621592695600,0.595695556640625,0.3066846069931984,-0.29579817905873057,0.4479808641914278
1772648621602738700,0.60573876953125,0.3489917168468237,-0.1232455636575818,0.018344854181632397
1772648621612782600,0.615782470703125,0.1842512365013361,-0.30001521223187444,-0.30757958307154476
1772648621622825700,0.62582568359375,-0.011567688196897507,-0.6624030017465352,-0.19175481706447897
1772648621632869400,0.635869384765625,-0.004160626810789108,-0.8415104456186294,-0.08712342604920267
1772648621642912500,0.64591259765625,-0.16230653119683264,-1.0561804935202002,0.1890182317074388
1772648621652955000,0.655954833984375,-0.6301379779577255,-1.5419137999355792,-0.15657997024357317
1772648621662999000,0.6659990234375,-0.7318325118035077,-1.4203984210714697,-0.42209640828520056
1772648621673042000,0.6760419921875,-0.13204174131453036,-1.1917587383978068,-0.6051591656543314
1772648621683085800,0.6860859375,0.5469172584354877,-1.2141688692569732,-0.5658748376879841
1772648621693128700,0.696128662109375,1.0755658697307109,-1.373862003085017,-0.21601846683584153
1772648621703171800,0.706171875,1.5099731857955454,-1.631859443798661,-0.08008563636690377
1772648621713215700,0.7162158203125,1.7395961804181337,-1.6518337258130311,-0.08756189053170382
1772648621723258600,0.726258544921875,1.9231693715274334,-1.4405200026020406,-0.10477299144305288
1772648621733302800,0.736302734375,1.8878326852083205,-1.3394935772761702,0.06167538879886269
1772648621743345700,0.746345703125,1.5632593703031539,-1.2461135750502348,0.3912155323311686
1772648621753388800,0.756388916015625,0.8585627027064562,-1.055757591933012,0.8191049909345806
1772648621763432700,0.7664326171875,0.29298575198650356,-0.48076603939682244,0.4785320697996765
1772648621773475800,0.776475830078125,-0.2820493474304676,-0.23438450993597507,0.4690126924347132
1772648621783519700,0.786519775390625,-0.5591255826234817,-0.03487900567948818,0.29982940733619035
1772648621793563000,0.79656298828125,-0.6349521002411842,0.07827537207454442,0.02880165852718055
1772648621803605800,0.806605712890625,-0.7734510548710822,-0.28136837942898274,0.24456023231782018
1772648621813650000,0.81664990234375,-0.9037830696582794,-0.6934145183429121,0.5861649807184934
1772648621823692800,0.82669287109375,-1.1208826827943323,-0.9811340203642844,0.6873277457751333
1772648621833737000,0.836737060546875,-1.101084926390648,-1.0719098314411937,0.4714255257301032
1772648621843779800,0.84677978515625,-0.8170575568854809,-1.142993392315507,0.3470863216169178
1772648621853823000,0.856822998046875,-0.9879226575911044,-1.0343328188493848,0.17768223337456582
1772648621863867000,0.866866943359375,-1.0640198088437318,-0.801993551005423,0.10450696091800928
1772648621873910000,0.876909912109375,-1.2552531593173741,-0.5227414330780505,0.1012282315082848
1772648621883954000,0.886953857421875,-1.392611127218604,-0.24854323753938076,-0.25764585079699753
1772648621893997000,0.8969970703125,-1.1909084051787853,-0.12749854492694138,-0.4584552772589028
1772648621904040700,0.907040771484375,-0.6409253294318914,-0.10885434247255325,-0.28894714412018657
1772648621914083800,0.917083740234375,0.029704817911982536,-0.07026216148883103,0.03978467870391905
1772648621924127000,0.927126953125,0.48572015467286106,-0.00897138809338212,0.32908275515362617
1772648621934171000,0.9371708984375,0.7001981871336698,0.05065554374307394,0.46795368490107353
1772648621944213800,0.9472138671875,0.757966485491395,0.18099121179208158,0.5707588834024966
1772648621954258000,0.9572578125,0.5449515113204717,0.2704517024867236,0.5892350358135998
1772648621964300800,0.96730078125,0.01312426998913288,0.3807444071993232,0.49413800053671
1772648621974343700,0.97734375,-0.7035182714670896,0.5156920990884304,0.19241086982041597
1772648621984387800,0.987387939453125,-1.2120365334033965,0.7086850065805017,-0.10266516897622495
1772648621994430700,0.9974306640625,-1.4460615623772144,0.7845690996043384,-0.3253456875171512
1772648622004475000,1.007474853515625,-1.4014759861975907,0.7879936672255397,-0.3981004695393145
1772648622014517800,1.017517822265625,-1.1755062533855438,0.8255906996920704,-0.2944933070052415
1772648622024561000,1.027560791015625,-0.7897925333410502,0.8905776972569525,-0.07630494878441095
1772648622034604800,1.037604736328125,-0.35204993537366386,0.8458493516057729,0.16542733009848742
1772648622044648000,1.04764794921875,-0.015089432582259176,0.7796329583764076,0.3121122945977375
1772648622054691800,1.05769189453125,0.14981412937045097,0.7869216540798545,0.3514359681937843
1772648622064735000,1.06773486328125,0.21832827814817427,0.7533044850297271,0.28354736743588
1772648622074777900,1.07777783203125,0.21897768196761608,0.6685195849306881,0.18416308329384773
1772648622084822000,1.087822021484375,0.25886253311038016,0.5915148173138499,0.08044051421917975
1772648622094865000,1.097864990234375,0.3420405825346708,0.5075308583341539,-0.03330390184987336
1772648622104909000,1.107908935546875,0.45762686361074445,0.4250555503517389,-0.1703992002269253
1772648622114952000,1.117951904296875,0.5898375317513942,0.3454470299772918,-0.29323998247589916
1772648622124994800,1.127994873046875,0.7617693849056959,0.24467896332666275,-0.41517260037139053
1772648622135039000,1.1380390625,0.9508259758621453,0.18011530574038623,-0.47797399752549824
1772648622145081900,1.148081787109375,1.0677461358904838,0.20708543799147008,-0.455937522284314
1772648622155125800,1.158125732421875,1.0417436796277761,0.2654353356294334,-0.37371005158312615
1772648622165168600,1.168168701171875,0.8068301773816347,0.30455183274820447,-0.31056985092870887
1772648622175212000,1.1782119140625,0.5022141933560371,0.3771615802764892,-0.2857752360858023
1772648622185255700,1.188255615234375,0.24781682296097277,0.3985346231728792,-0.2986976633599028
1772648622195298800,1.198298828125,0.10448854847848414,0.4159275103919208,-0.2745910307811573
1772648622205342700,1.2083427734375,0.07813537908196448,0.39074309251382944,-0.22410550984274594
1772648622215385900,1.2183857421875,0.14809680405855177,0.3169021957553923,-0.1151593974335119
1772648622225428700,1.2284287109375,0.23017536780834197,0.19714184386506675,-0.028996263217250816
1772648622235473000,1.238472900390625,0.33349779511690136,0.11317176728025079,0.01038864133002935
1772648622245515800,1.248515869140625,0.4447761498659849,0.0651737523086369,0.039845048855338246
1772648622255560000,1.258559814453125,0.561650132665038,0.018366116165369747,0.040544164434866976
1772648622265602800,1.268602783203125,0.7123983280152082,-0.04640270860418677,0.06634851800932083
1772648622275645700,1.278645751953125,0.798004481369257,-0.11250950397923588,0.12672016269927844
1772648622285689900,1.28868994140625,0.8543979842424392,-0.21224574336409568,0.17809709778577087
1772648622295732700,1.298732666015625,0.8593997380524874,-0.31966143133565783,0.19395327695682643
1772648622305777000,1.30877685546875,0.7983148624926805,-0.41310879970937964,0.2253619213783182
1772648622315819800,1.31881982421875,0.693161128103733,-0.4737900629043579,0.21628606826346367
1772648622325863000,1.32886279296875,0.6106576169401406,-0.5388537789672613,0.17790919226454568
1772648622335906800,1.33890673828125,0.5730465559482574,-0.617734715719521,0.13109012141181156
1772648622345950000,1.348949951171875,0.5885685347288847,-0.6696412824369966,0.0681025403361069
1772648622355993900,1.358993896484375,0.6642734717935324,-0.7065123387165367,0.021913239303871523
1772648622366037000,1.369037109375,0.7243669982284308,-0.7336017134331166,0.012728201609943061
1772648622376080600,1.37908056640625,0.6898422128140926,-0.7509877325199544,0.03110603789585875
1772648622386123800,1.389123779296875,0.625222733387351,-0.7517379663653672,0.09270929989013821
1772648622396167000,1.3991669921875,0.5686398454219103,-0.7666789303876459,0.0988292623414658
1772648622406210800,1.4092109375,0.470565255638957,-0.7916255939871072,0.07723168084104545
1772648622416253700,1.419253662109375,0.28593641799688335,-0.8277269080031663,-0.029809552361513485
1772648622426297900,1.4292978515625,0.10229717591404915,-0.8223952646516263,-0.09136438808720558
1772648622436340700,1.4393408203125,-0.018636311408877372,-0.9040428896382451,-0.08973762713558972
1772648622446383900,1.4493837890625,-0.09116320295929908,-0.9796648976597935,-0.035084469690290276
1772648622456427800,1.459427734375,-0.16216273881196974,-0.9902860257215798,-0.00424362435254734
1772648622466471000,1.469470947265625,-0.25797756696939467,-0.9367643519576638,0.017402088872226884
1772648622476514800,1.479514892578125,-0.2875742483317852,-0.8526124890651553,-0.006346909924864303
1772648622486558000,1.489557861328125,-0.3104173637807369,-0.7813773178257047,0.030621010308293624
1772648622496600800,1.499600830078125,-0.3184101161003113,-0.7102421728946268,0.09798890252718702
1772648622506645000,1.50964501953125,-0.3080611560434103,-0.6377069519072771,0.14025348841333762
1772648622516688000,1.51968798828125,-0.329652810126543,-0.5585610075432806,0.0926448380854912
1772648622526731800,1.529731689453125,-0.3527800032138824,-0.4978487646881491,0.025899171701457814
1772648622536775000,1.53977490234375,-0.34888474934101105,-0.46854456346631046,-0.006184214193420484
1772648622546817800,1.54981787109375,-0.4374421537160873,-0.47597303296662863,-0.07267461119173094
1772648622556862000,1.559862060546875,-0.6330892289787531,-0.4766484480101615,-0.11880153506183996
1772648622566904800,1.56990478515625,-0.8416963235795497,-0.48291437653712926,-0.12609203912988304
1772648622576949000,1.579948974609375,-1.0170751023173332,-0.5330515224292874,-0.08238100816193036
1772648622586991900,1.589991943359375,-1.1661954042047262,-0.6223152484428137,0.030505754464748312
1772648622597035000,1.600034912109375,-1.2143459793895481,-0.6982231607336551,0.043495990844629705
1772648622607079000,1.610078857421875,-1.247780631479621,-0.6859409675918519,-0.004168787284358404
1772648622617122000,1.6201220703125,-1.2551906154751777,-0.6191045427680015,-0.02690939220690634
1772648622627165700,1.630165771484375,-1.2257961786866187,-0.5407483605422079,-0.05731155843301676
1772648622637208800,1.640208740234375,-1.1793126599311827,-0.4472320185855031,-0.13801086971885523
1772648622647252000,1.650251953125,-1.0921171915590762,-0.32471213885396716,-0.25687272926634175
1772648622657296000,1.6602958984375,-1.064112747824192,-0.167266783952713,-0.3963723305724561
1772648622667338800,1.6703388671875,-1.0558961236208677,-0.00006049801558256149,-0.501615277614817
1772648622677383000,1.6803828125,-0.9978951855510473,0.18248890300393103,-0.5083305208118633
1772648622687425800,1.69042578125,-0.9454209019482135,0.3626490707993507,-0.5003906311906874
1772648622697468700,1.70046875,-0.9351806629627942,0.5628882961578667,-0.4435381325036287
1772648622707512800,1.710512939453125,-0.9666852237731218,0.7527196708790957,-0.2913189878180623
1772648622717555700,1.7205556640625,-0.980631331539154,0.9226674375440925,-0.10601384008331223
1772648622727599900,1.730599853515625,-0.9673556703805923,1.0877714905049651,0.026712371797463854
1772648622737642800,1.740642822265625,-0.86025255548954,1.252278527420759,0.130952685702499
1772648622747686000,1.750685791015625,-0.6482838755011558,1.3706602844342588,0.1765227976737544
1772648622757729800,1.760729736328125,-0.38857144756317136,1.4197852576091885,0.23332988631650803
1772648622767773000,1.77077294921875,-0.11375380495190619,1.3727309532284735,0.24751193999657406
1772648622777816800,1.78081689453125,0.1792529898226261,1.2622823273018002,0.23117859003413468
1772648622787860000,1.79085986328125,0.47801966329813,1.1429256608415395,0.17461338385585695
1772648622797902800,1.80090283203125,0.6907201646924018,0.9597799013640731,0.16813034197948873
1772648622807947000,1.810947021484375,0.7508563612252473,0.8015113204464316,0.15144709173399024
1772648622817990000,1.820989990234375,0.7283885088294744,0.6877421717949211,0.11566741088773123
1772648622828034000,1.831033935546875,0.6570879442036152,0.6095032592732459,0.05048048857026733
1772648622838077000,1.841076904296875,0.5956646304696798,0.5901624528568238,-0.016230793770262972
1772648622848119800,1.851119873046875,0.5044079040080308,0.6218873053543269,0.005514982295501977
1772648622858163700,1.861163818359375,0.4012719391822815,0.6278652107201517,0.040381694748997686
1772648622868206800,1.871206787109375,0.4359031075805425,0.6113135966308415,0.054689411502191795
1772648622878250800,1.881250732421875,0.5759323405176401,0.6349415057819336,-0.02994798815124668
1772648622888293600,1.891293701171875,0.7261047818064689,0.6580384498614817,-0.1095160669174511
1772648622898336800,1.901336669921875,0.8056015123695135,0.6856043560486287,-0.17546152511779217
1772648622908380700,1.911380615234375,0.761791596737504,0.6989366427652537,-0.2778306154905818
1772648622918423800,1.921423828125,0.623775457188487,0.7114772676475346,-0.3367381652776152
1772648622928467700,1.9314677734375,0.45981239095628257,0.6941434902045875,-0.3449679412234574
1772648622938510800,1.9415107421875,0.33667993228435517,0.6115015934836119,-0.3274374356320128
1772648622948553700,1.9515537109375,0.2073474499285221,0.5657842367950826,-0.28815102530643344
1772648622958598000,1.961597900390625,0.09785656311810016,0.5647180688682943,-0.21204843069370835
1772648622968640800,1.971640869140625,0.031472996628284455,0.5538467654377222,-0.13272172293532639
1772648622978685000,1.981684814453125,-0.012310615518689155,0.5396553776737302,-0.09158429618189111
1772648622988727800,1.991727783203125,-0.006037526598572731,0.47182826131209726,-0.05477048651492223
1772648622998771000,2.00177099609375,0.047528059372305864,0.41129882767796516,0.021981457118317484
1772648623008814800,2.01181494140625,0.21454116082489488,0.3649902270980179,0.08162455463828519
1772648623018858000,2.02185791015625,0.40239188312292096,0.25676775278821584,0.15949631434800102
1772648623028902000,2.03190185546875,0.5726362215816975,0.12542261543571948,0.2622785886315629
1772648623038945000,2.041945068359375,0.7289625093251466,-0.054748731340840455,0.34674010199513283
1772648623048988000,2.05198779296875,0.9177847070038319,-0.18047040278837084,0.3967526716595515
1772648623059032000,2.062031982421875,1.0757827273517846,-0.30569471917301416,0.40945915462803095
1772648623069075000,2.072074951171875,1.1544950295388698,-0.4232408290799707,0.41010863151270893
1772648623079118800,2.082118896484375,1.137521098384261,-0.5156749287579209,0.3796579271368682
1772648623089162000,2.092161865234375,1.0395727653294802,-0.5727024917509407,0.27953204911360513
1772648623099204900,2.102204833984375,0.9172697432190179,-0.6142735424149781,0.21267014278862625
1772648623109248800,2.112248779296875,0.8047118700534105,-0.6317633141372353,0.1871819561909884
1772648623119292000,2.1222919921875,0.7181254734903574,-0.6458032376665621,0.19229376451307906
1772648623129335800,2.132335693359375,0.6633931818276644,-0.6622681963857263,0.2904784270743839
1772648623139378700,2.142378662109375,0.5770283190608024,-0.6532588143695145,0.4102847552645951
1772648623149421800,2.152421875,0.47184302048981186,-0.6056253949265926,0.49590552166588603
1772648623159465700,2.1624658203125,0.39184360110163685,-0.5204310372438281,0.5131441681712866
1772648623169508900,2.1725087890625,0.3643453533232212,-0.42486616525948045,0.5152762117639184
1772648623179552800,2.182552734375,0.35331659430861473,-0.3666644439205527,0.5103629764875397
1772648623189596000,2.192595947265625,0.3636474341869354,-0.37301834299191833,0.48837121717091647
1772648623199638800,2.202638671875,0.34175592037439345,-0.41739758294448254,0.46646852437723424
1772648623209683000,2.212682861328125,0.3339151437461376,-0.45261977603845294,0.43813112236093726
1772648623219725800,2.222725830078125,0.24265549467504022,-0.5261261801455169,0.44705965769328176
1772648623229770000,2.23277001953125,0.06651333034932613,-0.6283781286783516,0.4590225922854617
1772648623239812900,2.242812744140625,-0.048856093105673785,-0.6712652303770185,0.45971905011702324
1772648623249855700,2.252855712890625,-0.11376491086781024,-0.7169217967890202,0.4855421312248334
1772648623259900000,2.26289990234375,-0.1708797137528658,-0.801581463073194,0.4963159290976822
1772648623269942800,2.27294287109375,-0.22781565293967723,-0.8789720151372253,0.5751736311048269
1772648623279987000,2.282987060546875,-0.2385655950129032,-0.9602038989298045,0.5727494726978242
1772648623290029800,2.29302978515625,-0.22712767067551612,-1.0004238272458315,0.5481710578888654
1772648623300073000,2.303072998046875,-0.20570202080905436,-1.01733258420974,0.5090801336027682
1772648623310116900,2.313116943359375,-0.27394962760508057,-0.9935059376161545,0.4734022326305508
1772648623320160000,2.323159912109375,-0.40855800453722474,-0.9206612853534519,0.4653524528941139
1772648623330203600,2.33320361328125,-0.5585463214308023,-0.7502263927586377,0.4653676504632458
1772648623340247000,2.3432470703125,-0.75211951302886,-0.5637636907529086,0.5194391401296481
1772648623350290000,2.3532900390625,-0.956339770847559,-0.44971404465958476,0.7223055356539786
1772648623360333800,2.363333740234375,-1.1340788489758968,-0.43672114596515893,1.0656403227176516
1772648623370376700,2.373376708984375,-1.2055945176571607,-0.48938371868170794,1.3742759907133877
1772648623380420900,2.3834208984375,-1.0961252581566572,-0.4819918548647314,1.4009424638427792
1772648623390463700,2.393463623046875,-0.9659685999363661,-0.43738764704987404,1.263729895761609
1772648623400506600,2.403506591796875,-0.8326753972560167,-0.40008294859342275,1.1491310913529247
1772648623410550800,2.41355078125,-0.7294166828334331,-0.34994149185232815,1.0275707773685454
1772648623420593700,2.42359375,-0.7095300791025161,-0.2849569054402411,0.8199512325003743
1772648623430637800,2.433637939453125,-0.7669757213771343,-0.15788465963397175,0.4870781451530754
1772648623440680700,2.4436806640625,-0.8905062394559383,0.04309822369869798,0.15039996643438935
1772648623450723800,2.453723876953125,-1.0841308689802884,0.18872290202267467,-0.050812104277964676
1772648623460767700,2.463767822265625,-1.2398586063086985,0.27012645258773116,-0.09004218130642548
1772648623470811000,2.473810791015625,-1.3771639672398566,0.3358144745614379,-0.016024685872066766
1772648623480854800,2.483854736328125,-1.4667588979691266,0.4513324031090364,0.050850755787920206
1772648623490898000,2.49389794921875,-1.4551619836777447,0.6131504566691816,0.11102967721763998
1772648623500940800,2.50394091796875,-1.3506214127510785,0.7777595657199621,0.189269210793823
1772648623510985000,2.51398486328125,-1.1195026266127823,0.8959848900627344,0.22793834773758426
1772648623521027800,2.52402783203125,-0.8156886066198349,1.0292365916889161,0.25064041074803095
1772648623531072000,2.534072021484375,-0.5103250190973282,1.1056580795250832,0.3249337091827765
1772648623541115000,2.544114990234375,-0.18496318416297436,1.2200148188062012,0.33328491955120115
1772648623551158000,2.554157958984375,0.06643558893799781,1.2690659960925579,0.3785960700590163
1772648623561202000,2.564201904296875,0.21705577399432657,1.2687982850670814,0.4019041361385956
1772648623571245000,2.5742451171875,0.37370121068954465,1.2712407097831369,0.38635837462358175
1772648623581288700,2.584288818359375,0.4968085349202156,1.1676057824593036,0.40258820941261947
1772648623591331800,2.594331787109375,0.575147327619791,0.9885883549582213,0.3830838099323213
1772648623601375000,2.604375,0.637843145507574,0.8600438811749219,0.3004007044181228
1772648623611419000,2.6144189453125,0.6741992380023002,0.7486804054256528,0.16087247980572283
1772648623621461800,2.624461669921875,0.7152426115304231,0.6648341744162142,0.0018801922899903728
1772648623631506000,2.634505859375,0.7309417004436254,0.5664138399355113,-0.1438959548352286
1772648623641548800,2.644548828125,0.6975368589699268,0.44657435839436943,-0.2797744430347346
1772648623651591400,2.65459130859375,0.7194809797525406,0.35261480271480977,-0.42430308801662175
1772648623661635600,2.664635498046875,0.7442816590100526,0.27342005077302456,-0.5548821363674477
1772648623671678500,2.674678466796875,0.7263479429125785,0.2608793528255075,-0.5897051375433803
1772648623681722600,2.68472265625,0.631276626598835,0.29846805585511027,-0.5829955934347585
1772648623691765500,2.694765625,0.45927346177399153,0.37874263892285526,-0.5938782950421795
1772648623701808600,2.70480859375,0.2430003625899553,0.45562509533427653,-0.4949252419242635
1772648623711852500,2.7148525390625,0.08670446998476981,0.45185171427540477,-0.35044936830922957
1772648623721895700,2.724895751953125,-0.000042670097947120666,0.45748869724906976,-0.202240336047858
1772648623731939600,2.734939697265625,0.052859483528137206,0.46955761296637355,-0.08247205657940357
1772648623741982700,2.744982666015625,0.18482465247511862,0.44825069410875434,0.03436365830218419
1772648623752025600,2.755025634765625,0.4112684325397014,0.47131833902858195,0.06927536067487672
1772648623762069800,2.76506982421875,0.5675532192289829,0.4093787463355809,0.19967585585471243
1772648623772112600,2.775112548828125,0.6585510024935006,0.274979774370417,0.30355637370375915
1772648623782156800,2.78515673828125,0.7586077060043811,0.1997945503309369,0.28501791491247713
1772648623792199700,2.79519970703125,0.8661328456997871,0.0949869990311563,0.24969807013031095
1772648623802242600,2.80524267578125,0.8302636599391698,-0.04037146561592817,0.3362078212605789
1772648623812286700,2.81528662109375,0.713107353067398,-0.14171375195793806,0.44289040918461975
1772648623822329600,2.82532958984375,0.5680190831750631,-0.18298866921961307,0.4925053943661973
1772648623832373500,2.83537353515625,0.48739364084303377,-0.17102007207162678,0.4850390770735219
1772648623842416600,2.845416748046875,0.5038432558625936,-0.1915679161902517,0.4755542230326682
1772648623852459800,2.855459716796875,0.5919470712512731,-0.21703049342259764,0.45158422244563695
1772648623862503400,2.86550341796875,0.7198182488828897,-0.30204211494959887,0.43322504747770724
1772648623872546600,2.875546630859375,0.7974030083447694,-0.3870806244835257,0.3935384223207831
1772648623882590500,2.885590576171875,0.772614019525051,-0.44674189698100086,0.36167496507018804
1772648623892633600,2.895633544921875,0.6895324162125587,-0.5001902863129973,0.3307401669718325
1772648623902676500,2.905676513671875,0.5799836617350578,-0.5350820784088224,0.25923112896075473
1772648623912720600,2.915720703125,0.5036684838175773,-0.5394125088285654,0.14785216338140889
1772648623922763500,2.925763427734375,0.4268365885496139,-0.5471473408643156,0.05558191249566152
1772648623932807700,2.9358076171875,0.32634850788414477,-0.5388255392534658,0.08099827596610412
1772648623942850600,2.9458505859375,0.20138532665371894,-0.5425739320015535,0.13573001963952555
1772648623952893400,2.9558935546875,0.14082184461951255,-0.5127947336791083,0.14836416802415622
1772648623962937600,2.9659375,0.1265150868475437,-0.4348388028172776,0.17379094329075886
1772648623972980500,2.97598046875,0.16911328860223293,-0.37460732921641315,0.20022296834345907
1772648623983024600,2.986024658203125,0.20456044955849648,-0.3688921299073845,0.21968846058547495
1772648623993067500,2.996067626953125,0.20066578020751474,-0.4276948858793825,0.3216563314799219
1772648624003110700,3.006110595703125,0.16870295423567294,-0.4642324358882382,0.3738907419122755
1772648624013154600,3.016154541015625,0.20105390274226664,-0.4659362441314384,0.358452532424964
1772648624023197700,3.02619775390625,0.23339140724539756,-0.48396070725228635,0.3549332357250154
1772648624033241600,3.03624169921875,0.2414718378484249,-0.5376174786379561,0.3530643731132149
1772648624043284700,3.04628466796875,0.2718400881052017,-0.6013698563739657,0.339090975481458
1772648624053327600,3.05632763671875,0.31027707852721215,-0.6419366984315216,0.30818237127028403
1772648624063371800,3.066371826171875,0.28921733936369415,-0.6523512710705399,0.302959193261899
1772648624073414700,3.07641455078125,0.17703063759803772,-0.6681256171770393,0.2632034301252104
1772648624083458600,3.08645849609375,0.029058336701989172,-0.6071444577200338,0.1785765518657863
1772648624093501400,3.09650146484375,-0.13043956681489943,-0.5438491761017591,0.10102790489690378
1772648624103544800,3.106544921875,-0.276123464512825,-0.45554077805168924,0.03609035423062742
1772648624113588500,3.11658837890625,-0.38305180735886096,-0.4442707210944965,-0.07561481109578162
1772648624123631600,3.126631591796875,-0.4430383662879467,-0.4343980367798358,-0.15641679730480537
1772648624133675500,3.136675537109375,-0.4864081369370222,-0.4404582136016339,-0.19932585510695353
1772648624143718400,3.146718505859375,-0.5335492428183555,-0.4643043320806697,-0.1283992931589484
1772648624153761500,3.156761474609375,-0.5565414113491773,-0.5152996291721239,-0.00839546963525936
1772648624163805400,3.166805419921875,-0.5473334380209446,-0.5033558376718312,0.08564930750918574
1772648624173848600,3.1768486328125,-0.4729489359050989,-0.49024245440289377,0.11950881568151525
1772648624183892500,3.186892578125,-0.41293899610042567,-0.4663001090077683,0.09088168260417878
1772648624193935600,3.196935546875,-0.44645197412371634,-0.45712260388303544,0.017550425001466644
1772648624203978500,3.206978515625,-0.5449550184518098,-0.4831893575536087,-0.060123300518654284
1772648624214022700,3.217022705078125,-0.6773959882169962,-0.48733354468625034,-0.20475005384646355
1772648624224065500,3.2270654296875,-0.8423696927964687,-0.42720315683968363,-0.26857189835580064
1772648624234109700,3.237109619140625,-0.9949030179977416,-0.27094189715646205,-0.31913594615682955
1772648624244152600,3.247152587890625,-1.1531260792732239,-0.025176855626143513,-0.32148101144563407
1772648624254195700,3.25719580078125,-1.23114630754292,0.20710869100289417,-0.2797911932401359
1772648624264239600,3.267239501953125,-1.2650158439189194,0.3892447802474722,-0.16796042877268044
1772648624274282800,3.27728271484375,-1.2800193517833947,0.49882294348254796,-0.021830769201787188
1772648624284325600,3.28732568359375,-1.2562585369676351,0.5715585093475878,0.16500260188039392
1772648624294369800,3.297369873046875,-1.1684721169650554,0.6448728980138898,0.34068324964158236
1772648624304412700,3.30741259765625,-1.0609937390208244,0.6943879664849489,0.4715777936823666
1772648624314456600,3.31745654296875,-0.8742962784111499,0.696062621698901,0.5645144360549748
1772648624324499700,3.327499755859375,-0.6279530351340771,0.7334115246232599,0.6438409246176481
1772648624334542600,3.33754248046875,-0.39475393559038635,0.7866431293994188,0.689445541646704
1772648624344586500,3.34758642578125,-0.1817804624736309,0.8307929445102811,0.7334184658206999
1772648624354629600,3.357629638671875,-0.043609424623847,0.875047681300342,0.7709914598245173
1772648624364673500,3.367673583984375,0.044801849278807634,0.872776594563201,0.7837840867064892
1772648624374716400,3.37771630859375,0.14532792386710644,0.8872033985182642,0.7618766446724533
1772648624384759600,3.387759521484375,0.18929332232177257,0.920903569676727,0.7217139995016157
1772648624394803500,3.397803466796875,0.15567863748967647,0.930876170701906,0.6365617273949087
1772648624404846600,3.4078466796875,0.09825754513442515,0.9436842874139547,0.5693780235033482
1772648624414890500,3.417890380859375,0.046451954573392865,0.916656652821973,0.5276714368261397
1772648624424933600,3.42793359375,0.03671323536932468,0.9010181349895894,0.4909393140932545
1772648624434976500,3.4379765625,0.06392623646557331,0.8619543909713625,0.44103433298915623
1772648624445020700,3.448020751953125,0.11644377468824386,0.8352462706573307,0.4009453375764191
1772648624455063600,3.4580634765625,0.23289923981428146,0.7778140723861754,0.41434309074468906
1772648624465107700,3.468107666015625,0.3648854515492916,0.6554374005176127,0.4219642332728952
1772648624475150600,3.478150634765625,0.5514806208282709,0.5760919149935245,0.37776319943144915
1772648624485193500,3.488193359375,0.7368710904926061,0.535109989329055,0.31973120863623916
1772648624495237600,3.498237548828125,0.8145657400697469,0.5327665680080652,0.3027870698316954
1772648624505280500,3.508280517578125,0.8574433432877063,0.5201803504183888,0.2935471304626204
1772648624515324700,3.51832470703125,0.8553601072728634,0.4988892136517912,0.3195337498353794
1772648624525367600,3.528367431640625,0.8589227681905031,0.5142711994398385,0.3439788571208715
1772648624535410700,3.53841064453125,0.8317103516161442,0.5333027937766164,0.36218974619191135
1772648624545454600,3.54845458984375,0.7652537198901176,0.4877888507056981,0.42945247013643384
1772648624555497700,3.558497802734375,0.6483826597005129,0.44312670215852556,0.44486828512884674
1772648624565541600,3.568541748046875,0.5282745172858238,0.3991223964655772,0.4231256052024662
1772648624575584800,3.578584716796875,0.4262760320574045,0.37099418022055175,0.3641026306085288
1772648624585627600,3.588627685546875,0.36002865916788573,0.3983795787416398,0.28189200144428755
1772648624595671600,3.598671630859375,0.26375205871760843,0.4293297570722177,0.23879032541317863
1772648624605714400,3.60871435546875,0.18598843555748462,0.464774397277832,0.24307499872874466
1772648624615758600,3.618758544921875,0.14602584300339222,0.49464595005884765,0.27993756117457524
1772648624625801500,3.628801513671875,0.17576514770686624,0.43958866422548887,0.31399281111471355
1772648624635844600,3.6388447265625,0.2296118887066841,0.34654976705480367,0.30331686585946005
1772648624645888500,3.648888427734375,0.3692109135329723,0.26811653753742576,0.23128086309852078
1772648624655932200,3.65893212890625,0.5460352149039507,0.17181334134116769,0.1563350555717945
1772648624665976000,3.66897607421875,0.6531465131014585,0.043390667306631804,0.12593290304541588
1772648624676019200,3.679019287109375,0.6800134772390127,-0.12884374899081885,0.12844811900304628
1772648624686062000,3.68906201171875,0.5683253726452588,-0.28881032946538177,0.1735416629711166
1772648624696106200,3.699106201171875,0.46628363279700275,-0.37986042743902654,0.16465495748650283
1772648624706149000,3.709149169921875,0.3976660236448049,-0.4532478448089212,0.14735517364470288
1772648624716193300,3.719193359375,0.38312019641995426,-0.525527629730478,0.21157241067979485
1772648624726236200,3.729236083984375,0.4081465011268854,-0.6108606652315706,0.3004313918173313
1772648624736279300,3.739279296875,0.40481531087756156,-0.6358693612165749,0.3315468437122181
1772648624746323200,3.7493232421875,0.40381987009942527,-0.638883886732161,0.3570544291300699
1772648624756366300,3.759366455078125,0.374338339549303,-0.6381923242714256,0.41206488014701753
1772648624766410200,3.76941015625,0.298572612208128,-0.6904784648910165,0.5050510242171585
1772648624776453400,3.779453369140625,0.29506138921678066,-0.7430988059010356,0.5844388145130127
1772648624786496300,3.789496337890625,0.32657296428978444,-0.79750924519822,0.6505849189851433
1772648624796540000,3.799539794921875,0.345068990445137,-0.8355024373754858,0.7180559884507208
1772648624806583000,3.8095830078125,0.3018833441913128,-0.8505611825585365,0.7320824679765849
1772648624816627000,3.819626953125,0.22780922319889066,-0.8498214701071382,0.7512625308733433
1772648624826670000,3.829670166015625,0.10651800847947597,-0.8357121346034109,0.7436012755304574
1772648624836713000,3.839712890625,-0.04645779979228973,-0.8818951360423117,0.7684775042422115
1772648624846757000,3.849757080078125,-0.21858079160451888,-0.8965919891104102,0.8227727927271277
1772648624856800000,3.859800048828125,-0.4707686692565679,-0.8683728066463023,0.8519959646020084
1772648624866844200,3.86984423828125,-0.7092062539756298,-0.8206064084734768,0.8913951511196792
1772648624876887000,3.879886962890625,-0.864614842352271,-0.6875142813231796,0.910991978123784
1772648624886930200,3.88993017578125,-0.9363818554461002,-0.5907671407517046,0.8692794731624424
1772648624896974000,3.89997412109375,-0.9308025940090418,-0.5068972366057336,0.821306592632085
1772648624907017200,3.910017333984375,-0.8612029880821704,-0.47443917446285483,0.747162475143373
1772648624917061000,3.92006103515625,-0.7980500740766525,-0.5149223202923312,0.7017954662624746
1772648624927104300,3.930104248046875,-0.7893833680182695,-0.566969318393804,0.7138722730252891
1772648624937147100,3.940147216796875,-0.7877741792559623,-0.6078474914228543,0.7299626262784004
1772648624947191300,3.95019140625,-0.8048457255661488,-0.5501157987484708,0.6696997346259653
1772648624957234200,3.960234130859375,-0.8773018899679184,-0.45327495201155543,0.5289080294163897
1772648624967277000,3.970277099609375,-0.9568231704503297,-0.36371750374846157,0.4277363869335502
1772648624977321200,3.9803212890625,-1.0356576377123594,-0.29434810811458156,0.4053152597563341
1772648624987364000,3.990364013671875,-1.1140192267656326,-0.20305084871314466,0.30157000392582267
1772648624997408300,4.000408203125,-1.1673264540612698,-0.038178960540331895,0.11377006196696311
1772648625007451100,4.010451171875,-1.213680793479085,0.17694467634763567,-0.032463103644177316
1772648625017494300,4.020494384765625,-1.2523773116201162,0.3552794553468004,-0.038216771800071
1772648625027538200,4.0305380859375,-1.2229898890942335,0.5229829867489636,0.12607950844187288
1772648625037581300,4.040581298828125,-1.145742398762703,0.6064667045889421,0.3418209484346211
1772648625047625000,4.050625,-0.9506050265878438,0.6679485801097005,0.5396470847694202
1772648625057668000,4.060668212890625,-0.7123620876580476,0.6948328607082367,0.6003830738263204
1772648625067711200,4.070711181640625,-0.49984278804957866,0.6959979589648544,0.5261837920842692
1772648625077755100,4.080755126953125,-0.2839928827136755,0.7163323064632713,0.441586340848729
1772648625087798000,4.090798095703125,-0.12315116337239741,0.7222083588898182,0.31517179176621135
1772648625097842200,4.10084228515625,-0.0413572617828846,0.7800754414469003,0.23431239454783498
1772648625107885000,4.110885009765625,-0.08094868293702602,0.8855857341885566,0.19103570900969205
1772648625117928000,4.120927978515625,-0.18198036895990372,1.0137187776267529,0.2177957787066698
1772648625127972000,4.13097216796875,-0.2689472892731428,1.185555207582563,0.289774571387656
1772648625138015000,4.141014892578125,-0.24058862527310848,1.3143793020248413,0.4184806654734537
1772648625148059100,4.15105908203125,-0.146449621373415,1.404929341521859,0.5893155902365222
1772648625158102000,4.16110205078125,0.03580255026519298,1.4696901291154325,0.6645864832654595
1772648625168145200,4.171145263671875,0.3384241456031799,1.504326704341173,0.6595134177848696
1772648625178189000,4.18118896484375,0.7261053663283586,1.4708514279797673,0.6182309748038649
1772648625188232200,4.191232177734375,1.0443161604642868,1.3210175709955394,0.5392553455054759
1772648625198276000,4.201276123046875,1.2400824781924484,1.0986978851236402,0.41397476888895035
1772648625208319200,4.2113193359375,1.3453098623394966,0.8317745028935373,0.29931826120996846
1772648625218362000,4.221362060546875,1.38748954642117,0.593666734650731,0.1395684104923159
1772648625228406300,4.23140625,1.3852613489776848,0.411052378636226,0.04898479751925915
1772648625238449200,4.24144921875,1.343622932165861,0.25444201325438914,0.0035497831697575747
1772648625248493300,4.251493408203125,1.2603273938417434,0.15447233043983577,0.021494495585281402
1772648625258536200,4.2615361328125,1.1436918959736824,0.0862715584602207,0.027407427689805624
1772648625268579300,4.271579345703125,0.990422657713294,0.0738864164005965,0.006984232864156365
1772648625278623200,4.281623291015625,0.8272481115102768,0.10297880150265991,0.05127802302297205
1772648625288666400,4.291666259765625,0.6958575275808573,0.1426983060158789,0.12271605989076197
1772648625298710000,4.3017099609375,0.6125871236979961,0.16248955961354075,0.2159211439412087
1772648625308753200,4.311753173828125,0.5187281057834625,0.13557861020378767,0.32215719367414714
1772648625318796000,4.321796142578125,0.39456981119513507,0.17688808732219038,0.3884076353035867
1772648625328840200,4.331840087890625,0.2704857508867979,0.25246172615736723,0.4793914631079882
1772648625338883000,4.341883056640625,0.12827917391061783,0.2663705706529319,0.5950058012347668
1772648625348927000,4.351927001953125,-0.05899520980417728,0.24039902098514138,0.7256638331059366
1772648625358970000,4.36197021484375,-0.25533435898423196,0.22339389097467063,0.8225278049901127
1772648625369013000,4.372012939453125,-0.39305589950084685,0.20122545991688964,0.8829312010917812
1772648625379057200,4.38205712890625,-0.40282442932128903,0.14910809999294578,0.9421089278560131
1772648625389100000,4.39210009765625,-0.31655893527567386,0.08645195652842522,0.975264689939469
1772648625399144200,4.402144287109375,-0.14686580095887183,-0.03991144688874483,1.0281040074624122
1772648625409187000,4.41218701171875,0.051443771511316294,-0.20481844290755688,1.0297237906839698
1772648625419230200,4.422230224609375,0.1955395232349634,-0.3156323219500482,0.9591516133978962
1772648625429274000,4.432274169921875,0.26134967375099655,-0.3851494372252375,0.8098647227719425
1772648625439317200,4.442317138671875,0.2707400179088116,-0.4040753061652183,0.7134886805351823
1772648625449360100,4.452360107421875,0.2610550747185945,-0.4705826086325571,0.7045518522985279
1772648625459404300,4.462404296875,0.22791443713903425,-0.5277160431528464,0.718293085142225
1772648625469447200,4.472447265625,0.12431553097665309,-0.500282713836804,0.7423873696960508
1772648625479491300,4.4824912109375,-0.00673252312541008,-0.4246484308555722,0.7567675580304115
1772648625489534200,4.4925341796875,-0.10948328802585601,-0.36828539618588985,0.7556370196305215
1772648625499577000,4.5025771484375,-0.15113748692870138,-0.3478132111193612,0.7779184095434845
1772648625509621200,4.512621337890625,-0.09430150098502635,-0.35192693004850295,0.8091328283008188
1772648625519664000,4.5226640625,0.00010287585258483886,-0.31669439822360873,0.7900487000592052
1772648625529708000,4.5327080078125,0.05408288784325122,-0.26945078181587157,0.7743490996893495
1772648625539751200,4.542751220703125,0.0863040724903345,-0.2792405736200511,0.7480707490947097
1772648625549794300,4.552794189453125,0.047073885864019394,-0.3323117271374911,0.6802804576121271
1772648625559838000,4.562837890625,0.02358604277074337,-0.3835420385612175,0.6645726008705795
1772648625569881000,4.572881103515625,0.027649638947844505,-0.38692609150893986,0.6718806588616222
1772648625579925000,4.582925048828125,0.033055297383666034,-0.3803235149061307,0.7098441134877502
1772648625589968100,4.592968017578125,0.11359423047602175,-0.36570381872747093,0.7241716217868029
1772648625600011000,4.603010986328125,0.2190063235402107,-0.3664093001157045,0.6866959506776183
1772648625610055200,4.61305517578125,0.2929015808343887,-0.38460729317255316,0.6879737885937094
1772648625620098000,4.62309814453125,0.34414836846888064,-0.40310711872018873,0.6812801361739635
1772648625630142200,4.63314208984375,0.34916356628239154,-0.3771505474258214,0.6345176543466746
1772648625640185000,4.64318505859375,0.338817528834939,-0.31114016162995245,0.5777851287774741
1772648625650228000,4.65322802734375,0.2733610140621662,-0.2553039638459682,0.5272608101986348
1772648625660271600,4.663271728515625,0.17420622782707212,-0.24512520925682035,0.45105544933117925
1772648625670314800,4.673314697265625,0.07459317643046379,-0.2211848000904545,0.2886579884478822
1772648625680358700,4.683358642578125,-0.028859599259495734,-0.10908935680482536,0.14572925294330344
1772648625690401800,4.69340185546875,-0.10279168143272399,0.05969480944089591,0.03048782151583582
1772648625700444700,4.703444580078125,-0.22538637996613978,0.15343856694530694,0.030546355903195214
1772648625710488800,4.71348876953125,-0.44755262884199615,0.06591174772698431,0.20718109865197912
1772648625720531700,4.72353173828125,-0.7454343361765146,-0.11220675817299633,0.4316080042025074
1772648625730576000,4.733575927734375,-1.0823106678158043,-0.2704497662579641,0.5465146689839661
1772648625740618800,4.74361865234375,-1.3728501956939696,-0.26985574588757005,0.4949281280010938
1772648625750661600,4.75366162109375,-1.6252870796710253,-0.19207579264715313,0.32180056225620207
1772648625760705800,4.763705810546875,-1.7565192581683395,-0.20805223719701169,0.2872037710515782
1772648625770748700,4.773748779296875,-1.810327420723438,-0.2217106505954638,0.3293745411744341
1772648625780792800,4.783792724609375,-1.8595552697509525,-0.17037848623245955,0.27674174254164097
1772648625790835700,4.793835693359375,-1.807494827646017,-0.016582739879935977,0.18714056473467497
1772648625800878800,4.80387890625,-1.6923019298017024,0.22728315349817274,0.09758041305784136
1772648625810922500,4.813922607421875,-1.5182961929827927,0.49854734141156076,0.12557707534506915
1772648625820966000,4.8239658203125,-1.2935562942266463,0.8168746745992451,0.18844382935296744
1772648625831008800,4.8340087890625,-1.030553592571616,1.0583460009910166,0.34799671446010466
1772648625841052700,4.844052734375,-0.7782242606222629,1.246204760465026,0.49503502244167025
1772648625851095600,4.854095458984375,-0.5547761552423238,1.3822786799050866,0.5857192827776074
1772648625861139700,4.8641396484375,-0.30731413706839084,1.4648960267066955,0.6139774820778519
1772648625871182600,4.8741826171875,-0.10798165129125117,1.4105658861041068,0.5990017390031367
1772648625881225700,4.884225830078125,0.09612228667140006,1.4409547407574952,0.5830484196005389
1772648625891269600,4.89426953125,0.22231296387016772,1.3988824625730514,0.6645798343289643
1772648625901312800,4.904312744140625,0.36250469389259815,1.3260799689516425,0.6707593266814946
1772648625911356700,4.914356689453125,0.48550797322690487,1.2864924933202564,0.5811091951662675
1772648625921399800,4.92439990234375,0.5958586917370557,1.1653572728801518,0.47122200251463797
1772648625931442700,4.934442626953125,0.8321990119159222,1.0619188179764896,0.4212587884172797
1772648625941486800,4.94448681640625,1.133791264206171,0.9669443861659616,0.4407620188537985
1772648625951529700,4.95452978515625,1.2817407687485218,0.8395915333200246,0.6226262871533632
1772648625961574000,4.964573974609375,1.3067887007653713,0.7573601901613175,0.7874079762920737
1772648625971616800,4.97461669921875,1.2423545147776602,0.6972990316260606,0.8112950478360056
1772648625981659600,4.98465966796875,1.0940022746533156,0.6404719596412033,0.7781592325620352
1772648625991703800,4.994703857421875,0.8641361189246177,0.5882841648295521,0.7025273607335984
1772648626001746700,5.00474658203125,0.7821212680608034,0.574548777204752,0.6212816676113754
1772648626011790800,5.014790771484375,0.7689952445060014,0.49590588699206706,0.5738606488101184
1772648626021833700,5.024833740234375,0.7886673287034034,0.39688312963880595,0.5058384482678026
1772648626031876900,5.034876953125,0.800825968530774,0.3458509346030652,0.38357093586213886
1772648626041920800,5.044920654296875,0.8111211525738239,0.38466187290400267,0.1273141100044362
1772648626051964000,5.0549638671875,0.7552648253172636,0.10696619063839316,0.3537073106592521
1772648626062007600,5.065007568359375,0.8622066121667623,0.08545688107647001,0.4055040237940848
1772648626072050700,5.07505078125,0.9039829761445521,0.1479584915664047,0.2733376331865787
1772648626082093800,5.08509375,0.8466004622340202,0.128995943877846,0.14535632797768339
1772648626092137700,5.0951376953125,0.764240158933401,0.17661562705636025,0.08260523623870686
1772648626102180600,5.1051806640625,0.6726508395165205,0.19583134578838943,0.13797427316866814
1772648626112224800,5.115224853515625,0.7181155366182327,0.41036293506734073,0.060540320354327555
1772648626122267600,5.125267578125,0.3689192371100187,-0.024316183676198123,0.5651281109739095
1772648626132310500,5.135310546875,0.2068511908441782,-0.11900792608782648,0.7659977431904524
1772648626142354700,5.145354736328125,0.37216742525100704,0.3264206963375211,0.48673327723816034
1772648626152397600,5.1553974609375,0.29324001900851726,0.2744075274404138,0.4361425058269873
1772648626162441700,5.165441650390625,0.2425391748189926,0.27160876356735825,0.4268297569500282
1772648626172484600,5.175484619140625,0.3235562468171119,0.2515273679167032,0.48150125833619384
1772648626182527700,5.18552783203125,0.2802496045321226,0.08841426957733929,0.5925055819168686
1772648626192571600,5.195571533203125,0.21233400616943834,-0.10242825494781135,0.713216512530297
1772648626202614800,5.20561474609375,0.2125368352651596,-0.17683518809117377,0.6296883344940841
1772648626212657700,5.21565771484375,0.19377718973755836,-0.19052622511759398,0.45233138755112884
1772648626222701800,5.225701904296875,0.1876929013878107,-0.11515651135668158,0.36532084729187186
1772648626232744700,5.23574462890625,0.14194938734471796,-0.24141674666032192,0.34693051000069824
1772648626242788900,5.245788818359375,0.1718108571231365,-0.3246352742254734,0.331945012716949
1772648626252831700,5.255831787109375,0.23607845437228678,-0.42563846480622886,0.29516799139641225
1772648626262875000,5.265875,0.23696049790382384,-0.5008128751907497,0.26794972960315644
1772648626272919600,5.27591943359375,0.1335042150825262,-0.5557259302478283,0.28760632397048175
1772648626282962700,5.285962646484375,0.052068040889501566,-0.5797456882607191,0.268165162452124
1772648626293006600,5.296006591796875,-0.008040098592638968,-0.6213057791393249,0.2201600601525977
1772648626303049700,5.3060498046875,-0.10646247889995575,-0.6730985102187842,0.1915547461814247
1772648626313092600,5.316092529296875,-0.23611352568566799,-0.7016641680330038,0.1549356371026486
1772648626323136800,5.32613671875,-0.34927696352899074,-0.692784769072011,0.1316340098970104
1772648626333179600,5.3361796875,-0.3681371468216181,-0.6530302663106471,0.11734936349214985
1772648626343223800,5.346223876953125,-0.33917116457819935,-0.6719313661355525,0.16776391981989144
1772648626353266700,5.3562666015625,-0.30746611275970936,-0.6749822781387717,0.23188573365649207
1772648626363309600,5.3663095703125,-0.23536241505742073,-0.6957554554458707,0.28885793146677313
1772648626373353700,5.376353759765625,-0.2137082171320915,-0.6820018015120178,0.32935032004863024
1772648626383396600,5.386396728515625,-0.22490473392903804,-0.6239702491082251,0.3669410323722288
1772648626393439700,5.396439697265625,-0.25578327179551125,-0.5405888591315597,0.28143114246688783
1772648626403483600,5.406483642578125,-0.3876332899302244,-0.5273254729326814,0.2844020480364561
1772648626413526800,5.41652685546875,-0.5249678769558668,-0.4524721111960709,0.2304756841954775
1772648626423570700,5.42657080078125,-0.6788947023421525,-0.3842058727648109,0.18787781123435124
1772648626433613800,5.43661376953125,-0.8482593353569507,-0.29561960762143136,0.1754121147518046
1772648626443656700,5.44665673828125,-1.067111345118284,-0.21912183967866003,0.29040936215985563
1772648626453700900,5.456700927734375,-1.140852288633585,-0.21258162425495683,0.48955461826920504
1772648626463743700,5.46674365234375,-1.0718471414685249,-0.25940686912015076,0.6410086968664079
1772648626473788000,5.476787841796875,-0.9869932677865028,-0.34351737708896396,0.6972757238157093
1772648626483830800,5.486830810546875,-0.8891992485105991,-0.40907231073491274,0.6343745926141738
1772648626493874000,5.4968740234375,-0.719991267362237,-0.47713776589706536,0.530168952730298
1772648626503917600,5.50691748046875,-0.5146960737884044,-0.5290183944556862,0.3109002519268542
1772648626513961000,5.5169609375,-0.3534294070333242,-0.5453451868131757,0.019424347380874677
1772648626524004600,5.527004638671875,-0.3613046704530716,-0.4833478725835681,-0.27753572419723493
1772648626534047500,5.537047607421875,-0.4846154083013534,-0.3408208314813673,-0.500804290025495
1772648626544090600,5.547090576171875,-0.6038631344944239,-0.16274594552740454,-0.5305921831110492
1772648626554134500,5.557134521484375,-0.7387333772331476,0.08075637523531913,-0.5143843044254929
1772648626564177700,5.567177734375,-0.8582809631556272,0.36764629456475373,-0.4757545679103583
1772648626574221600,5.5772216796875,-0.9114157564938068,0.6971186335578561,-0.4716782949147746
1772648626584264700,5.5872646484375,-0.947822117871046,0.9805896112892776,-0.4038551606085151
1772648626594307600,5.5973076171875,-0.9466980822771787,1.1296961769122629,-0.29989965956080705
1772648626604351700,5.607351806640625,-0.8707529067158698,1.126434910093993,-0.13098003950030543
1772648626614394600,5.61739453125,-0.641638446137309,1.3143322480127215,-0.12777315148408525
1772648626624438800,5.627438720703125,-0.4202589637249708,1.2698913410007953,-0.04394423693562857
1772648626634481700,5.637481689453125,-0.19672025745213031,1.338361942897737,0.14778421271173284
1772648626644524800,5.64752490234375,-0.0043517654687166216,1.2452508207410573,0.2939442765540443
1772648626654568700,5.657568603515625,0.2376543253868818,1.149756383644417,0.2802106424949132
1772648626664611800,5.66761181640625,0.5288543630003929,0.9920233709082007,0.2724922866699286
1772648626674655700,5.67765576171875,0.8184048798412084,0.8347151594553143,0.2285168965442106
1772648626684699000,5.687698974609375,1.0192653058379888,0.6683810532428324,0.23203001923169939
1772648626694741800,5.69774169921875,1.1911404603689908,0.4748713553350419,0.23745145975854245
1772648626704786000,5.707785888671875,1.2129466339856385,0.32518180219233034,0.07310942241242155
1772648626714828800,5.717828857421875,1.1191197647750377,0.2571472536250949,-0.1990741636345163
1772648626724872700,5.727872802734375,1.0091367105334996,0.22382139567174017,-0.45559667295739054
1772648626734915800,5.737915771484375,0.9458388350993394,0.14691614290662108,-0.6417370842061937
1772648626744959000,5.747958984375,0.7964537447959185,0.07881422819159925,-0.7065298743732273
1772648626755002600,5.758002685546875,0.5977478664845228,0.09380867596678436,-0.7500966288991272
1772648626765045800,5.768045654296875,0.334925197571516,0.1675185667566955,-0.8244934059746563
1772648626775089000,5.7780888671875,0.15766776548027991,0.30955439027585085,-0.8582214880533516
1772648626785132500,5.788132568359375,0.03021218291223049,0.41676184232421215,-0.736683897357434
1772648626795175700,5.79817578125,-0.10411386994719504,0.45469629005156453,-0.5111379794480279
1772648626805219600,5.808219482421875,-0.16889409289360047,0.4211920798566192,-0.19263558195438235
1772648626815262700,5.8182626953125,-0.07222703182101249,0.4718740732152015,0.05369239068832248
1772648626825305600,5.8283056640625,0.08544891696572303,0.5047220114585012,0.18936596743287518
1772648626835349800,5.838349853515625,0.2020312233418226,0.37322796715460715,0.30700229464024303
1772648626845392600,5.848392578125,0.36344635865688324,0.2180624668188393,0.4361733758892864
1772648626855436800,5.858436767578125,0.5642839882999658,0.23103176544196902,0.5906885225575417
1772648626865479700,5.868479736328125,0.758057670906186,0.09535378651693463,0.6344634399414062
1772648626875522800,5.878522705078125,0.9808861830830573,-0.10591828902065753,0.531164649236761
1772648626885566700,5.888566650390625,1.2199375157862902,-0.29731077557876706,0.4380082996988669
1772648626895609900,5.89860986328125,1.2984586793154478,-0.500881921838969,0.47304264207053925
1772648626905653800,5.90865380859375,1.1700643545925618,-0.6206240074202418,0.4954205876931548
1772648626915697000,5.91869677734375,0.9070558077186346,-0.6796314191188663,0.447750124175474
1772648626925739800,5.92873974609375,0.6592641191989183,-0.6576705663971603,0.34862960553616285
1772648626935784000,5.938783935546875,0.48196810866296286,-0.6248098417375236,0.2727289815026335
1772648626945826800,5.948826904296875,0.4113315609037876,-0.6422818586073815,0.19568194564664734
1772648626955871000,5.95887109375,0.4554676397502422,-0.6617061055235565,0.1461911896329373
1772648626965913900,5.968913818359375,0.4605956502884626,-0.6704765642173588,0.05308861154231708
1772648626975956700,5.978956787109375,0.45705695476830005,-0.6627469928786158,-0.07235473615417722
1772648626986001000,5.9890009765625,0.4257669134914875,-0.6219035258367658,-0.23428104956150053
1772648626996043800,5.999043701171875,0.338837987101078,-0.5795842871539294,-0.34224271751064805
1772648627006087700,6.009087646484375,0.16955752523839474,-0.5817684262599796,-0.3601157894620672
1772648627016130600,6.019130615234375,0.01963058314323425,-0.5825030972100794,-0.3090800872949883
1772648627026174000,6.029174072265625,-0.03704933545589447,-0.5305025685988366,-0.290593851881288
1772648627036217600,6.039217529296875,-0.061849430191516876,-0.5036799550596625,-0.269424240868818
1772648627046260700,6.0492607421875,-0.08214812185466289,-0.48422589752711354,-0.19235833591558038
1772648627056304600,6.0593046875,-0.11942542084753513,-0.47335532474890346,-0.055604293290828354
1772648627066347800,6.06934765625,-0.1378694245547056,-0.4722058624528348,0.0062950267572887235
1772648627076390700,6.079390625,-0.13053425936102867,-0.4497118527024984,-0.04065313666809816
1772648627086434800,6.089434814453125,-0.09740297413170337,-0.4182999386116862,-0.1621395040668547
1772648627096477700,6.099477783203125,-0.10219663814902305,-0.3812023800998926,-0.24764775000438094
1772648627106521900,6.10952197265625,-0.18879472514986992,-0.3468289858549833,-0.23287741157496347
1772648627116564700,6.119564697265625,-0.3163122670382261,-0.27578056935928763,-0.22743074527531862
1772648627126607600,6.129607666015625,-0.39877544619143007,-0.21599508596025407,-0.22419753550775348
1772648627136651800,6.13965185546875,-0.4219651831209659,-0.22890483641587198,-0.20224205308090895
1772648627146694700,6.149694580078125,-0.3684913670867681,-0.3482945283629,-0.09582903934586792
1772648627156738800,6.15973876953125,-0.23005787890851495,-0.5368877395913004,0.11627272897027432
1772648627166781700,6.16978173828125,-0.0800128633916378,-0.6705014063976704,0.23575061065740882
1772648627176824800,6.179824951171875,-0.04819792145788669,-0.7734769930299371,0.1807249438050203
1772648627186868700,6.18986865234375,-0.11694003377258777,-0.8363846270374953,0.07149753480295185
1772648627196911900,6.199911865234375,-0.19304478380978107,-0.8428749389048665,-0.0015259354922221972
1772648627206954800,6.209954833984375,-0.24676409903764723,-0.7956072109691799,-0.047034709197678604
1772648627216999000,6.2199990234375,-0.34634792433977124,-0.7374659876458346,-0.11840248927427455
1772648627227041800,6.230041748046875,-0.5037649299293756,-0.5752287222929299,-0.2716721476597711
1772648627237085700,6.240085693359375,-0.675404522138834,-0.31680743014402685,-0.38154235264398156
1772648627247128800,6.25012890625,-0.8211965563863516,-0.017516367468237877,-0.3677949092552066
1772648627257172000,6.260171875,-0.9189245246887207,0.278558144313842,-0.21234403437310828
1772648627267215600,6.270215576171875,-1.0169885930776597,0.5913416527040303,-0.06569459784496576
1772648627277258800,6.2802587890625,-1.1273486639380454,0.8808581942100078,0.07609375371914356
1772648627287302700,6.290302734375,-1.214889000225067,1.1057277106951922,0.2108771766909398
1772648627297345800,6.300345703125,-1.2721125241816043,1.2456556021496652,0.4081876733874902
1772648627307388700,6.310388671875,-1.1945406242012977,1.3816387745663523,0.5660310511630028
1772648627317432800,6.320432861328125,-1.051003675404191,1.4741947470583021,0.7035574344336986
1772648627327475700,6.330475830078125,-0.8511901281118393,1.457069570864737,0.826872848457098
1772648627337519600,6.34051953125,-0.6241361071944236,1.369839615701139,0.910223624099791
1772648627347562800,6.350562744140625,-0.3114624889194965,1.2501052750349044,0.9490930876549333
1772648627357605600,6.360605712890625,-0.012281389424204826,1.12604642223306,0.9577247223999351
1772648627367649800,6.37064990234375,0.28696108486950395,1.0046243476755916,0.9153678551204502
1772648627377692700,6.380692626953125,0.5195616339981556,0.8733078518956899,0.8393946225084364
1772648627387736800,6.39073681640625,0.687193159610033,0.6918951998211443,0.7623932158924639
1772648627397779700,6.40077978515625,0.7984662536621093,0.4798470979209989,0.7293989279810339
1772648627407822800,6.41082275390625,0.8295908752441405,0.29634397637322546,0.6646686816561966
1772648627417866800,6.42086669921875,0.8308300616502762,0.12283720205239951,0.6095353714445606
1772648627427910000,6.430909912109375,0.8243564817219972,0.025023674358427523,0.5243151852007955
1772648627437953800,6.440953857421875,0.8278717963665724,-0.01128580251559615,0.4547048386842012
1772648627447997000,6.450996826171875,0.7742980270892381,0.008915566252917052,0.3805753342427313
1772648627458039800,6.461039794921875,0.6686614776194095,0.07986877874583005,0.2680540302278474
1772648627468084000,6.471083984375,0.544745759615302,0.17699995019882916,0.1771224075347185
1772648627478126800,6.481126953125,0.4329857588291168,0.2928066690925509,0.11517290536905639
1772648627488170800,6.491170654296875,0.3209796743273735,0.41490174754075704,0.08967556735058314
1772648627498214000,6.5012138671875,0.21343582993149757,0.5150310778964311,0.11763804424041882
1772648627508256800,6.5112568359375,0.08937515049874782,0.6178694480150938,0.17698712724987417
1772648627518300700,6.52130078125,-0.005955109012126922,0.7406691676013171,0.25274841587794944
1772648627528343600,6.531343505859375,-0.08782616749107837,0.7745833468366414,0.39174408624991774
1772648627538387700,6.5413876953125,-0.11304711798727511,0.7977204037308693,0.5363449379514903
1772648627548430600,6.5514306640625,-0.1055231522232294,0.8173925609935074,0.5550977884121239
1772648627558473700,6.5614736328125,0.02015489927828312,0.677174819746986,0.5866635778903961
1772648627568517600,6.571517578125,0.2056663649737835,0.5694734467018395,0.5824493211962283
1772648627578560800,6.581560791015625,0.3346867126405239,0.39744894682802256,0.5648790315836668
1772648627588603600,6.591603759765625,0.340951033732295,0.24888620575815437,0.5876688459428027
1772648627598647800,6.601647705078125,0.4248731795221567,0.16672412844337522,0.554339882716909
1772648627608690700,6.611690673828125,0.46699148880541325,0.08180076972171664,0.4997905464056879
1772648627618734800,6.62173486328125,0.5034411048024893,-0.05079217573478818,0.4367812786545604
1772648627628777700,6.63177783203125,0.5123410350948572,-0.20327764320634303,0.39024230338484045
1772648627638820600,6.641820556640625,0.4952788411349058,-0.27975831388384104,0.3490161206357181
1772648627648864800,6.65186474609375,0.4569371277809143,-0.3073017890434712,0.2904517034642398
1772648627658908000,6.661907958984375,0.36277357396185395,-0.2956495643682778,0.2424195122283883
1772648627668951800,6.671951904296875,0.23100714245736598,-0.29752500285133715,0.2564884609228
1772648627678995000,6.681994873046875,0.07462006443738937,-0.29500834385529157,0.29271018644813446
1772648627689037800,6.692037841796875,-0.06206921042203903,-0.2927799272160977,0.3063554115714505
1772648627699082000,6.70208203125,-0.12820844676196574,-0.3141147569939494,0.3543837120834738
1772648627709124900,6.712124755859375,-0.10036182393729687,-0.3320703195970505,0.3956810969052836
1772648627719169000,6.7221689453125,-0.027891046488285064,-0.3609755480965599,0.43020949904881417
1772648627729212000,6.7322119140625,0.04397475080490112,-0.38123770714160055,0.4517788317022845
1772648627739255000,6.742255126953125,0.098399583953619,-0.41239433129709213,0.48853601581119
1772648627749298700,6.752298583984375,0.058282093098759646,-0.4312433721411973,0.5001473970193415
1772648627759342000,6.762342041015625,-0.02542202602624893,-0.43719402417391534,0.5332006120437756
1772648627769385700,6.7723857421875,-0.05357084666788578,-0.4207389657942578,0.5618836126273498
1772648627779428900,6.782428955078125,-0.04401099116206169,-0.3978683412838727,0.5566405243420973
1772648627789471700,6.7924716796875,-0.017512860336899756,-0.41053350586127485,0.6018873409094289
1772648627799516000,6.802515869140625,0.048366848284006114,-0.4249279053840786,0.6427075366735459
1772648627809558800,6.812558837890625,0.08227613214850425,-0.4410812043381855,0.6743498985193669
1772648627819603000,6.82260302734375,0.07915536977946758,-0.47538094882499426,0.6716323831889778
1772648627829645800,6.832645751953125,0.05143383463919163,-0.4987751588180661,0.6369734500009566
1772648627839688700,6.842688720703125,0.0031178397595882416,-0.5057730548813939,0.6221398918759078
1772648627849732900,6.85273291015625,-0.08815233070552349,-0.503758500188589,0.5813850894981994
1772648627859775700,6.862775634765625,-0.1347071611315012,-0.4804902911953628,0.5745316068742424
1772648627869820000,6.87281982421875,-0.1757932047575712,-0.41994471014402807,0.596717573588714
1772648627879862800,6.88286279296875,-0.20960662703216074,-0.3357889747940004,0.5753104092270136
1772648627889906000,6.892906005859375,-0.248107330340147,-0.2718769860494882,0.5523141125103458
1772648627899949800,6.90294970703125,-0.3352794178366661,-0.20402575815990567,0.5394624854501336
1772648627909993000,6.912992919921875,-0.4500310016542673,-0.1885408965192735,0.5469041066929697
1772648627920035800,6.923035888671875,-0.6033978550702334,-0.2512837684191763,0.6443665559269488
1772648627930080000,6.933080078125,-0.6620411826968192,-0.38956111618764694,0.804558140796423
1772648627940123000,6.943122802734375,-0.5723141500204801,-0.5281036907635629,0.8457237524647265
1772648627950167000,6.9531669921875,-0.3837555717140436,-0.6472082090936601,0.7956213125597685
1772648627960210000,6.9632099609375,-0.2603238378345966,-0.6912998642764985,0.7000055871710181
1772648627970252800,6.973252685546875,-0.213830382207036,-0.7615333841927349,0.6842031109485774
1772648627980297000,6.983296875,-0.27255203576683995,-0.8543190007220953,0.6703222504384815
1772648627990339800,6.99333984375,-0.4276268621444702,-0.8352712589681148,0.5674528275944293
1772648628000383700,7.0033837890625,-0.6222288122683763,-0.6436767470318824,0.3334190307922661
1772648628010427000,7.013427001953125,-0.8013765881508589,-0.37667087415009737,0.16415548353176562
1772648628020470000,7.023469970703125,-0.9461047925591468,-0.12160400699563324,0.15635284695681184
1772648628030513700,7.033513671875,-1.0964543439805507,0.10685907700210809,0.16023944259919226
1772648628040556800,7.043556884765625,-1.1951906125426293,0.3359574632287025,0.1502478080799803
1772648628050600700,7.0536005859375,-1.279722414663434,0.5721900852493942,0.1149608791867271
1772648628060643800,7.063643798828125,-1.3029665121287106,0.7730936197355389,0.16260887514427302
1772648628070686700,7.073686767578125,-1.2642308310210704,0.9987015334978699,0.14057543211039156
1772648628080731000,7.08373095703125,-1.1983370938748121,1.1845882622465491,0.1129370086763054
1772648628090773800,7.093773681640625,-1.0881915425479411,1.2374280181609094,0.20331439502015708
1772648628100818000,7.10381787109375,-0.9246417332917451,1.218859365160763,0.3293860124165192
1772648628110860800,7.11386083984375,-0.6621183395862579,1.228385902918875,0.3580051905162632
1772648628120903700,7.123903564453125,-0.33981121604740616,1.1911810115750878,0.32768509025014936
1772648628130947800,7.13394775390625,0.00864917040169239,1.0805820904575287,0.36174006619565185
1772648628140990700,7.14399072265625,0.3247597773879766,0.9456059761915355,0.4468056463995948
1772648628151035000,7.154034912109375,0.6217331377059221,0.7937026194568723,0.5162817720772698
1772648628161077800,7.164077880859375,0.9111386931180954,0.6559240149907768,0.49572972670756277
1772648628171121000,7.174120849609375,1.1888543952584265,0.5286393320102244,0.4126604348873719
1772648628181164800,7.184164794921875,1.3677631016880274,0.3794054136805236,0.3145415310386568
1772648628191208000,7.1942080078125,1.4202011449337004,0.2308088434062898,0.23479736505318433
1772648628201250800,7.204250732421875,1.352850779238343,0.1402125536147505,0.10317087174234911
1772648628211295000,7.214294921875,1.247618134394288,0.09979695659615098,-0.04244207961121574
1772648628221337900,7.224337890625,1.1108651466488837,0.10088475183285772,-0.2069973395829089
1772648628231382000,7.234382080078125,0.9432628471314907,0.15760120305009184,-0.3455616693329066
1772648628241425000,7.2444248046875,0.7376385677337646,0.2547544402044266,-0.49800117877088484
1772648628251468000,7.254468017578125,0.5207622419595718,0.387056805216521,-0.5854365203134715
1772648628261511700,7.26451171875,0.3286673062205314,0.5685087663881481,-0.533563271343708
1772648628271555000,7.27455517578125,0.1322708738952875,0.7209978871215135,-0.4359575411815196
1772648628281598700,7.2845986328125,-0.05334814382791519,0.8202321683336049,-0.2865069478938356
1772648628291641900,7.294641845703125,-0.20486732355058193,0.8868171026144176,-0.10266032840432598
1772648628301684700,7.304684814453125,-0.2588824068546295,0.8915895046479999,0.11286330411927774
1772648628311729000,7.31472900390625,-0.13044599655568598,0.8725407399807125,0.26507811968959866
1772648628321771800,7.324771728515625,0.19834815091490746,0.7793145400770009,0.3297114815112203
1772648628331816000,7.33481591796875,0.5143804319679737,0.6565246112324297,0.35558044758737084
1772648628341858800,7.34485888671875,0.6944955915778875,0.5021547182537615,0.3749596497854218
1772648628351901700,7.354901611328125,0.7646200981616973,0.3399216176193207,0.31568690168149766
1772648628361945900,7.36494580078125,0.7561030297070741,0.18226788066439328,0.194365547552146
1772648628371988700,7.37498876953125,0.6987427276283502,0.08849960977323353,0.11640994548387824
1772648628382033000,7.385032958984375,0.570208702173829,0.014879589223861693,0.11896925631156191
1772648628392075800,7.39507568359375,0.4496189137220382,-0.047661841819807885,0.20359852745747192
1772648628402119000,7.405118896484375,0.37633681989014145,-0.0526751399371773,0.2768625924423337
1772648628412162800,7.415162841796875,0.39108722977638244,-0.053254912586510175,0.3298970672111958
1772648628422206000,7.4252060546875,0.48190614934265613,-0.10840521046556532,0.3295533683400601
1772648628432249900,7.435249755859375,0.5785545057147741,-0.231776884720847,0.34695476765912026
1772648628442293000,7.44529296875,0.6408177774041891,-0.35808380871042605,0.2610749667291529
1772648628452335900,7.4553359375,0.6657382836490869,-0.5015001998677849,0.14116777198035269
1772648628462380000,7.465380126953125,0.538561518022418,-0.6321575010865926,0.016786244829092172
1772648628472423000,7.4754228515625,0.3545411676675081,-0.7511733912851661,-0.03801043557301163
1772648628482466800,7.485466796875,0.15393500869274138,-0.8172462843906134,-0.06819624193497002
1772648628492510000,7.495510009765625,0.016595745491981506,-0.825015237891674,-0.10764942366220057
1772648628502552800,7.505552734375,-0.06862170080542564,-0.833005798254162,-0.11234287870805709
1772648628512596700,7.5155966796875,-0.14519757548570633,-0.8256772819969802,-0.0712829741702415
1772648628522640000,7.525639892578125,-0.21313012498319148,-0.7692332179803401,-0.013462160173989832
1772648628532683800,7.535683837890625,-0.3074772186756134,-0.7075358365453779,0.04364170119194313
1772648628542726700,7.5457265625,-0.2902501895427704,-0.5867014256827533,0.11009168398147448
1772648628552769800,7.555769775390625,-0.2702326529085636,-0.5090758958190679,0.16461723755830898
1772648628562813700,7.565813720703125,-0.2292459780037403,-0.4744935349985957,0.295697823956795
1772648628572856800,7.57585693359375,-0.11751987948715686,-0.48009449681080874,0.40220067139975724
1772648628582899700,7.585899658203125,0.006601005700230598,-0.42481838059499855,0.4076969672610983
1772648628592943900,7.59594384765625,0.028427053061127663,-0.3596861293405294,0.3874396305216476
1772648628602986800,7.60598681640625,-0.020000000977516173,-0.3468652262121439,0.4114695811349898
1772648628613031000,7.616031005859375,-0.09173486536741256,-0.335905294650048,0.4740650073882192
1772648628623073800,7.62607373046875,-0.07903729635775089,-0.3508713200483471,0.47445831755474205
1772648628633117000,7.636116943359375,-0.012791092512011527,-0.3522513762298971,0.352762175296247
1772648628643160800,7.646160888671875,0.016482932767271995,-0.372014572776854,0.1405872686786577
1772648628653204500,7.65620458984375,-0.03280570653676986,-0.4299613695066422,-0.05017134042270481
1772648628663248600,7.66624853515625,-0.13871698129475116,-0.5158501391943544,-0.1562054743753746
1772648628673291500,7.67629150390625,-0.20527531982958316,-0.4959492146771401,-0.20319208381474016
1772648628683334700,7.686334716796875,-0.35914953824579715,-0.516171626233682,-0.20740736342221497
1772648628693378600,7.696378662109375,-0.5218897846847772,-0.509139024183154,-0.1545163887772709
1772648628703421400,7.70642138671875,-0.6509744297593831,-0.526411061501503,-0.024408592933695763
1772648628713465300,7.71646533203125,-0.7346995916724205,-0.5991743190910667,0.09228548498749732
1772648628723508500,7.726508544921875,-0.7423609200805426,-0.5880190110873431,0.08296588624464347
1772648628733551600,7.736551513671875,-0.7601070046514272,-0.5243278985518962,0.007379314862657338
1772648628743595300,7.74659521484375,-0.7760217821419239,-0.5195249552495778,0.032567331203632054
1772648628753638400,7.756638427734375,-0.773638101875782,-0.489250301560387,0.13100233353050425
1772648628763682300,7.766682373046875,-0.8130541664630174,-0.42826537924371655,0.22109436359433457
1772648628773725400,7.776725341796875,-0.8751146090567111,-0.3527397442687303,0.32089177684821185
1772648628783768300,7.786768310546875,-0.9210206201851368,-0.2355811723746359,0.3896327201191336
1772648628793812500,7.7968125,-0.8904536324858665,-0.09136004070565104,0.42904922309778626
1772648628803855400,7.80685546875,-0.8252192360311746,0.08449373513273895,0.49136670919246966
1772648628813898500,7.8168984375,-0.7771078238129615,0.24957944871932267,0.5702009572587907
1772648628823942400,7.8269423828125,-0.7731798367142677,0.38515791279263795,0.6871648102983832
1772648628833985500,7.836985595703125,-0.7658353191703557,0.5639406547550112,0.8222183737147599
1772648628844029400,7.847029541015625,-0.7296493225455284,0.7114872045196592,0.8967080167055129
1772648628854072600,7.857072509765625,-0.5865063415020704,0.7906482733875513,0.9753806444693356
1772648628864116500,7.867116455078125,-0.4312357002913952,0.8489129769600927,1.0728574875548482
1772648628874159600,7.87715966796875,-0.23237609272301196,0.9338921575222164,1.0510447380669414
1772648628884202500,7.887202392578125,-0.02809329106211662,1.0201460341952742,0.9577255991827696
1772648628894246700,7.89724658203125,0.1366845986843109,1.0737968872968107,0.9028862669490277
1772648628904289500,7.90728955078125,0.2769301047205925,1.094517457633838,0.8348840132161974
1772648628914332400,7.91733251953125,0.3563450022190809,1.0828961395535617,0.8451953446764499
1772648628924376600,7.92737646484375,0.42101475052833554,1.0795628304123879,0.912097162886709
1772648628934419500,7.93741943359375,0.479761538529396,1.0513190249636768,0.941691286965832
1772648628944463600,7.947463623046875,0.6175760180264711,0.9986884548205882,0.9957909798134118
1772648628954506500,7.957506591796875,0.7510457463175058,0.9121584646198898,1.0038807627666742
1772648628964549600,7.967549560546875,0.8447557111501693,0.8246640863664447,1.016327498820424
1772648628974593300,7.97759326171875,0.8966758680015802,0.7538066623982042,1.0180627251151948
1772648628984636700,7.98763671875,1.0028127682089805,0.6484604011118411,1.05504571733661
1772648628994680300,7.997680419921875,1.0514917511820792,0.5549019735790789,1.088331462475285
1772648629004723500,8.007723388671875,1.0426631325602531,0.5345256866350769,1.1317436109613626
1772648629014766300,8.017766357421875,0.9682675245285034,0.521342818326503,1.0975691733546555
1772648629024810500,8.027810546875,0.8127063759386539,0.37905937672182916,1.1376578765064478
1772648629034853400,8.037853271484375,0.6223761117845773,0.3105133715011179,1.0878428021755069
1772648629044897500,8.0478974609375,0.45893794620931144,0.32633491775020956,0.9325565250042825
1772648629054940400,8.0579404296875,0.3295832520216703,0.28123211276344956,0.7421988613866269
1772648629064983300,8.0679833984375,0.24260639483630655,0.24601160016991197,0.6102759606787934
1772648629075027500,8.07802734375,0.2165536696910858,0.22891806122362612,0.4521190965073183
1772648629085070300,8.0880703125,0.1839677433848381,0.22545177335254846,0.3203681183002889
1772648629095114500,8.098114501953125,0.13989946907758713,0.24083478205390274,0.22245372404772787
1772648629105157400,8.108157470703125,0.03831365630328655,0.28273360336758196,0.20398184595294294
1772648629115200500,8.118200439453124,-0.05718260742425918,0.3858225872464478,0.1832974063752219
1772648629125244400,8.128244384765624,-0.14304361232221124,0.47611419500298796,0.22906157961385323
1772648629135287600,8.13828759765625,-0.22171616702079772,0.5114180750310421,0.36245296370536084
1772648629145330400,8.148330322265625,-0.2547416537880897,0.5323657321222126,0.4978658619534224
1772648629155374600,8.15837451171875,-0.2161269687116146,0.5235596906583756,0.5354395135443657
1772648629165417500,8.16841748046875,-0.15387538745999335,0.5179889047887176,0.4955995244566351
1772648629175461600,8.178461669921875,-0.09311082989573478,0.48171610666327175,0.4825624578269198
1772648629185504500,8.18850439453125,-0.08476911800801754,0.38429932320192456,0.5121070802085101
1772648629195547600,8.198547607421874,-0.087267364564538,0.2705587430577725,0.5052659090768545
1772648629205591600,8.208591552734376,-0.07261573887765407,0.15335910850092768,0.49899705794043836
1772648629215634700,8.218634765625,-0.015236732098460196,0.029272344778850674,0.5087169263135641
1772648629225678300,8.22867822265625,0.07352291685044765,-0.09080627928040921,0.5534494732158258
1772648629235721500,8.238721435546875,0.14358137246072292,-0.22211554160192606,0.6176401693038642
1772648629245764600,8.2487646484375,0.25965514479279517,-0.3095323245745152,0.6582255699314177
1772648629255808500,8.25880859375,0.33637773446738717,-0.3554411121819168,0.6415734180770815
1772648629265851400,8.268851318359374,0.32111294531822204,-0.37790969523005186,0.5697637714179232
1772648629275895300,8.278895263671876,0.20661387495696543,-0.39354821306243537,0.515811889543198
1772648629285938400,8.2889384765625,0.06010813948214054,-0.4485474120330065,0.43919568285252897
1772648629295981300,8.298981201171875,-0.07549684727191924,-0.48876054528206586,0.35984402331598103
1772648629306025500,8.309025390625,-0.1379313838750124,-0.5042389041166753,0.3061683645667508
1772648629316068400,8.319068359375,-0.19211422496140002,-0.5410245471350849,0.29484668702017514
1772648629326112500,8.329112548828125,-0.2363262916535139,-0.5712617914233357,0.24246052009221164
1772648629336155400,8.3391552734375,-0.24475626634657383,-0.5845976583365351,0.17947149141151458
1772648629346198500,8.349198486328126,-0.22694237723648547,-0.564297578433901,0.1203216116354335
1772648629356242400,8.359242431640626,-0.23926059153974055,-0.5620603939663619,0.05045464174295775
1772648629366285600,8.36928564453125,-0.29518355429172516,-0.5139808381911367,0.06350970068708993
1772648629376329500,8.37932958984375,-0.38742461561560626,-0.43928821997419,0.08489331977642141
1772648629386372600,8.38937255859375,-0.4553209247559309,-0.30787600873485205,0.06064969901293516
1772648629396415500,8.39941552734375,-0.43136721771657466,-0.18036226623877882,0.03908216559090651
1772648629406459600,8.409459716796874,-0.37951778801381586,-0.06665924162603915,0.035389905210537836
1772648629416502500,8.41950244140625,-0.3062742726266384,0.07236519818268716,0.040618243451230225
1772648629426546700,8.429546630859376,-0.31993571823239325,0.17292561343200505,0.11048493021591566
1772648629436589600,8.439589599609375,-0.3940057475715875,0.26965857934765514,0.22166787089966236
1772648629446632400,8.449632568359375,-0.4481669613480568,0.3105544341638684,0.35085539182685316
1772648629456676600,8.459676513671875,-0.4427238935112953,0.22900800452940165,0.5692855229143053
1772648629466719500,8.469719482421874,-0.3124479928255081,0.015965338633954523,0.8054267403244971
1772648629476762600,8.4797626953125,-0.15410159743130206,-0.2078545226678252,0.8980711948174983
1772648629486806300,8.48980615234375,0.024697218883037567,-0.3836052034579217,0.8753156115215271
1772648629496849700,8.499849609375,0.15370178445875643,-0.5431253188066184,0.7848534695036709
1772648629506893300,8.509893310546875,0.21170096896290777,-0.659939826503396,0.6229508429326117
1772648629516936400,8.5199365234375,0.26138182245492936,-0.6715104373097419,0.3002154840443283
1772648629526979300,8.529979248046875,0.18104513393640517,-0.5423430823877453,-0.04459037108574994
1772648629537023500,8.5400234375,0.021003040540218353,-0.38121903897374865,-0.27541443946063515
1772648629547066400,8.55006640625,-0.18654899204969405,-0.16915961196199059,-0.33351986081823704
1772648629557110500,8.560110595703126,-0.3707552203655243,0.08470423607826233,-0.2601218489890918
1772648629567153400,8.5701533203125,-0.5440238750815392,0.3679797643028199,-0.1696749045403674
1772648629577196300,8.5801962890625,-0.6734931355595588,0.6472894576363265,-0.15119951018108985
1772648629587240400,8.590240478515625,-0.7164654313236475,0.8866662229016423,-0.08989944836748763
1772648629597283300,8.600283447265625,-0.7615022584021091,1.054603891853243,-0.011705717561254277
1772648629607327500,8.610327392578125,-0.7963754188627005,1.1293817772008479,0.05792418303918093
1772648629617370400,8.620370361328124,-0.7340583711594343,1.1914951190255583,0.05427424569688737
1772648629627413500,8.63041357421875,-0.6310100846171379,1.2253276843920349,-0.039745881063491105
1772648629637457400,8.64045751953125,-0.4688087673604488,1.2323040992759167,-0.06557039607656188
1772648629647500500,8.65050048828125,-0.3088268797188997,1.1881192128516733,0.06636331828623078
1772648629657543700,8.660543701171875,-0.08756897785961627,1.113453409576416,0.24221533142579718
1772648629667586800,8.6705869140625,0.15724690971970556,1.0682013323120771,0.3570471591390669
1772648629677629700,8.680629638671874,0.4221937311798334,1.0349977124989032,0.37016178451702
1772648629687673900,8.690673828125,0.7058709720730781,0.9970081735834478,0.3284077785015106
1772648629697716700,8.700716796875,0.9060434158056974,0.9041684157140553,0.2263574717543088
1772648629707761000,8.710760986328125,1.0345850400447845,0.7841571578025818,0.06436565992929973
1772648629717803800,8.7208037109375,1.0317577076643705,0.6430456825867295,-0.09396864316831342
1772648629727847000,8.730846923828125,0.9426637121945619,0.5085922039553523,-0.21277807840881868
1772648629737890800,8.740890869140625,0.7927233260959387,0.4233677433952689,-0.31085381896924225
1772648629747934000,8.750933837890624,0.6451578524351119,0.32913784634172916,-0.39478907996900375
1772648629757976800,8.760976806640626,0.5213742363780737,0.29989889237582684,-0.43168928927779193
1772648629768021000,8.77102099609375,0.423992305034399,0.2843494410663843,-0.5263980193568393
1772648629778064000,8.78106396484375,0.3354243792653084,0.26742212553247807,-0.6204150408446788
1772648629788107800,8.791107666015625,0.2742015565395355,0.2986978460229933,-0.6488970389634371
1772648629798150700,8.801150634765625,0.16554945864081383,0.3393529508858919,-0.6048153937179594
1772648629808193800,8.81119384765625,0.038031916752457616,0.3718262105979025,-0.47384442344009875
1772648629818237700,8.82123779296875,-0.043214287826418875,0.4199437602959573,-0.3089516020771116
1772648629828280600,8.831280517578126,-0.07006430082917213,0.46931277135983107,-0.15377165309088303
1772648629838324700,8.84132470703125,-0.03199029850065708,0.5119276319883763,-0.04043068498987704
1772648629848367600,8.85136767578125,0.03193535344302654,0.5367556376442313,0.06488870655586942
1772648629858410800,8.86141064453125,0.13956804516613483,0.49610959287062284,0.19372798030097035
1772648629868454700,8.87145458984375,0.2632014390975237,0.39778760419785975,0.26198638248564676
1772648629878497800,8.881497802734375,0.3920423385441303,0.31697555325254795,0.2717343261757865
1772648629888541700,8.891541748046874,0.47385085318088527,0.22181085956692695,0.22666071075089275
1772648629898584800,8.901584716796876,0.4625041142582893,0.10907076170220971,0.18710708259018136
1772648629908627700,8.911627685546875,0.3597393208324909,0.015028934566676616,0.17802005049418657
1772648629918672000,8.921671875,0.27790391818881033,-0.11358297842964529,0.1270084598550573
1772648629928713700,8.931713623046875,0.28008067770600314,-0.1322478583458811,0.13019125460963696
1772648629938757600,8.941757568359375,0.25156945349276066,-0.23436193277798592,0.09417570091458037
1772648629948800800,8.95180078125,0.25429624810814855,-0.3063220572911203,-0.006891129486914724
1772648629958843600,8.96184375,0.26488077048659325,-0.3789814161147922,-0.07765119402790442
1772648629968887800,8.9718876953125,0.30174013632833957,-0.42108576993793245,-0.1114325406637974
1772648629978930700,8.9819306640625,0.31962592163085934,-0.48148843538723884,-0.1343507489092648
1772648629988974800,8.991974853515625,0.3259761674404144,-0.5155712491877377,-0.1685163821550086
1772648629999017700,9.002017822265625,0.31504268549382686,-0.51586526369825,-0.21444389272918923
1772648630009060900,9.012060791015625,0.26940087825953957,-0.556159718555212,-0.2734251653395593
1772648630019104800,9.022104736328124,0.1888473321199417,-0.5984291998121887,-0.3368627415053546
1772648630029148000,9.03214794921875,0.12626491147875785,-0.6228525701899081,-0.37275041277073323
1772648630039191800,9.04219189453125,0.07659399485886097,-0.6467641185879707,-0.40870113933496177
1772648630049235000,9.05223486328125,-0.026087211936712262,-0.6852687674187123,-0.40075935001764446
1772648630059277800,9.06227783203125,-0.13664835832715033,-0.6881987564560026,-0.35924276948720213
1772648630069322000,9.072322021484375,-0.21381460011601447,-0.6303976518072187,-0.28519204763667655
1772648630079364900,9.08236474609375,-0.2090776347219944,-0.586336026436463,-0.14810074958130717
1772648630089408800,9.09240869140625,-0.07209259178638458,-0.560576804345101,-0.024786723797395823
1772648630099452000,9.102451904296874,0.08953881662786006,-0.55559477814883,0.021087777947913854
1772648630109494800,9.112494873046876,0.21353286056518553,-0.5640145237088203,0.046708358753565694
1772648630119538700,9.12253857421875,0.34374154123365874,-0.6010542876187711,0.0593008234209381
1772648630129581600,9.13258154296875,0.4231424102067947,-0.6749152042519301,0.07853539298390969
1772648630139625700,9.142625732421875,0.4701859009325504,-0.7184679302524775,0.06422463489025831
1772648630149668600,9.152668701171875,0.41794542608559127,-0.7389598794654011,0.014022241742163896
1772648630159711700,9.162711669921874,0.39592648650109763,-0.8182808881353586,0.021894290291517973
1772648630169755600,9.172755615234376,0.4061468517422676,-0.915860972399637,0.02261825718451291
1772648630179798800,9.182798828125,0.43030397239923474,-0.9987700686894356,0.033317446318035945
1772648630189841700,9.192841552734375,0.47963761988878245,-1.0892191320300102,-0.04623222000864334
1772648630199885800,9.2028857421875,0.4045236344546079,-1.1122171457797287,-0.13974877202790228
1772648630209928700,9.2129287109375,0.20032441942393778,-1.1223675145246088,-0.2905951853218488
1772648630219972900,9.222972900390625,-0.11422200698554515,-1.1389434593375771,-0.4082337775515392
1772648630230015700,9.233015625,-0.42084173204898834,-1.1178691801920533,-0.5470131930906326
1772648630240058600,9.24305859375,-0.6467044973552226,-1.0727792346868663,-0.701539811000973
1772648630250102800,9.253102783203126,-0.807709882825613,-1.0187712387107313,-0.6946656874477863
1772648630260145700,9.263145751953125,-0.916059198385477,-0.9395482105225325,-0.5275886539135128
1772648630270189800,9.27318994140625,-0.983124901920557,-0.9037680182196199,-0.34556594364922494
1772648630280232700,9.283232666015625,-0.9404653253674506,-0.8367971533611417,-0.22380375041719525
1772648630290276900,9.29327685546875,-0.8807645976424217,-0.7161863951865584,-0.17273009085990487
1772648630300319700,9.30331982421875,-0.8940086946189403,-0.6254501854676753,-0.13239011636078357
1772648630310363600,9.31336376953125,-0.8781915322840214,-0.49458662108704443,-0.11984426731411367
1772648630320406800,9.32340673828125,-0.8647463597774505,-0.4249583005223423,-0.19262791010458022
1772648630330450000,9.333449951171875,-0.9396165995836258,-0.39893195192739367,-0.2586731480181217
1772648630340493600,9.34349365234375,-1.033729884520173,-0.30649617174901067,-0.33805984233543274
1772648630350536700,9.35353662109375,-1.1390735885232686,-0.2196225557424128,-0.39171986512411383
1772648630360580600,9.36358056640625,-1.201179623824358,-0.12302929055839776,-0.45421084462217987
1772648630370623700,9.373623779296874,-1.1386690993756055,0.0022242519207298756,-0.4278011592654511
1772648630380666600,9.38366650390625,-1.0575029742956161,0.1646684380225837,-0.3605379238642752
1772648630390710800,9.393710693359376,-0.929981340754032,0.3077323624804616,-0.23058630496310067
1772648630400753700,9.403753662109375,-0.7360638657629489,0.4115474686767906,-0.13131718989964575
1772648630410797800,9.4137978515625,-0.5346902295470237,0.4666084808371961,-0.03282778593783732
1772648630420840700,9.4238408203125,-0.30159575942158695,0.5362883123934269,0.03088430773684522
1772648630430883600,9.433883544921875,-0.0859247177839279,0.6169317287735641,0.08406012035529128
1772648630440927700,9.443927734375,0.029843934121727943,0.6769067433953285,0.10939219394261017
1772648630450970600,9.453970703125,0.05086509484052658,0.7578172862790524,0.03483929700689623
1772648630461013800,9.464013671875,-0.023724574458599088,0.8690480024941265,-0.0031904654627374837
1772648630471057700,9.4740576171875,-0.10681202298998832,1.0189046558320523,-0.04451172092554625
1772648630481100800,9.484100830078125,-0.16486381446421144,1.095527000002563,-0.057376623025862494
1772648630491144700,9.494144775390625,-0.11630465847849845,1.1952936345256864,-0.06564705977565609
1772648630501187800,9.504187744140625,0.015017536389827727,1.2995420906379818,-0.018571725164999952
1772648630511230700,9.514230712890624,0.2112643311113119,1.3507985228836537,0.07724828491597435
1772648630521275000,9.52427490234375,0.45665480370819567,1.3240034549385309,0.18020155925173312
1772648630531317800,9.53431787109375,0.6887906579345464,1.2543344370372593,0.25216586674964053
1772648630541362000,9.54436181640625,0.8153542600989341,1.1277324025586246,0.3074688892386854
1772648630551404800,9.55440478515625,0.8406348318278789,0.9916403629399836,0.345855355049856
1772648630561448000,9.564447998046875,0.7981377523601054,0.8757559757001697,0.39061526488307863
1772648630571491800,9.574491943359375,0.7501391528666019,0.755281630321592,0.44281087767500427
1772648630581535000,9.584534912109374,0.7207160745054483,0.6145638305984437,0.488337095705606
1772648630591578600,9.59457861328125,0.7125473810970783,0.513196336749941,0.4771918341718614
1772648630601621800,9.604621826171876,0.7199006664693355,0.4725820022888481,0.4299781379783526
1772648630611665000,9.614664794921875,0.7509913857817649,0.46734731650575995,0.3808633574038744
1772648630621708800,9.624708740234375,0.7429074480473995,0.4530208311200142,0.41938941434882576
1772648630631751700,9.634751708984375,0.691300010406971,0.410779626109451,0.4832509515477344
1772648630641795800,9.6447958984375,0.6314116511553526,0.3432042194865644,0.42986653083004056
1772648630651838700,9.654838623046874,0.533192099943757,0.31842034523338075,0.25809487320613117
1772648630661882000,9.664882080078126,0.3542120818436146,0.3086512308910489,0.06797819700380787
1772648630671926000,9.674926025390626,0.14160919560492038,0.30749314689710733,0.007457850858429447
1772648630681969200,9.68496923828125,-0.04027881889641285,0.24653116706460712,0.045858007268235086
1772648630692013000,9.695012939453125,-0.16520459072589874,0.19850231856331227,0.048717515752045436
1772648630702056200,9.70505615234375,-0.23684359352588652,0.18597367637977003,-0.014069026326225139
1772648630712099000,9.71509912109375,-0.26591712779700755,0.23691505132690072,-0.043452507895929735
1772648630722143200,9.725143310546875,-0.20332301671802996,0.3132378280289471,0.026442825007927603
1772648630732186000,9.73518603515625,-0.04364800306856632,0.336472280883044,0.10385407736669294
1772648630742230300,9.745230224609376,0.09830956758260727,0.31907924753352995,0.19816828256966545
1772648630752273200,9.755273193359375,0.17794775244295596,0.2617662917278707,0.25708708440307526
1772648630762316000,9.76531591796875,0.2179565222263336,0.18189415198117492,0.33595413876045493
1772648630772360200,9.775360107421875,0.29664368997216223,0.06289689341783523,0.3692747725494206
1772648630782403000,9.785403076171875,0.418953141823411,-0.08097644772678614,0.36173009279090906
1772648630792446200,9.7954462890625,0.5009253225892782,-0.2738511356666684,0.3732513480301946
1772648630802490000,9.805489990234374,0.582750788360834,-0.35757454401403665,0.38745965039636937
1772648630812533200,9.815533203125,0.6370020185083151,-0.4305668611191213,0.3430768302472308
1772648630822577000,9.825576904296875,0.6967232044994831,-0.5006472363002598,0.2490635898853652
1772648630832620000,9.8356201171875,0.7270020229071378,-0.5938911910563707,0.19712763267662375
1772648630842663200,9.8456630859375,0.6606073505014181,-0.6358345821641386,0.14376773447883315
1772648630852707000,9.85570703125,0.5067196880817413,-0.6958066741764545,0.10960103265400975
1772648630862750000,9.86575,0.31553485292494293,-0.6950180080167949,0.08951180988992564
1772648630872794000,9.875794189453124,0.18297230260670183,-0.6830581786971539,0.09904518838077783
1772648630882837000,9.8858369140625,0.13185469430983066,-0.6865122646737843,0.13768838716568424
1772648630892880100,9.895880126953125,0.21889117272794245,-0.6950236340399831,0.1696329650947824
1772648630902924000,9.905924072265625,0.3913613705426454,-0.6630754211153834,0.164525741616264
1772648630912967200,9.91596728515625,0.5400228227466345,-0.6751908793881535,0.1549429436262697
1772648630923011000,9.926010986328125,0.5919570081233978,-0.6454401765078306,0.16108597642593084
1772648630933054200,9.93605419921875,0.5374211158156394,-0.6152981362223625,0.17575079038795083
1772648630943097000,9.94609716796875,0.40299043353796005,-0.5987454992197454,0.20745105643346903
1772648630953141200,9.956141357421876,0.2655050398647785,-0.5993467530485243,0.2699600830448791
1772648630963184000,9.96618408203125,0.1412327635079622,-0.635933877820149,0.30592290190570054
1772648630973228300,9.976228271484375,0.0674509034603834,-0.6628473114479333,0.30026683063907544
1772648630983271200,9.986271240234375,0.06921382147967815,-0.6977750516399741,0.22144308570045976
1772648630993314000,9.99631396484375,0.07038578786849975,-0.735862205711007,0.20818138000201433
1772648631003358200,10.006358154296874,-0.017088497444987295,-0.7334440386533737,0.2219292617822066
1772648631013401000,10.016401123046874,-0.13805939416885374,-0.6501734886400401,0.2927496051430702
1772648631023444200,10.0264443359375,-0.2923883706152439,-0.6119644617550075,0.3972978479195386
1772648631033488100,10.036488037109375,-0.40494039856195446,-0.4965313984792679,0.3433810373581946
1772648631043531300,10.04653125,-0.3810100723981857,-0.4332802117310464,0.21192876810310407
1772648631053575000,10.056574951171875,-0.31924130622744556,-0.412872214474529,0.23001531840842215
1772648631063618300,10.066618408203125,-0.3282382671535015,-0.30142800163924693,0.3171521519284695
1772648631073661200,10.0766611328125,-0.4374216954499483,-0.19809673343710602,0.38185419507212937
