time,seconds_elapsed,z,y,x
1772649091969283000,0.067282958984375,-0.28042145396769047,-0.7811803339488804,0.6091453492136671
1772649091979327200,0.0773271484375,-0.19104688799083233,-0.8014758107416331,0.6923204394958913
1772649091989372200,0.0873720703125,-0.10269406627714633,-0.8284506191678345,0.7751282673683016
1772649091999416000,0.097416015625,0.02485562431514263,-0.8564519941627978,0.8429213353298604
1772649092009460200,0.107460205078125,0.177509361025691,-0.8673216170929372,0.905508870537579
1772649092019504000,0.117504150390625,0.31025954287052154,-0.8800034040115773,0.9986331444367765
1772649092029548300,0.12754833984375,0.3724357207983732,-0.9018700756438076,1.0651881219707429
1772649092039593200,0.13759326171875,0.40144261957406996,-0.9193123549625277,1.033083549440652
1772649092049637000,0.14763720703125,0.3475888643115759,-0.9423911788634955,0.9707312842935323
1772649092059681300,0.157681396484375,0.2761901000082493,-0.9355712697155774,0.9354347838543355
1772649092069725200,0.16772509765625,0.2161409972369671,-0.9085985071159899,0.9286354791030287
1772649092079769000,0.17776904296875,0.2060363673299551,-0.8771408541873097,0.9183006937019527
1772649092089814300,0.187814208984375,0.1649059000402689,-0.8618716811239718,0.8963169715613126
1772649092099858200,0.197858154296875,0.08622223942577839,-0.8555171975307166,0.8637284149065613
1772649092109901600,0.207901611328125,-0.11555120976269244,-0.8914248156055807,0.8643775264650583
1772649092119945700,0.21794580078125,-0.2901718636095524,-0.8849221557132899,0.775536628973484
1772649092129989600,0.22798974609375,-0.3456739706009626,-0.8487721071846782,0.6576086070768534
1772649092140034600,0.23803466796875,-0.338084538385272,-0.8580399940066039,0.7102303363263607
1772649092150078700,0.24807861328125,-0.32711013990640636,-0.8863559879086911,0.8364314618539065
1772649092160122600,0.25812255859375,-0.2681967631667852,-0.8651919115878641,0.8842633995436131
1772649092170166800,0.268166748046875,-0.21137539027035235,-0.864158038495481,0.9267826177779585
1772649092180211000,0.2782109375,-0.19913550190031526,-0.8911090276546776,0.9568796498779207
1772649092190255600,0.288255615234375,-0.17928221591711044,-0.919307971048355,0.9455272118669003
1772649092200299800,0.2982998046875,-0.19154490064084528,-0.9351496833026408,0.904496917016059
1772649092210344000,0.308343994140625,-0.23127485348284244,-0.9135019151180982,0.876785026486963
1772649092220387600,0.3183876953125,-0.25844284639358517,-0.8831826185695827,0.8384131371904164
1772649092230431700,0.328431640625,-0.22037176667451858,-0.8777525563448667,0.8182066538553684
1772649092240476700,0.3384765625,-0.23373218350708483,-0.8760977748751639,0.8026422241725027
1772649092250520800,0.348520751953125,-0.311368380895257,-0.8297139171019196,0.7246324442315846
1772649092260564700,0.358564697265625,-0.3789461256057024,-0.7821244829311966,0.6477132360063493
1772649092270608600,0.368608642578125,-0.43438978040814397,-0.7126454346440733,0.6021998043920844
1772649092280652800,0.37865283203125,-0.5035837281435728,-0.6519153638713061,0.5314043397441506
1772649092290697700,0.38869775390625,-0.5009767605155706,-0.5728351051546633,0.48982262155562634
1772649092300741600,0.39874169921875,-0.4813876784265041,-0.5192324020437896,0.5684198459956795
1772649092310785800,0.408785888671875,-0.42843467139601704,-0.5046579332463443,0.7799495500449091
1772649092320829700,0.41882958984375,-0.3203787858247757,-0.5441721975110471,0.9912477103605866
1772649092330873600,0.42887353515625,-0.2288356436371803,-0.5903923891551792,1.0343979199748485
1772649092340918800,0.438918701171875,-0.24063655606806278,-0.6193475577436387,0.9707637983236461
1772649092350962700,0.448962646484375,-0.4154652997076511,-0.7018262267269194,0.8272448235746472
1772649092361006800,0.4590068359375,-0.7253904960572719,-0.7393360193014145,0.6640899319201707
1772649092371050800,0.46905078125,-1.067262736287713,-0.7242395724564791,0.40102738983668385
1772649092381094700,0.4790947265625,-1.4528671507388353,-0.6884387757569551,0.13351597858555614
1772649092391139800,0.489139892578125,-1.7256857284873723,-0.5563811062209307,-0.14739194372482597
1772649092401183700,0.499183837890625,-1.9660580806612968,-0.4727177574977278,-0.4327265233710408
1772649092411227600,0.5092275390625,-2.255021737524867,-0.382092168546468,-0.6386164679676294
1772649092421271800,0.519271728515625,-2.488058339983225,-0.20955065906122325,-0.645571328606829
1772649092431315700,0.529315673828125,-2.7057676094502208,-0.023481851743906736,-0.5536072575934231
1772649092441360600,0.539360595703125,-2.986398322254419,0.16964666482657192,-0.5538269647587091
1772649092451404800,0.54940478515625,-3.023997108286619,0.39314138582721353,-0.6814503781743347
1772649092461448700,0.55944873046875,-2.6706933734595775,0.6948822528079152,-0.6420291259553284
1772649092471492900,0.569492919921875,-2.0356717151135206,1.0048603483885525,-0.3283146203253418
1772649092481536500,0.57953662109375,-1.4931138209313153,0.9024541591420769,0.220683828298375
1772649092491581700,0.589581787109375,-0.8054752556413411,1.136109478020668,0.125385717491433
1772649092501625900,0.5996259765625,0.03601940788626671,1.4683929289117454,-0.4465490778226405
1772649092511669800,0.609669677734375,0.21071137340366838,0.6837368816763162,-1.6473516119629144
1772649092521713700,0.619713623046875,-0.060983168751001356,0.7273819621354342,-1.68515410387367
1772649092531757800,0.6297578125,0.3823825297951698,1.2943418916463851,-1.2543639553926884
1772649092541802800,0.639802734375,0.4075865291565656,1.2808014420717955,-1.224593671029061
1772649092551846700,0.6498466796875,0.3114811936199665,1.325664958409965,-0.9929394628398119
1772649092561890800,0.659890869140625,0.2315589311212301,1.8230819806173442,-0.785070838581398
1772649092571934700,0.669934814453125,0.5959557223707437,1.976440066204965,-0.6544936899267136
1772649092581979000,0.679978759765625,1.264752224546671,1.9420999897077678,-0.43581827884130175
1772649092592023600,0.6900234375,1.4553583830326795,1.8893290612459182,-0.1242781398420222
1772649092602067700,0.700067626953125,1.7051561506778001,1.6632108598738908,-0.04709737633746117
1772649092612112000,0.71011181640625,1.8020073361456392,1.4936825607299804,0.04838515112567693
1772649092622155800,0.72015576171875,1.7178858683913945,1.1512854198426008,0.3261650045434013
1772649092632199700,0.73019970703125,1.7592980752319096,0.9369149394094943,0.5244940854316577
1772649092642244900,0.740244873046875,1.92024734660089,0.9714882401406765,0.49035197919197376
1772649092652288800,0.750288818359375,1.8473919537484644,0.9495815287590026,0.28718429916612803
1772649092662332700,0.760332763671875,1.3180916005462406,0.8082944047152996,0.01712302076909691
1772649092672376600,0.77037646484375,1.0002163219749927,0.83030048481822,-0.5554334135746583
1772649092682420700,0.780420654296875,0.9921171866714954,1.229261224448681,-1.2508086009986699
1772649092692465700,0.790465576171875,0.6544353838682174,1.1271733073711394,-1.1768389632940293
1772649092702509600,0.800509521484375,0.23075053734779358,0.7445096225470305,-1.038522233363241
1772649092712553700,0.8105537109375,0.11541676972806453,0.7115005023926496,-0.9671678927235304
1772649092722598000,0.820597900390625,0.19907646518945693,0.753663819861412,-0.9434230061292648
1772649092732641800,0.830641845703125,0.30862229705750943,0.7084083815962076,-0.7593738680712878
1772649092742686700,0.840686767578125,0.42459553162455554,0.6188847625374794,-0.4627241136845201
1772649092752730600,0.850730712890625,0.3415110057026148,0.6031371583074331,-0.4227527533020824
1772649092762774800,0.86077490234375,0.010126257216930388,0.7772901946425438,-0.19464538740683346
1772649092772818700,0.870818603515625,-0.15902034913301466,0.651060354477167,-0.13340126616470516
1772649092782862600,0.880862548828125,-0.1882674864053726,0.6454267325043678,-0.21522212882637975
1772649092792907800,0.89090771484375,-0.12163199098110199,0.6472282289683818,-0.16787326194588095
1772649092802952000,0.900951904296875,-0.06526479159295559,0.48822132383883,-0.21010368983410296
1772649092812995600,0.91099560546875,0.01025426751077175,0.5634346779942512,-0.21695775697994976
1772649092823039700,0.921039794921875,0.2658534149110317,0.5369336245596409,-0.2487217359114438
1772649092833083600,0.931083740234375,0.6361977163881063,0.29839900920689105,-0.022590528927370904
1772649092843128600,0.941128662109375,0.7066080541759729,0.12253507730066776,0.2323485836615786
1772649092853172700,0.9511728515625,0.6458323906958103,0.067996262383461,0.04101261306367814
1772649092863216600,0.961216552734375,0.5885013147115707,-0.017910335221886634,-0.10039470329359174
1772649092873260800,0.9712607421875,0.6930798795610665,-0.31397944017648693,-0.1648391549469903
1772649092883305000,0.981304931640625,0.7188017653167247,-0.3939873351320624,-0.4308587932704016
1772649092893349600,0.991349609375,0.7325169869363307,-0.2957373887822032,-0.5934561241073534
1772649092903393800,1.001393798828125,0.8000052997976541,-0.2677531110525131,-0.4084909671830013
1772649092913438000,1.01143798828125,0.8901818298071622,-0.2956765985056758,-0.09081943102292717
1772649092923481600,1.021481689453125,1.1126549526751042,-0.43528556020408865,0.21320746453572065
1772649092933525800,1.03152587890625,1.1427701049536465,-0.4880006668254733,0.2353488249234855
1772649092943570700,1.04157080078125,1.3081798628628254,-0.5578267749845981,0.23372100452594458
1772649092953614600,1.051614501953125,1.5187112035244703,-0.6018398119732737,0.29070224415920676
1772649092963658800,1.06165869140625,1.7795763086289167,-0.5336535799756645,0.401700137999095
1772649092973702700,1.07170263671875,1.781647854205966,-0.4256567311152816,0.42414110238794234
1772649092983746800,1.081746826171875,1.3858148912072181,-0.30306203258186576,0.21615274247368796
1772649092993791700,1.091791748046875,0.9465081126630306,-0.17102292161583899,0.09013754970598965
1772649093003835600,1.101835693359375,0.7109650803416967,-0.13869155459254978,0.010447616392094641
1772649093013879800,1.1118798828125,0.8270026123166084,-0.06411240668743848,-0.03480813240036368
1772649093023923700,1.121923828125,0.7717588640004396,-0.17292554036676883,0.3601546236351132
1772649093033967600,1.131967529296875,0.7175701776951551,-0.41370355073213577,0.7129823384482413
1772649093044012800,1.1420126953125,0.6898895590871572,-0.36841128758788105,0.701331209751591
1772649093054056700,1.152056640625,0.6752694975823164,-0.2286626251578331,0.5114594664873555
1772649093064100900,1.162100830078125,0.6526128446161746,-0.22060879030078648,0.4572571535155177
1772649093074144800,1.172144775390625,0.61571314676404,-0.31070670211613177,0.4935393405238166
1772649093084188700,1.182188720703125,0.5507745183855295,-0.4110463142216205,0.5419359994241968
1772649093094233900,1.19223388671875,0.44306993046998977,-0.40794688690155745,0.5510846437806263
1772649093104278000,1.202278076171875,0.34227497581243516,-0.382893109665811,0.5372295022336766
1772649093114322200,1.212322265625,0.18133447227180002,-0.5021040109798312,0.6531563769083469
1772649093124366300,1.222366455078125,-0.013074001106619835,-0.6187856860771775,0.6112488973641768
1772649093134410200,1.23241015625,-0.1994821233808994,-0.6222632990598678,0.37414442441239953
1772649093144455200,1.242455078125,-0.33533670098185536,-0.6071031393289565,0.19676296408269553
1772649093154499300,1.252499267578125,-0.3541448618263006,-0.6358703841298818,0.1024802591296844
1772649093164543200,1.262543212890625,-0.3003127338737249,-0.723029319883883,0.027086835699621586
1772649093174587100,1.272587158203125,-0.3185872262328863,-0.7715430292926728,0.05817828566441312
1772649093184631000,1.282631103515625,-0.350244347256422,-0.7760279196217655,0.10605386156644672
1772649093194676200,1.29267626953125,-0.38178807103335854,-0.7127059326596558,0.10611943761594593
1772649093204720400,1.302720458984375,-0.4690378999412059,-0.6835122791402042,0.029508308959193527
1772649093214764000,1.312763916015625,-0.6628554216891527,-0.6501635517679154,-0.05591218562964349
1772649093224808200,1.32280810546875,-0.6641881315976381,-0.6038593351021408,-0.23753325629048047
1772649093234852000,1.33285205078125,-0.5360995118230582,-0.5467654288746416,-0.1985807906270027
1772649093244897000,1.34289697265625,-0.7780676087558269,-0.8225427102982997,0.17747191509213298
1772649093254941200,1.352941162109375,-0.7953992673069238,-0.8621531284138559,0.3350107569631189
1772649093264985000,1.362985107421875,-0.7183148585826158,-0.7719970566704869,0.2768721274556592
1772649093275029200,1.373029296875,-0.773121384525299,-0.8022370043724775,0.2797684334190562
1772649093285073400,1.383073486328125,-0.9332979179561137,-0.8631701965019106,0.29866511279717084
1772649093295118000,1.3931181640625,-1.0155763881921767,-0.8466095223233103,0.3061142232267186
1772649093305162200,1.403162353515625,-1.0852601652711629,-0.8120987654343247,0.3334137700952589
1772649093315206400,1.413206298828125,-1.276182550099492,-0.6802098765939474,0.2930509627098217
1772649093325250000,1.42325,-1.5233809489011763,-0.4522061537362635,0.169404088242352
1772649093335294200,1.433294189453125,-1.8231407250672578,-0.22415143134370444,0.059418476717546576
1772649093345339400,1.44333935546875,-2.0518179632723332,-0.015737959618866443,-0.019371457283012566
1772649093355383000,1.453383056640625,-1.8561176965177058,0.2788232249908149,-0.30078411424513907
1772649093365427200,1.46342724609375,-1.9385510650545357,0.40872620071098203,-0.13733436782993375
1772649093375471000,1.47347119140625,-2.0881138500124217,0.40728170099109406,0.019418109436333177
1772649093385515300,1.483515380859375,-1.8441642238736151,0.7171858545526861,-0.023355521950498222
1772649093395560200,1.493560302734375,-1.53719378567636,0.8479793493717909,-0.08557904615141451
1772649093405604000,1.50360400390625,-1.2586638445436953,0.7611978686280548,-0.22062128445617854
1772649093415648300,1.513648193359375,-1.053607135900855,0.6208695066139102,-0.3886857946578413
1772649093425692200,1.523692138671875,-0.7541998264342546,0.5088792042031884,-0.5137410380858928
1772649093435736000,1.533736083984375,-0.3756991065084934,0.5326993479907512,-0.5805059320434928
1772649093445781200,1.54378125,-0.032578327521681785,0.5345215949818491,-0.5034365747578442
1772649093455825200,1.5538251953125,0.24869068318605422,0.5322375756978989,-0.3659032502897084
1772649093465869300,1.563869384765625,0.5729635538399219,0.5044437059737742,-0.3010020313121378
1772649093475913200,1.573913330078125,0.9022434390008449,0.453739208522439,-0.28598814818412066
1772649093485957000,1.58395703125,1.14196171118021,0.3969188585393131,-0.24327822968326507
1772649093496002300,1.594002197265625,1.2821727304250001,0.3362329191692173,-0.22208777681216596
1772649093506046200,1.604046142578125,1.2210937000840902,0.3339914238527417,-0.2485677143935114
1772649093516090000,1.614090087890625,1.0760077682793139,0.3441339015521109,-0.23583171306960282
1772649093526134300,1.62413427734375,0.9792775788426399,0.3862190392181277,-0.2184167601492256
1772649093536178200,1.63417822265625,0.8757979151457548,0.40577348838523025,-0.17900606585685164
1772649093546222300,1.644222412109375,0.7419377262324094,0.4708028637871146,-0.11596486859750002
1772649093556267300,1.654267333984375,0.587335193541646,0.5580706667430698,-0.07365279030781238
1772649093566311200,1.664311279296875,0.43563656559884545,0.6695913058154285,-0.08110730756483972
1772649093576355300,1.674355224609375,0.29140520479679105,0.7311065356165171,-0.09157072431426495
1772649093586399000,1.68439892578125,0.12273439926505088,0.742013129556179,-0.0740565488031134
1772649093596443100,1.694443115234375,-0.03734627257585525,0.7826146045356989,-0.1345586195062846
1772649093606488300,1.70448828125,-0.13246493516266344,0.8183250926032662,-0.18507526623532175
1772649093616532000,1.714531982421875,-0.20386837564110755,0.9110187200002372,-0.16660342467315495
1772649093626576100,1.724576171875,-0.29150866517126556,1.0518827963262796,-0.13763397183101622
1772649093636620300,1.734620361328125,-0.3728460551649332,1.1832971995227037,-0.16159410861115903
1772649093646664200,1.744664306640625,-0.5371773701876401,1.2240998961627483,-0.2478975235143676
1772649093656709000,1.754709228515625,-0.6606681407779454,1.2294929873779414,-0.2742354222765192
1772649093666753300,1.764753173828125,-0.6329127033680677,1.205674012634158,-0.2891724042434245
1772649093676797200,1.774797119140625,-0.5405711042791604,1.1542118286833167,-0.31056342118792235
1772649093686841300,1.78484130859375,-0.42029228147268294,1.1022687293477356,-0.3392204836126417
1772649093696885000,1.794885009765625,-0.2615191850990057,1.0410122966133057,-0.3865115558912977
1772649093706930200,1.80493017578125,-0.11425181760191917,0.9359352807223796,-0.4691867703599855
1772649093716974300,1.814974365234375,0.0655909548074007,0.8475966336645185,-0.5258886815952136
1772649093727018200,1.825018310546875,0.2776706939548254,0.7574592666216194,-0.5630716533681377
1772649093737062100,1.835062255859375,0.456107691219449,0.6097592067956924,-0.5779672804113477
1772649093747106000,1.84510595703125,0.6228980898320674,0.4965478381574154,-0.5934154998360202
1772649093757151200,1.855151123046875,0.7039853044569492,0.33482363689318295,-0.6016075741199777
1772649093767195100,1.865195068359375,0.7232838791668414,0.19168869302570818,-0.670896689325571
1772649093777239000,1.875239013671875,0.6752414405316114,0.11068448050916194,-0.7760187864672392
1772649093787283200,1.885283203125,0.6365250486463307,0.055720864308625453,-0.843322536541894
1772649093797327400,1.895327392578125,0.54706221986413,0.015018997694551945,-0.9109265116721391
1772649093807372000,1.9053720703125,0.5012362882345914,0.021808511704206467,-0.9457646008193492
1772649093817416200,1.915416259765625,0.4195832564204931,0.04289265465661883,-0.9486500200625508
1772649093827460400,1.92546044921875,0.34210897159576414,0.12163359841629862,-0.9088012631464749
1772649093837504300,1.935504150390625,0.34806057347655295,0.11681684578433632,-0.7866621994260699
1772649093847548200,1.945548095703125,0.3531429913073778,0.07916004595458508,-0.6915066388949751
1772649093857593300,1.95559326171875,0.3282768455982208,0.09268222922012209,-0.5754057958928868
1772649093867637200,1.96563720703125,0.47313013769090173,0.1341286305911839,-0.5741893693078309
1772649093877681200,1.97568115234375,0.6284761822253465,0.1924623077467084,-0.4357569040428847
1772649093887725000,1.98572509765625,0.4648883790463209,0.06589446779862046,-0.12557641775794326
1772649093897769200,1.995769287109375,0.44247664075195786,0.05905600008070468,-0.12006689708884805
1772649093907814100,2.005814208984375,0.5368178892254829,0.20358605156838894,-0.17019651726167648
1772649093917858000,2.015858154296875,0.5003747029691934,0.15399886770918964,-0.13574191100671887
1772649093927902200,2.025902099609375,0.3885141644179821,0.061362231196463106,-0.09849811242464929
1772649093937946000,2.035946044921875,0.3040349692672491,0.06365969448387622,-0.0908223901649937
1772649093947990300,2.045990234375,0.2196253322213888,0.08625248843356967,-0.0918141046160832
1772649093958034200,2.0560341796875,0.24534137275815007,0.15627192720770836,-0.2756002443563193
1772649093968079000,2.0660791015625,0.15666355687379835,0.16849968674853444,-0.1242426849361509
1772649093978123300,2.076123291015625,-0.12932722165882587,0.0018815759629011153,0.15412026559915393
1772649093988167200,2.086167236328125,-0.1821200696915388,0.03733180565908551,0.17685619434658437
1772649093998211000,2.096211181640625,-0.1051268463820219,0.1227722470574081,0.11782120052129029
1772649094008255200,2.106255126953125,-0.07222995443046093,0.09456088257357477,0.14429251640476284
1772649094018300400,2.116300537109375,-0.052554947623610494,0.014802724595367907,0.22270660283025354
1772649094028344000,2.126343994140625,-0.02926584197282791,-0.015298983679711818,0.2679319747507572
1772649094038388200,2.13638818359375,-0.06501870787739754,-0.0018025193773210048,0.2676855257090181
1772649094048432000,2.14643212890625,-0.09429682480990886,-0.06384820279330015,0.31849509097002443
1772649094058476300,2.156476318359375,-0.058007367810606954,-0.19116671497821808,0.3754587218813598
1772649094068521200,2.166521240234375,0.0426338575899601,-0.3231741156317293,0.416072106494382
1772649094078565000,2.176565185546875,0.16057576188147066,-0.42155411810204385,0.4464503301559016
1772649094088609300,2.186609375,0.2635527367532253,-0.45001258921474213,0.4482958849573508
1772649094098653200,2.196653076171875,0.26714520828723903,-0.4907504039250314,0.4443885022552684
1772649094108697600,2.206697509765625,0.2348655714511871,-0.5368531066693365,0.4330386580601334
1772649094118742500,2.216742431640625,0.24112872349917888,-0.5950071894742548,0.47978177759982643
1772649094128786700,2.22678662109375,0.20558102477788923,-0.6353484060823917,0.5556366079965606
1772649094138830600,2.23683056640625,0.1592448055386543,-0.6906085210114717,0.5989807327477261
1772649094148874500,2.24687451171875,0.08460895901024341,-0.680393416467309,0.5841195194307714
1772649094158918700,2.256918701171875,0.03569032206237316,-0.6882895034793763,0.5535114690687507
1772649094168963600,2.266963623046875,0.0009048398852348328,-0.720827206729725,0.539253957265988
1772649094179007500,2.277007568359375,-0.004278700232505798,-0.7699635050162672,0.549693408617936
1772649094189051600,2.2870517578125,-0.009608370822668076,-0.8142682184278964,0.5494550332847983
1772649094199095600,2.297095458984375,-0.060895490467548365,-0.8467044340651482,0.5610884801942855
1772649094209139700,2.3071396484375,-0.13845979166328906,-0.8669123787049203,0.5594765880182385
1772649094219183400,2.317183349609375,-0.25887597711384297,-0.8809710069347172,0.5158232511874288
1772649094229228500,2.327228515625,-0.3770797472119331,-0.9048493837155401,0.4717130374345928
1772649094239272700,2.337272705078125,-0.43384032983183857,-0.9649211367100476,0.42995486670061944
1772649094249316400,2.34731640625,-0.4973913032442331,-1.024134738505259,0.39990613072179254
1772649094259360500,2.357360595703125,-0.5133440746575594,-1.0403626735981553,0.3538113920882344
1772649094269404700,2.36740478515625,-0.5678185921669006,-1.0478745835982262,0.3460557364601642
1772649094279449300,2.377449462890625,-0.6121808809846639,-1.0500860491026192,0.35138328815847636
1772649094289493500,2.387493408203125,-0.6198316879987716,-1.0318713971719145,0.3897304814051836
1772649094299537700,2.39753759765625,-0.5954150396227836,-1.0983796129547059,0.45363165649473663
1772649094309581600,2.40758154296875,-0.558711156603694,-1.242651451897621,0.5687804229363799
1772649094319625700,2.417625732421875,-0.5530202514857053,-1.393910811640322,0.6735154935218394
1772649094329670700,2.427670654296875,-0.5805383730083704,-1.4906070988073945,0.627200244005397
1772649094339714600,2.437714599609375,-0.7329635616600513,-1.4655340323492885,0.4804503975763917
1772649094349758700,2.4477587890625,-0.8734592430651187,-1.3701540884777903,0.2644141028229147
1772649094359802400,2.45780224609375,-0.9445277525007724,-1.22830231628865,0.03241553817540407
1772649094369846500,2.467846435546875,-1.0214905806720256,-1.1058213072627783,-0.09755129656121134
1772649094379891700,2.4778916015625,-1.1368676029115914,-0.9496924417875706,-0.1419792710263282
1772649094389935600,2.487935546875,-1.2649182287633418,-0.648343204472959,-0.20939795271754263
1772649094399979500,2.4979794921875,-1.433042506328225,-0.2861342786565423,-0.23504217012710868
1772649094410023400,2.5080234375,-1.6537626480489969,0.02794219215363264,-0.21754786836020648
1772649094420067600,2.518067626953125,-1.7790695281505584,0.30831600758731365,-0.17414003072306514
1772649094430112500,2.528112548828125,-1.7466782476335763,0.5620104904100298,-0.12228687469325959
1772649094440156400,2.538156494140625,-1.4891045852899552,0.7785939707174897,-0.07030154365114867
1772649094450200600,2.54820068359375,-1.069556400182843,0.9114008511856198,0.033560981883481146
1772649094460244700,2.55824462890625,-0.5873959838181734,0.9458531558856368,0.13012516710348426
1772649094470288600,2.56828857421875,-0.08812661174237728,0.9035269029401242,0.17285072156488895
1772649094480332500,2.57833251953125,0.31302491593062876,0.8089648513227701,0.18884682066328823
1772649094490377700,2.588377685546875,0.6347153688758611,0.7729531883515417,0.19525588398799298
1772649094500421600,2.598421630859375,0.8734124813139438,0.7379528943799436,0.17468159025385974
1772649094510465500,2.608465576171875,0.9827812030494213,0.7173007131040096,0.109197018430382
1772649094520509400,2.618509521484375,0.9894114348441362,0.6846640795238316,0.028531828609853982
1772649094530553600,2.6285537109375,0.95426764074862,0.6944577437855303,-0.1622165878910571
1772649094540598500,2.6385986328125,0.8652607390403747,0.7020972987532615,-0.3523604626275599
1772649094550642400,2.648642333984375,0.7786094605475664,0.657292380734533,-0.49422027199268337
1772649094560686600,2.6586865234375,0.797713389468193,0.6301848858393728,-0.6365598276987672
1772649094570730500,2.66873046875,0.8294254555493593,0.640493367755413,-0.7256343878157436
1772649094580774700,2.678774658203125,0.7910796505421399,0.633086452499777,-0.7813521833844482
1772649094590819600,2.688819580078125,0.7087830601274967,0.6874043181426823,-0.7987132141605019
1772649094600863500,2.698863525390625,0.5717278745651245,0.7821154228419065,-0.7747304271571338
1772649094610907600,2.70890771484375,0.382945424374938,0.8942753827311098,-0.6959400912977755
1772649094620951600,2.71895166015625,0.15904256096482275,1.080075163848698,-0.5670651434510946
1772649094630995500,2.728995361328125,-0.046668227672576904,1.1995426702722907,-0.4504449892826378
1772649094641040600,2.73904052734375,-0.21494798806011675,1.2940281495220958,-0.31734336365163324
1772649094651084500,2.74908447265625,-0.2657365105330944,1.3371034672692417,-0.17324717353656888
1772649094661128400,2.75912841796875,-0.24305180051624772,1.3270417997211217,-0.029882074175029992
1772649094671172600,2.769172607421875,-0.15111819770634174,1.236629415129125,0.09091039724200964
1772649094681216500,2.779216552734375,-0.020141455274820325,1.1273220681920646,0.2113270210839808
1772649094691261400,2.789261474609375,0.15210253256857395,1.0398407686159015,0.3462808504529297
1772649094701305600,2.7993056640625,0.34655309152305125,0.920069018548727,0.504842203772068
1772649094711349500,2.809349609375,0.5237713606476784,0.7802610271468758,0.6270024564109742
1772649094721393700,2.8193935546875,0.6541589050143957,0.6657356533005834,0.7168916939117014
1772649094731437600,2.8294375,0.7436644038945436,0.5429013007923961,0.7122017094645648
1772649094741481500,2.8394814453125,0.8026023305535316,0.41779593461230397,0.724688704463467
1772649094751526700,2.849526611328125,0.8477180680871009,0.2797622594065964,0.6843338246561587
1772649094761570600,2.859570556640625,0.8830845650225877,0.1444029179766774,0.6125577514730394
1772649094771614500,2.869614501953125,0.8955015635251998,0.03180091340839863,0.5091803060416132
1772649094781658600,2.87965869140625,0.9094196142405271,-0.016635492980480192,0.4387254715248942
1772649094791702500,2.88970263671875,0.8544055830270052,-0.06339928998202085,0.3973883757472038
1772649094801747500,2.89974755859375,0.6817524298608303,-0.07533332727327942,0.36740722511187196
1772649094811791600,2.90979150390625,0.519262358790636,-0.09087401075437665,0.34822672382369635
1772649094821835500,2.91983544921875,0.38882454554140566,-0.12222761878669261,0.32718890423104163
1772649094831879700,2.929879638671875,0.3031757220894098,-0.18718480573520063,0.3090888916559517
1772649094841923600,2.939923583984375,0.22284020261466503,-0.28943200502768157,0.3613173838041723
1772649094851968500,2.949968505859375,0.195322081092,-0.4071912462286651,0.4147211302768439
1772649094862012700,2.9600126953125,0.1975175453096628,-0.4402167329959571,0.4733825780820101
1772649094872056600,2.970056640625,0.15738018071055412,-0.48028351657688617,0.4737577680699527
1772649094882100500,2.9801005859375,0.02804886739850044,-0.5548119572080672,0.460845314200595
1772649094892144400,2.990144287109375,-0.18122516667842864,-0.6126107968345285,0.4139537991661578
1772649094902189600,3.000189453125,-0.3669523209512234,-0.6543064967915415,0.42159649593904613
1772649094912233500,3.0102333984375,-0.39180443813502785,-0.6783788617745041,0.41905915948115285
1772649094922277400,3.02027734375,-0.34877544374763964,-0.6942272960305214,0.4682936574451625
1772649094932321500,3.030321533203125,-0.33280689024329185,-0.7288532037317752,0.5339367077659816
1772649094942365700,3.04036572265625,-0.32321547055542466,-0.7328520641095936,0.5522680448789149
1772649094952409600,3.05040966796875,-0.46275955032408234,-0.752815386338532,0.45272915469706054
1772649094962454500,3.06045458984375,-0.6071405487298965,-0.7497682737275958,0.3657779434096068
1772649094972498700,3.070498779296875,-0.5974181961387396,-0.779296566028893,0.3300369140733033
1772649094982542600,3.08054248046875,-0.555523758739233,-0.836166161981225,0.3332157633051276
1772649094992586500,3.09058642578125,-0.519321980023384,-0.8052376474931836,0.3688428108729422
1772649095002630400,3.10063037109375,-0.5540829122811556,-0.6919910614110529,0.24611951752379535
1772649095012675600,3.110675537109375,-0.4668704927742481,-0.6756998518235982,0.2887018641222268
1772649095022719700,3.1207197265625,-0.26656886970400806,-0.7779084726713598,0.19319858613200486
1772649095032763400,3.130763427734375,-0.0579746345847845,-0.7762116056255995,0.26016039090119303
1772649095042807600,3.1408076171875,0.12818681945204735,-0.7296604284614324,0.28707404372468587
1772649095052851700,3.150851806640625,0.28285832572579384,-0.6202453833661973,0.30013525841496885
1772649095062896400,3.160896484375,0.33538580082058905,-0.5129042219355702,0.18723828948810695
1772649095072940500,3.1709404296875,0.38696342784464355,-0.45341626017838715,0.03451492160744965
1772649095082984400,3.180984375,0.513428830331564,-0.42310763115435834,-0.07536467225961387
1772649095093028600,3.191028564453125,0.6772977885395288,-0.4379194158390164,-0.04802373393476009
1772649095103072800,3.20107275390625,0.8612520879209041,-0.4266466189354658,-0.0029068273574113846
1772649095113116700,3.21111669921875,1.0614935052365064,-0.44009822118282316,0.056641888143680985
1772649095123160800,3.221160888671875,1.2506430351734161,-0.5001121065102517,0.06908398455493152
1772649095133205000,3.231205078125,1.385505679127574,-0.5157550813220441,-0.0051017435858026145
1772649095143249000,3.241248779296875,1.494332549071312,-0.5461290306672454,0.047722522498480975
1772649095153292800,3.251292724609375,1.5195967541873454,-0.606170680784434,0.16227025430705397
1772649095163336700,3.261336669921875,1.5007751493394375,-0.6633730158224701,0.25586309556607156
1772649095173382000,3.2713818359375,1.4372954875975847,-0.6862346898414194,0.24805275060869753
1772649095183425800,3.28142578125,1.2280910116255284,-0.6934867067962884,0.1868289049696177
1772649095193469700,3.2914697265625,1.0147188945800065,-0.7500481135822832,0.12404003850352019
1772649095203513900,3.301513916015625,0.818422415497899,-0.8297738305956125,0.11773845414128153
1772649095213558000,3.31155810546875,0.641459582439065,-0.9490665649741887,0.13599376687593756
1772649095223602700,3.321602783203125,0.46191433167159557,-1.0245455843284725,0.13127802693303672
1772649095233646800,3.331646728515625,0.23766484678089617,-0.9739734810851514,0.030302893402986225
1772649095243691000,3.34169091796875,-0.14703881943821906,-0.8733278717704117,-0.14715703899040816
1772649095253735000,3.35173486328125,-0.6323083077341318,-0.7580342900305986,-0.3326650340871885
1772649095263778800,3.36177880859375,-0.9965513697266578,-0.5569387401036918,-0.45255171577092257
1772649095273823700,3.37182373046875,-1.312260994696617,-0.33341786174848675,-0.6285588920727372
1772649095283868000,3.381867919921875,-1.5859586933672427,-0.13091478311121463,-0.7091615380510687
1772649095293911800,3.391911865234375,-1.894536566761136,0.04680778227373957,-0.6317945129930973
1772649095303955700,3.401955810546875,-2.261564291036129,0.27063188135921956,-0.5856232019919901
1772649095314000000,3.411999755859375,-2.547973587241769,0.5057230782598257,-0.5098659867508336
1772649095324043800,3.422043701171875,-2.5812404815495014,0.7211439445286989,-0.3931798912066966
1772649095334088700,3.432088623046875,-2.371674186527729,0.8451634151682257,-0.18397410006038845
1772649095344132900,3.4421328125,-2.0145733975052833,0.8590801507093012,0.17074538331609218
1772649095354176800,3.4521767578125,-1.6182815848231316,0.8167780092917383,0.49719099489916113
1772649095364221000,3.462220947265625,-1.2326298240989446,0.7675330629989504,0.6587101385779679
1772649095374264800,3.472264892578125,-0.8673743701934814,0.6925276525057852,0.7324589731387794
1772649095384309800,3.482309814453125,-0.5359013589024544,0.6136534377552568,0.7358870478913188
1772649095394354000,3.49235400390625,-0.20229951888918876,0.5652189310625195,0.6971970325563103
1772649095404398000,3.502398193359375,0.07860358111560345,0.5144114116281271,0.5839874905489385
1772649095414441700,3.512441650390625,0.2744002939820289,0.4879214641094207,0.4308721642086282
1772649095424486000,3.52248583984375,0.3940905032455921,0.516662697686255,0.303614551898092
1772649095434530800,3.53253076171875,0.5413420886516571,0.5557676504977047,0.22112510579247027
1772649095444574700,3.54257470703125,0.6797568721294402,0.6193415663942694,0.1304149072976783
1772649095454619000,3.552618896484375,0.8503940092980861,0.7396582369931042,-0.023885719837062058
1772649095464662800,3.562662841796875,1.0242115300685166,0.8447244392290711,-0.103092162216641
1772649095474707000,3.57270703125,1.1750269454360007,0.9373208898618817,-0.06686082861274481
1772649095484752000,3.582751953125,1.1925737080425023,0.9841988147623837,0.021506386952474713
1772649095494795800,3.592795654296875,1.1571943516254424,0.9765874629758298,0.11015614578612148
1772649095504840000,3.60283984375,1.0187760610163212,1.0343754889473318,0.12917031406406312
1772649095514883800,3.6128837890625,0.8878817361712456,1.139979305191338,0.12015241994783282
1772649095524927700,3.622927734375,0.7499918533504009,1.2550263648241757,0.16328144064359365
1772649095534972000,3.632971923828125,0.62067398404181,1.3533876625940202,0.2036169581633061
1772649095545016800,3.643016845703125,0.48027474874854087,1.371675452826172,0.24533118015769867
1772649095555060700,3.653060791015625,0.3760562493830919,1.3176963176183403,0.31423136911094185
1772649095565105000,3.66310498046875,0.30842940483391285,1.2335519073799253,0.3827401841264218
1772649095575148800,3.673148681640625,0.24645488695800302,1.13763508015275,0.44877533903736616
1772649095585193000,3.68319287109375,0.18004852411448954,1.0753228547550737,0.4770784369252622
1772649095595238000,3.69323779296875,0.1240448973417282,1.0071071044020354,0.49684261985290795
1772649095605281800,3.70328173828125,0.03236789964139462,0.9349092986755072,0.4448959403207525
1772649095615326000,3.713325927734375,-0.11596914291381835,0.8585125799544155,0.34859855281077323
1772649095625369900,3.723369873046875,-0.29713468835949897,0.793109548934549,0.2620188051842153
1772649095635413800,3.733413818359375,-0.4173018674850464,0.7158832475215197,0.15942301164977252
1772649095645459000,3.743458984375,-0.5329050996959209,0.6297004633232951,0.022107348520308732
1772649095655502800,3.7535029296875,-0.5760790555119514,0.5368374707087874,-0.07272577512338757
1772649095665547000,3.763547119140625,-0.514096354329586,0.4739604510352015,-0.17572620393596589
1772649095675590700,3.773590576171875,-0.38687282695174213,0.38836277324855323,-0.2195733097732067
1772649095685634800,3.783634765625,-0.2285755313962698,0.29314503420144317,-0.2591661922320723
1772649095695679000,3.793678955078125,-0.03197685449719429,0.17468378221094608,-0.30063853176198896
1772649095705723600,3.8037236328125,0.22325345959067344,0.0495778315089643,-0.32492936180122195
1772649095715767800,3.813767822265625,0.4706465041816234,-0.041052725878357885,-0.32468137838952243
1772649095725812000,3.82381201171875,0.671463675558567,-0.12249050750657915,-0.3050437079183757
1772649095735855900,3.83385595703125,0.8032014654904603,-0.1921330757923424,-0.27405133441388607
1772649095745900000,3.843900146484375,0.8347340833514928,-0.2902848224647343,-0.2492960286680609
1772649095755945000,3.853945068359375,0.7783364888250828,-0.38960619743838903,-0.18607823273278773
1772649095765988900,3.86398876953125,0.6503109974145889,-0.44428281339108944,-0.16259192400947212
1772649095776033000,3.874032958984375,0.5595528681248426,-0.4559223977804184,-0.13321334237717092
1772649095786076700,3.88407666015625,0.49593701278269287,-0.4137222554326057,-0.08178959074057639
1772649095796120800,3.894120849609375,0.42945933826863764,-0.39638431327119467,-0.0917446561090648
1772649095806166000,3.904166015625,0.3652455170333385,-0.40136999272927637,-0.09359408336803317
1772649095816210000,3.9142099609375,0.24764088187217712,-0.428176458851248,-0.07084419916048645
1772649095826253800,3.92425390625,0.1531669469296932,-0.46499651559591293,0.00006627016924321652
1772649095836297700,3.934297607421875,0.08292845857739448,-0.48367359740659593,0.08069295461028814
1772649095846342000,3.944341796875,0.03199497467577457,-0.4906489893771708,0.19609766857437788
1772649095856386000,3.954385986328125,0.008946692043542861,-0.5043893454380333,0.3036704468037933
1772649095866430700,3.9644306640625,-0.06131634622812271,-0.5281218109421432,0.345113341043517
1772649095876475000,3.974474853515625,-0.16055530361533163,-0.5647589123353361,0.39179479352384805
1772649095886519000,3.98451904296875,-0.20546295135617254,-0.6006695991501212,0.41930158993490035
1772649095896562700,3.994562744140625,-0.16561901674568652,-0.6275519069872796,0.4409095375657081
1772649095906606800,4.00460693359375,-0.11872165649235247,-0.6787998636655509,0.4851504650261253
1772649095916652000,4.014652099609375,-0.07888590518832206,-0.7174161561772227,0.5018161704817786
1772649095926696000,4.024696044921875,-0.0722089116424322,-0.7579565486192703,0.5074101180313155
1772649095936739800,4.03473974609375,-0.04161094428300857,-0.8662383519008755,0.49363403306994585
1772649095946783700,4.04478369140625,-0.03489186516106128,-0.8873119734592735,0.5104198943065479
1772649095956828000,4.054827880859375,-0.026022330006957053,-0.8744254577487707,0.47318997811935837
1772649095966871800,4.064871826171875,-0.021069091513752938,-0.9146125067085027,0.42175380539260804
1772649095976916700,4.074916748046875,-0.11122107160389423,-0.9374421781539917,0.35716501336507495
1772649095986961000,4.0849609375,-0.27643910633325575,-0.9619606794692576,0.1320973439592868
1772649095997004800,4.0950048828125,-0.4174076659470796,-0.986338311009109,-0.14066672712303696
1772649096007049000,4.105049072265625,-0.5001894095301628,-0.9926632762469351,-0.38511966314148155
1772649096017092900,4.1150927734375,-0.5483481680214405,-0.9397470940954983,-0.48595140614546833
1772649096027137800,4.1251376953125,-0.5709153891384601,-0.8344307164907455,-0.5295799738612026
1772649096037182000,4.135181884765625,-0.6022065994590521,-0.7277122170031071,-0.4990009303979575
1772649096047225900,4.145225830078125,-0.6608896745741367,-0.5819635835058987,-0.4351320501428097
1772649096057269800,4.155269775390625,-0.7125818678885698,-0.4966702954933047,-0.38483492791596796
1772649096067314000,4.16531396484375,-0.6451707119166851,-0.41878436112776396,-0.3934518034832552
1772649096077358800,4.17535888671875,-0.5077747500926256,-0.3298604615278542,-0.3884090966083109
1772649096087402800,4.18540283203125,-0.3790647835493088,-0.24263211379945276,-0.39611959792040285
1772649096097447000,4.195447021484375,-0.38269291091859337,-0.16358648800477385,-0.440086384614557
1772649096107490800,4.20549072265625,-0.5411819296538829,-0.06282002878934144,-0.5739549394974485
1772649096117535000,4.215534912109375,-0.6763923641324043,0.05507292179390788,-0.7859612115498632
1772649096127578600,4.22557861328125,-0.7289923199415207,0.1549665436975658,-0.9257041018262505
1772649096137623800,4.235623779296875,-0.6351952613472939,0.2301027409635484,-0.9867829129714518
1772649096147668000,4.24566796875,-0.5354185438215733,0.2535591660052538,-0.9367388521902262
1772649096157712000,4.2557119140625,-0.4132090452134609,0.24575448360368607,-0.851153303232789
1772649096167755800,4.265755859375,-0.28736148236393927,0.24643588999658822,-0.6934145183429121
1772649096177799700,4.275799560546875,-0.1837111382752657,0.274909412547946,-0.5094919658066704
1772649096187844900,4.285844970703125,-0.25143092180490495,0.3158903883643448,-0.3007614274892956
1772649096197888800,4.295888671875,-0.4377385063141584,0.4467477421998977,-0.16997312030196188
1772649096207932700,4.3059326171875,-0.6692454149872065,0.6929566915728151,-0.13894388538580388
1772649096217976800,4.315976806640625,-0.9486246664255857,0.9068595544941723,-0.1972886319246143
1772649096228021000,4.32602099609375,-1.3555752357661723,1.1169976580545307,-0.3053444444306195
1772649096238065700,4.336065673828125,-1.8260089739799499,1.3362751997515558,-0.46826775581892577
1772649096248109800,4.34610986328125,-2.2006781529188153,1.5467245612181721,-0.5471105525178834
1772649096258154000,4.356154052734375,-2.3791747714161873,1.7091871597595512,-0.6182440534811466
1772649096268198000,4.366197998046875,-2.2830121527343987,1.7954918167717753,-0.7331818805858492
1772649096278241800,4.37624169921875,-1.8762860397994516,1.8076286831587551,-0.8256819581720978
1772649096288285700,4.38628564453125,-1.2143974173158407,1.710751486466825,-0.841041732128337
1772649096298331000,4.396330810546875,-0.47722003735303875,1.5178706610471009,-0.8057690509561449
1772649096308374800,4.406374755859375,0.14446750764548777,1.2765716955475508,-0.7942752317130565
1772649096318418700,4.416418701171875,0.6228039818078279,1.0725560203902422,-0.804101044678688
1772649096328462800,4.426462890625,0.9172703277409077,0.8909953381471335,-0.8327916440468282
1772649096338506800,4.4365068359375,1.076466617962718,0.7720065551511943,-0.8840853395629674
1772649096348551700,4.4465517578125,1.1161159067839383,0.6680632194653153,-0.946111806821823
1772649096358595800,4.456595947265625,1.1211942329615354,0.5373134176574648,-1.0407000157937407
1772649096368639700,4.4666396484375,1.0933943718880414,0.3667804715156555,-1.1102099706757813
1772649096378684000,4.476683837890625,1.0363777686804532,0.18391089863106608,-1.1281582267552615
1772649096388727800,4.486727783203125,0.9866454772621392,0.0557286092236638,-1.0918279993541538
1772649096398771700,4.496771728515625,0.8904892883211374,-0.061279813610017296,-1.007885687559098
1772649096408817000,4.50681689453125,0.7662889081567525,-0.1077042956545949,-0.9565795709528029
1772649096418860800,4.51686083984375,0.5757821183919907,-0.1196858253493905,-0.9303680019840598
1772649096428904700,4.52690478515625,0.41930151686966416,-0.07060542196854949,-0.8594915810544044
1772649096438948900,4.536948974609375,0.2828951506048441,0.009833704011142252,-0.7664047896213829
1772649096448992800,4.54699267578125,0.219259421518445,0.061983577965199946,-0.7100473079096525
1772649096459037700,4.55703759765625,0.25597499497532844,0.09240662714913486,-0.6240978940758853
1772649096469081900,4.567081787109375,0.3523626545846462,0.12523059999495745,-0.5056188872329891
1772649096479125800,4.577125732421875,0.4363783238768577,0.12686302350237966,-0.3702841687876731
1772649096489170000,4.587169921875,0.5561620566427707,0.08945186899676918,-0.2600606933863833
1772649096499213600,4.597213623046875,0.7325695939064025,0.0043850832164287566,-0.1568981328146532
1772649096509258800,4.6072587890625,0.8889461505323648,-0.10633943704217672,-0.06482559645809233
1772649096519303000,4.617302978515625,1.0267997929960488,-0.22621903139799832,0.016825595025368966
1772649096529346800,4.627346923828125,1.1699252383828163,-0.3324840880297124,0.07860624799672514
1772649096539390700,4.637390625,1.2906705096572637,-0.4523639746464789,0.1433238357693888
1772649096549435000,4.647434814453125,1.3491180224508046,-0.5789399979010224,0.1764152639123611
1772649096559478800,4.657478759765625,1.3434072435885667,-0.6633942047409713,0.1703967342752032
1772649096569523700,4.667523681640625,1.3072925586342812,-0.7246440616041422,0.14799254909963347
1772649096579567900,4.67756787109375,1.2517378446727991,-0.776563487803191,0.11951841462692245
1772649096589611800,4.68761181640625,1.21868780798614,-0.8090501915186643,0.07151138979836832
1772649096599656000,4.697656005859375,1.1437608695566654,-0.8451160688951611,0.02788921529080253
1772649096609699800,4.707699951171875,1.0809271045029163,-0.8459142335355281,-0.06257069367077202
1772649096619744800,4.717744873046875,0.9910925197988748,-0.8511506728842854,-0.15154468862325884
1772649096629789000,4.727788818359375,0.8472083649992942,-0.8590120539091527,-0.15149250177829526
1772649096639832800,4.737832763671875,0.7115250523120165,-0.8504800801463425,-0.0735962012823671
1772649096649876700,4.747876708984375,0.5197843368381262,-0.8205116428621113,0.016314284502365627
1772649096659920600,4.757920654296875,0.24002923782467842,-0.7246506374754011,0.05778521752648521
1772649096669964800,4.76796484375,-0.01078150625526905,-0.6703229810908437,0.08401828137440606
1772649096680009700,4.778009765625,-0.1365367146462202,-0.7041504318907856,0.1355609375497792
1772649096690053600,4.7880537109375,-0.2005073747754097,-0.73233651580289,0.14746760277692228
1772649096700097800,4.798097900390625,-0.19849545043110847,-0.7320730425611138,0.15112552249627187
1772649096710142000,4.808141845703125,-0.09312719650864601,-0.7082149048507214,0.18475129497796297
1772649096720185900,4.818185791015625,0.0012467851907014846,-0.7473135740518569,0.24248574586501342
1772649096730230800,4.828230712890625,0.0717564916998148,-0.7520454248793422,0.2441258777548559
1772649096740275000,4.83827490234375,0.1388859081208706,-0.7807473493590951,0.22010122437113894
1772649096750318800,4.84831884765625,0.2074041485518217,-0.8290722581975162,0.14840309352874756
1772649096760362800,4.85836279296875,0.2374368832439184,-0.8619247264854609,0.015266100898484
1772649096770406700,4.86840673828125,0.17751228363513946,-0.8464454178027808,-0.10634953831108286
1772649096780451800,4.878451904296875,-0.01331774673461914,-0.8008794522836804,-0.2647612174938433
1772649096790496000,4.88849609375,-0.2734603827834129,-0.7360746794179082,-0.38981348351351913
1772649096800539600,4.89853955078125,-0.6487661060601473,-0.6702535691164434,-0.5059867341646924
1772649096810583800,4.908583740234375,-1.0240800126433371,-0.5368873011998831,-0.6920443259682506
1772649096820628000,4.9186279296875,-1.3162386661559342,-0.33021409727111456,-0.7728616376105696
1772649096830672000,4.928671875,-1.473324832355976,-0.19966829360276458,-0.6220343126095831
1772649096840716800,4.938716796875,-1.4144722458928822,-0.07387319159284234,-0.4455901331299916
1772649096850760700,4.9487607421875,-1.1279735178381205,-0.022948037128150463,-0.42321061660479753
1772649096860804900,4.958804931640625,-0.7415764917045832,-0.15851386091560124,-0.35535153420232235
1772649096870848800,4.968848876953125,-0.4043073613554239,-0.3933588279701769,-0.32105029187817125
1772649096880892700,4.978892578125,-0.19265841484069823,-0.5455050535500049,-0.29160010631438343
1772649096890937900,4.988937744140625,-0.13521452613174914,-0.6141007431313396,-0.3322261677458882
1772649096900980700,4.998980712890625,-0.08223989179134368,-0.6213881236605345,-0.4633898110516369
1772649096911025000,5.00902490234375,-0.015748773273825643,-0.607423895715922,-0.5714066432541236
1772649096921068800,5.01906884765625,-0.015665186643600462,-0.5827652552776038,-0.6916546690635382
1772649096931112700,5.02911279296875,-0.08597907831966876,-0.49556569525226946,-0.815941631532833
1772649096941156900,5.039156982421875,-0.17824702765047548,-0.3413946858465671,-0.8593203892059623
1772649096951201800,5.049201904296875,-0.2944499793201685,-0.1458867267936468,-0.7836837681371718
1772649096961245700,5.05924560546875,-0.46762160340249537,0.057217532607167956,-0.6964581238225102
1772649096971289900,5.069289794921875,-0.6438029306948184,0.2527374743588269,-0.6015742563722655
1772649096981333800,5.079333740234375,-0.7713087821453809,0.4256638915084302,-0.5851654117545113
1772649096991378000,5.0893779296875,-0.7980009742379188,0.6012570436492561,-0.6022343642488122
1772649097001422800,5.0994228515625,-0.731516869983077,0.7368161454349755,-0.6087710725411772
1772649097011466800,5.109466796875,-0.6483546026498079,0.7826072980120777,-0.5101907251931727
1772649097021511000,5.119510986328125,-0.7003232748180628,0.8738796604342758,-0.38089305842239407
1772649097031554800,5.129554931640625,-0.813767283168435,0.9721914199739694,-0.3529984317375347
1772649097041598700,5.1395986328125,-0.8025240046203136,1.0554391736336053,-0.3551401564739644
1772649097051643000,5.149642822265625,-0.6320248146176338,1.0573086207672953,-0.3128826579157263
1772649097061687800,5.159687744140625,-0.392542689281702,0.9801904559038579,-0.2171153221618384
1772649097071731700,5.169731689453125,-0.06141863755881786,0.8902377977780997,-0.09260631443969905
1772649097081775900,5.17977587890625,0.24943828668296336,0.7976892779402435,0.025738983020931482
1772649097091819800,5.18981982421875,0.48224517203867434,0.6762262137852608,0.13140216476935893
1772649097101864000,5.199864013671875,0.6004384207427501,0.5519324562489986,0.15638050214871763
1772649097111908600,5.20990869140625,0.680160192233324,0.5174751831129193,0.0956479106253013
1772649097121952500,5.219952392578125,0.7172066050797701,0.512882302364707,0.06838084125425666
1772649097131996700,5.22999658203125,0.7507447175443172,0.47800446572899813,0.06587758972905576
1772649097142040600,5.24004052734375,0.7830892363101244,0.5038869488738477,0.08848444873671978
1772649097152084500,5.25008447265625,0.7551385685890912,0.559695783726871,0.15886687560435384
1772649097162128400,5.26012841796875,0.6519628562748432,0.6121575001090764,0.25759463206641375
1772649097172173600,5.270173583984375,0.4751350477725267,0.6743189188592136,0.2862859255542978
1772649097182217500,5.280217529296875,0.27986440460681916,0.7420626677863299,0.2985744753716513
1772649097192261400,5.290261474609375,0.14459610246121882,0.8201333110690117,0.3156754669720307
1772649097202305500,5.300305419921875,0.08148293594419956,0.8668653977580368,0.38025706207379695
1772649097212349700,5.310349609375,0.00208440505862236,0.911166311777383,0.4486998261157423
1772649097222394400,5.320394287109375,-0.03707797702848911,0.9498990702755749,0.49538467612955717
1772649097232438500,5.3304384765625,-0.044538814428448675,0.9425405242063104,0.5130930955711752
1772649097242483700,5.340483642578125,-0.020802549532055854,0.8832751191586256,0.47250864479169247
1772649097252527400,5.35052734375,0.03810147485733032,0.8407184184581041,0.36298064084127546
1772649097262571500,5.360571533203125,0.17358838818967343,0.746862030892074,0.2996822174178436
1772649097272616700,5.37061669921875,0.36620296388864515,0.6159922559663653,0.3242290315121412
1772649097282660600,5.38066064453125,0.575962151134014,0.42235082143768665,0.3426049749517813
1772649097292704500,5.39070458984375,0.7623971614152193,0.21212956963852048,0.3445196129340678
1772649097302748400,5.40074853515625,0.8578793966174125,0.07797434330135583,0.3136022043619305
1772649097312792600,5.41079248046875,0.9007394641786813,-0.03281637406125665,0.31920974204540253
1772649097322836700,5.420836669921875,0.8912877452224492,-0.14244213929772376,0.3267841228224337
1772649097332881400,5.43088134765625,0.8458329849928617,-0.2140646293543279,0.2784178955929354
1772649097342925600,5.440925537109375,0.8417021687984466,-0.2544805186338723,0.24017854663487523
1772649097352969700,5.4509697265625,0.8233189553678035,-0.26664894920289517,0.2568960553430021
1772649097363013600,5.461013671875,0.8026759803116321,-0.2887242951497435,0.29525998052880165
1772649097373057500,5.4710576171875,0.7760884176373481,-0.27290347955301403,0.28249015000052746
1772649097383102700,5.481102783203125,0.7074053420335054,-0.26209625433459877,0.26545117251938205
1772649097393146600,5.491146728515625,0.54519701051414,-0.22929420105963944,0.24055013815993442
1772649097403190500,5.5011904296875,0.31183658292889593,-0.20394144087731836,0.23333085443088783
1772649097413234400,5.511234375,0.062362640410661696,-0.17098492769300935,0.19102836595345288
1772649097423278600,5.521278564453125,-0.12080255441963672,-0.19731924625858663,0.17705352528328075
1772649097433322800,5.53132275390625,-0.2540110014259815,-0.28005685843899847,0.20439349549375474
1772649097443367400,5.541367431640625,-0.27405659511089325,-0.3587340893127024,0.2016380958383903
1772649097453411600,5.55141162109375,-0.17657938669919968,-0.39718145499825475,0.17342658522408455
1772649097463455700,5.561455810546875,-0.008415361645817757,-0.47248745587319135,0.1445912070903927
1772649097473499600,5.571499755859375,0.153014386716485,-0.5801502504736185,0.15705251965876668
1772649097483543600,5.58154345703125,0.2597644503861666,-0.6709551415145397,0.10567041520681232
1772649097493588500,5.59158837890625,0.30485622252225875,-0.7997242908991873,0.11080915720160119
1772649097503632600,5.601632568359375,0.26553251239359377,-0.8445430913127958,0.115766277285479
1772649097513676500,5.611676513671875,0.22682605738043785,-0.8456472531624137,0.15018652461310847
1772649097523720400,5.621720458984375,0.1512327639967203,-0.857291075335443,0.16467150676250455
1772649097533764600,5.6317646484375,0.06212064834833145,-0.8769432857885956,0.1814119579548016
1772649097543808500,5.64180859375,-0.013768997633457182,-0.8987107348300516,0.08788248252188786
1772649097553853400,5.651853515625,-0.08352350186109542,-0.912551190264523,0.038768615262862294
1772649097563897600,5.661897705078125,-0.1387888774871826,-0.9571193769179284,0.028967133020889012
1772649097573941500,5.67194140625,-0.17078852833807467,-0.9271795812062918,0.04249039399866014
1772649097583985700,5.681985595703125,-0.2251408807724714,-0.911314634206891,0.08917363657727836
1772649097594029600,5.692029541015625,-0.2728928120285272,-0.8727756447151302,0.14653017579633743
1772649097604074500,5.702074462890625,-0.3316822701275349,-0.7868450817123055,0.19750070377271622
1772649097614118700,5.71211865234375,-0.40401919206380843,-0.651977323191613,0.2215289738856256
1772649097624162600,5.72216259765625,-0.4812830490082502,-0.5085656082093716,0.2618446176610887
1772649097634206500,5.73220654296875,-0.5750678326427936,-0.3811050572052598,0.25163426235727965
1772649097644250600,5.742250732421875,-0.7207412089467048,-0.30040245798379184,0.2799668420679867
1772649097654294500,5.75229443359375,-0.8442764032006264,-0.284756560562551,0.5474987481178716
1772649097664339500,5.76233935546875,-0.8101134368360042,-0.2972128681622445,0.7878339466191828
1772649097674383600,5.772383544921875,-0.6729980455189943,-0.2716277605287731,0.8500682844750582
1772649097684427500,5.782427490234375,-0.48470191754102704,-0.26214389286860823,0.7680671698756516
1772649097694471700,5.7924716796875,-0.4571574925333261,-0.3173834034010768,0.7860103844538331
1772649097704515600,5.802515625,-0.6014397067397832,-0.4009114353068173,0.8522780694790184
1772649097714560500,5.812560546875,-0.7898311117857694,-0.41290100217759607,0.8107221433188766
1772649097724604700,5.822604736328125,-1.0236427902698517,-0.3929015857219696,0.6547098168954253
1772649097734648600,5.832648681640625,-1.1429442924767732,-0.2915134874768555,0.3520306096186861
1772649097744692500,5.8426923828125,-1.2163964821785687,-0.1937146458953619,0.13546448230482638
1772649097754736600,5.852736572265625,-1.305088326588273,-0.1579363532885909,0.10634411321729421
1772649097764781600,5.862781494140625,-1.3055021680861711,-0.1106530624575913,0.08639474644847214
1772649097774825500,5.872825439453125,-1.2568413052916525,0.029906331833451986,0.08755681249778717
1772649097784869600,5.88286962890625,-1.1336135695517062,0.11027049288079142,0.13086327211968599
1772649097794913500,5.89291357421875,-0.9821481658428907,0.17394436202049254,0.1360675992971286
1772649097804957700,5.902957763671875,-0.822383720344305,0.24645517921894788,0.1780086888499558
1772649097815001600,5.913001708984375,-0.6803197667092085,0.3159026633240282,0.17775084163136778
1772649097825046500,5.923046630859375,-0.4815285482019186,0.3501557921901345,0.09838756472226232
1772649097835090700,5.933090576171875,-0.25713819353580475,0.38111923186108465,0.030196035495027897
1772649097845134600,5.943134521484375,-0.10376374133527279,0.386777111492306,-0.08074526931941509
1772649097855178500,5.953178466796875,-0.03181201932430267,0.433249232070893,-0.2003001982981339
1772649097865222400,5.963222412109375,0.0446598104596138,0.5454778732821345,-0.2507176589690149
1772649097875266600,5.9732666015625,0.15203355898559093,0.6233889420889318,-0.2677896984695457
1772649097885311500,5.9833115234375,0.2464695000052452,0.7150386133909225,-0.21983634462356566
1772649097895355400,5.99335546875,0.382818583124876,0.7672969161555171,-0.12209755353308283
1772649097905399600,6.003399658203125,0.5784504608184099,0.779058519489318,-0.08374002155545167
1772649097915443700,6.013443603515625,0.7975204972445964,0.7174513736210762,-0.10988482716460711
1772649097925487600,6.023487548828125,0.9513333408623933,0.6522098167732358,-0.232286697406508
1772649097935532500,6.033532470703125,1.0392349116772412,0.5785723336324096,-0.36355186485797164
1772649097945576700,6.04357666015625,1.0805950960695743,0.4805139643318951,-0.4511496669532731
1772649097955620600,6.05362060546875,1.059263554227352,0.39536607613936064,-0.5554212847454473
1772649097965664500,6.06366455078125,1.05917412237823,0.3723471657320857,-0.7408907744627445
1772649097975708400,6.07370849609375,1.0622025302886962,0.36723800602480766,-0.9298308994326739
1772649097985752600,6.083752685546875,0.9995236635357141,0.3523229070961475,-1.0667321365423499
1772649097995797800,6.0937978515625,0.947596492421627,0.367423883985728,-1.121191310352087
1772649098005841400,6.10384130859375,0.9053922584205866,0.378808762961626,-1.0442257787670939
1772649098015885600,6.113885498046875,0.8771604356706142,0.3521811605378985,-1.0009788307800889
1772649098025929500,6.123929443359375,0.7823001317590474,0.38254868014231325,-0.9455262620188295
1772649098035973600,6.1339736328125,0.605405103239417,0.38230990295037626,-0.8226971702076494
1772649098046018600,6.1440185546875,0.3947948521226644,0.3837143629208207,-0.732973863858357
1772649098056062500,6.1540625,0.23448563222289084,0.43864509976506233,-0.6628544718410819
1772649098066106600,6.164106689453125,0.10299567957222461,0.46952889832854267,-0.5410883330862969
1772649098076150500,6.174150634765625,-0.009050152418017387,0.47972705173790453,-0.4705732928149402
1772649098086194400,6.1841943359375,-0.11187456707656383,0.4647882796727121,-0.36584435970932244
1772649098096238600,6.194238525390625,-0.11155541812479496,0.4228362668670714,-0.24667128792135043
1772649098106283800,6.20428369140625,0.007996259450912474,0.3568916763164103,-0.10982899619098752
1772649098116328700,6.21432861328125,0.15066051706671713,0.24663579648286102,0.0336619580399245
1772649098126372600,6.22437255859375,0.33804420637488364,0.10698226499035954,0.11824435783680527
1772649098136416800,6.234416748046875,0.4734066165447235,0.0012657821521162985,0.156408705329895
1772649098146460700,6.244460693359375,0.5213292281925678,-0.11868541613519192,0.14643201265148817
1772649098156505600,6.254505615234375,0.5238455949276686,-0.2740092488378286,0.07354043424082919
1772649098166549800,6.2645498046875,0.4883154318630695,-0.4389750623717904,-0.08166872257357463
1772649098176593700,6.27459375,0.5267758031606674,-0.5502569242522121,-0.18524629368698223
1772649098186637600,6.284637451171875,0.5706827494263649,-0.6465721031472087,-0.19532109471131115
1772649098196681700,6.294681640625,0.58219899969697,-0.7167934942342341,-0.17997876508021726
1772649098206725600,6.3047255859375,0.5875473749876022,-0.7799462621092796,-0.18126595534654333
1772649098216770600,6.3147705078125,0.5748445452809333,-0.8129591816559434,-0.19484401525147257
1772649098226814700,6.324814697265625,0.5219482368737459,-0.8588366973422468,-0.20038906389167532
1772649098236858600,6.334858642578125,0.4511515301167965,-0.8963524082008749,-0.20407849299414083
1772649098246902800,6.34490283203125,0.32840836302340026,-0.8913912055969238,-0.2763110412404872
1772649098256946700,6.35494677734375,0.2043587895065546,-0.877629952878505,-0.3050293688657693
1772649098266991600,6.36499169921875,0.14341478372216224,-0.8928122513759881,-0.32604915961138903
1772649098277035800,6.375035888671875,0.1205593933135271,-0.9194717833079397,-0.30834435689896345
1772649098287079700,6.38507958984375,0.14472177466750144,-0.9773679458290337,-0.28504832831704985
1772649098297123600,6.39512353515625,0.22953005564212797,-1.0203475481167434,-0.25185946768159045
1772649098307167700,6.405167724609375,0.2830325132489204,-1.0442383459877222,-0.19648104186877607
1772649098317211600,6.415211669921875,0.29744623852670193,-1.0530523515623063,-0.134053811789304
1772649098327256600,6.425256591796875,0.2837479680418968,-1.067386435732618,-0.08435593409724533
1772649098337300700,6.43530078125,0.2501993341833353,-1.0725417726691813,-0.0477206958675757
1772649098347344600,6.4453447265625,0.22515081764459607,-1.0523964449368417,-0.0006436316657811403
1772649098357388800,6.455388916015625,0.18651275169253348,-1.0259824121985583,0.04006488388478756
1772649098367432700,6.4654326171875,0.1540694487273693,-0.9872004807963967,0.07403393511250615
1772649098377477600,6.4754775390625,0.07246785483956336,-0.972777695429325,0.09345880308318882
1772649098387521800,6.485521728515625,-0.0836813227713108,-0.925838030404225,0.030697336080670354
1772649098397565700,6.495565673828125,-0.288164030918479,-0.9025480479706078,-0.10967278271596878
1772649098407609600,6.505609619140625,-0.5025193137824535,-0.9353816654276103,-0.16836952103022484
1772649098417653800,6.51565380859375,-0.6919885771930218,-0.9981989908032118,-0.09965941128898412
1772649098427697700,6.52569775390625,-0.8264975854039192,-0.9705900491919368,-0.05155329630039632
1772649098437742600,6.53574267578125,-0.921478885346651,-0.8198755369156598,-0.050099846089072524
1772649098447786500,6.545786376953125,-1.0120032058805226,-0.6219271989732981,-0.13115100301988422
1772649098457830700,6.55583056640625,-1.1572405288547276,-0.4876192662924528,-0.18205938901286572
1772649098467874800,6.565874755859375,-1.3620827179640531,-0.37535847637727854,-0.1969889183256775
1772649098477918700,6.575918701171875,-1.568106225812435,-0.17247399720698595,-0.20299400395937262
1772649098487963600,6.585963623046875,-1.782975303417444,0.07049523959234356,-0.2141063861368224
1772649098498007800,6.5960078125,-2.0006594384431837,0.308983969976753,-0.1952248312626034
1772649098508051700,6.6060517578125,-2.1353514020055533,0.5182864994958043,-0.09480236317925154
1772649098518095600,6.616095703125,-2.097523483392596,0.6883581117361783,0.06599069471471011
1772649098528139500,6.626139404296875,-1.8861574454724788,0.8007059954129159,0.30494138005506244
1772649098538183700,6.63618359375,-1.5294751741230488,0.8653164147503674,0.5220595517611131
1772649098548228900,6.646228759765625,-1.1020248375892638,0.8659037131190299,0.6868364551268518
1772649098558272500,6.6562724609375,-0.6927338426023721,0.7572982308410108,0.8020761147223413
1772649098568316700,6.666316650390625,-0.38090836558938024,0.6463599217012524,0.8486968499913811
1772649098578360800,6.67636083984375,-0.15626023676991463,0.6125264795519412,0.7945941614691168
1772649098588404700,6.68640478515625,-0.0503892940223217,0.5643912480667234,0.6627493309661746
1772649098598448600,6.69644873046875,-0.07213818449378014,0.572173426375538,0.4769071354789659
1772649098608493600,6.70649365234375,-0.13426000188589096,0.6091062958449125,0.24511216711215675
1772649098618537700,6.716537841796875,-0.1749222671419382,0.6755278562575578,0.03523030333518982
1772649098628582000,6.726581787109375,-0.18950725733339785,0.756097769010067,-0.05497629301901907
1772649098638625500,6.73662548828125,-0.1421183141708374,0.8391105448700487,-0.023503186792880295
1772649098648669700,6.746669677734375,-0.023685996013879773,0.9560890109568834,0.12470774516463279
1772649098658715000,6.75671484375,0.15478899517357347,1.0439010037921368,0.34159188891910014
1772649098668758500,6.766758544921875,0.36609307377338407,1.1316542521774768,0.5405325258344411
1772649098678802700,6.776802734375,0.5410924978047609,1.1640678906567394,0.6466017676331103
1772649098688846600,6.7868466796875,0.6552665739953517,1.1643440772496163,0.6975452614720911
1772649098698890800,6.796890869140625,0.7187976736634969,1.1656857011169195,0.7369613991245627
1772649098708934700,6.8069345703125,0.7815946138381957,1.1394162644810975,0.7557572850093245
1772649098718979600,6.8169794921875,0.7812140900880098,1.111850504424423,0.7195935002163052
1772649098729023700,6.827023681640625,0.8095294994682073,1.0689276007600128,0.7013432655155658
1772649098739068000,6.83706787109375,0.8896943385511636,1.0080857401758432,0.7044283720493316
1772649098749111600,6.847111572265625,0.9396265364557504,0.9793051975019276,0.6137305946446955
1772649098759155700,6.85715576171875,0.9034832099288701,0.9433528635025024,0.5124877866217866
1772649098769201000,6.867200927734375,0.8413152153074741,0.9177451056458056,0.4124543543886393
1772649098779244500,6.87724462890625,0.789917621025443,0.8558151575639843,0.3344761020971462
1772649098789288700,6.887288818359375,0.729745184135437,0.7495278891004622,0.24224289528615772
1772649098799332600,6.89733251953125,0.718409551128745,0.6573524403586983,0.16626571715138852
1772649098809376800,6.907376708984375,0.7292308048725128,0.5635270324528217,0.13949457807112484
1772649098819420700,6.917420654296875,0.6435550934135913,0.5135281990528107,0.16741198284337297
1772649098829465600,6.927465576171875,0.5137842196404934,0.5169457524113357,0.15402319843284784
1772649098839509800,6.937509765625,0.35243513529896736,0.5377684679485857,0.11994124314887449
1772649098849553700,6.9475537109375,0.2694692673206329,0.544104246841371,0.14542444304414093
1772649098859597600,6.95759765625,0.2843067709684372,0.5165383406542241,0.3242806886341423
1772649098869641700,6.967641845703125,0.39499475860893724,0.5827632094509899,0.2228482032580301
1772649098879686700,6.977686767578125,0.5473603260278701,0.48574543524459,0.3249798864120617
1772649098889730800,6.987730712890625,0.6742027451336383,0.35969022099375725,0.34583668688200414
1772649098899774700,6.997774658203125,0.7422878548443317,0.17520926738977433,0.33237850876338776
1772649098909818600,7.007818603515625,0.686575904494524,0.030828415114432572,0.31890622905418275
1772649098919862800,7.01786279296875,0.6228998433977365,-0.02423617724254727,0.2548147190243006
1772649098929906700,7.02790673828125,0.5853782142549753,-0.05994213526546955,0.2061424945855513
1772649098939951600,7.03795166015625,0.5674053351908922,-0.15266425810456274,0.1822402254724875
1772649098949995800,7.047995849609375,0.605091799506545,-0.23620909501463175,0.17140905312290414
1772649098960039700,7.058039794921875,0.5757780267387628,-0.30806247121766206,0.22099464781321584
1772649098970083800,7.068083740234375,0.49250586929023266,-0.36290129199475046,0.28948152499152346
1772649098980127500,7.07812744140625,0.3563461712628603,-0.42528819006383417,0.29087422145893793
1772649098990172700,7.088172607421875,0.2599158415555954,-0.42530017276257276,0.30742099497634917
1772649099000216800,7.098216796875,0.23546996708512305,-0.3676455639123916,0.3048653556767851
1772649099010260500,7.108260498046875,0.2756844885736704,-0.38179946921020746,0.38791309325229373
1772649099020304600,7.1183046875,0.36643735716640946,-0.4569143314272165,0.4799884060878306
1772649099030348800,7.128348876953125,0.47374505471885203,-0.5508709644973278,0.4858737377993762
1772649099040392700,7.138392822265625,0.4609223980247974,-0.6406644865386187,0.4378410533731803
1772649099050437600,7.148437744140625,0.3448737601339817,-0.6891945625603199,0.38418892163001
1772649099060481800,7.158481689453125,0.29417057785689826,-0.7420046539887786,0.3737115128878504
1772649099070525700,7.168525634765625,0.27958091149032116,-0.8711134105913341,0.4353824081746861
1772649099080569900,7.17856982421875,0.283020238289237,-0.9801922094695269,0.5290187963144853
1772649099090613500,7.188613525390625,0.29903964519798754,-1.0320593209594489,0.6191494778882711
1772649099100657700,7.19865771484375,0.2707423559963703,-1.036873297112435,0.6268367444552481
1772649099110702600,7.20870263671875,0.18171324245631693,-1.0194555677130819,0.6004811273733154
1772649099120746500,7.21874658203125,0.08885258792936801,-1.002995869690925,0.6084858989242464
1772649099130790400,7.228790283203125,-0.013995792126655578,-0.9551933772914111,0.6343360872346907
1772649099140834600,7.23883447265625,-0.1356599318116903,-0.8724534270234405,0.5871090201029554
1772649099150878700,7.248878662109375,-0.2880886275947094,-0.7580811979122459,0.5281803727289661
1772649099160923400,7.25892333984375,-0.543091562667489,-0.6507968812353908,0.49903947231005874
1772649099170967600,7.268967529296875,-0.7888198889166116,-0.5511936205804348,0.4997168966475874
1772649099181011700,7.27901171875,-0.9356862743973732,-0.48333968927711246,0.518921655594185
1772649099191055600,7.2890556640625,-0.9643810384839773,-0.5000906253308057,0.5743563233725726
1772649099201099500,7.299099609375,-0.8623112415850162,-0.6278758782446384,0.720689990216121
1772649099211143400,7.309143310546875,-0.6958797394126653,-0.7400142108239233,0.8228320486336946
1772649099221188600,7.319188720703125,-0.5375239916682243,-0.7955079883784055,0.7300653560005128
1772649099231232800,7.329232666015625,-0.5129132820248603,-0.8382740940459072,0.5411357158919796
1772649099241276400,7.3392763671875,-0.674995941337943,-0.876973534796387,0.35572818549498914
1772649099251320600,7.349320556640625,-0.8299141158491372,-0.8734379080161452,0.20800394107587633
1772649099261364500,7.359364501953125,-0.9530278698205947,-0.8243497597202658,0.06685344902388751
1772649099271408600,7.36940869140625,-1.0948603527873755,-0.6954223510339855,-0.15750819100439548
1772649099281453600,7.37945361328125,-1.2885410964131354,-0.5182010131694376,-0.3413363797880709
1772649099291497500,7.38949755859375,-1.5098334850639104,-0.3535223460137844,-0.47590902781970795
1772649099301541600,7.399541748046875,-1.6022820516586302,-0.23025354761108754,-0.42132615456506606
1772649099311585800,7.409585693359375,-1.5874375337481499,0.03426175056397915,-0.4577554584264755
1772649099321629400,7.41962939453125,-1.5407833346009254,0.2702218392536044,-0.4016872419849038
1772649099331674600,7.429674560546875,-1.4723890128105879,0.4586784184902906,-0.29465704619958993
1772649099341718800,7.43971875,-1.4346066869050262,0.6523864885143935,-0.2543354841399938
1772649099351762400,7.449762451171875,-1.3698545210093258,0.8750378905586897,-0.22835480131767688
1772649099361806600,7.459806640625,-1.3073773143082856,1.0458316795937717,-0.21746249163169412
1772649099371850500,7.4698505859375,-1.1825474040687083,1.1843129524365066,-0.18576701135914772
1772649099381894700,7.479894775390625,-0.9707932436138391,1.2920106722198426,-0.20080069516617804
1772649099391939600,7.489939697265625,-0.695488694268465,1.3417353648535906,-0.21045904261041432
1772649099401983500,7.4999833984375,-0.4227040187895298,1.3258540512412786,-0.18776874310299754
1772649099412027600,7.510027587890625,-0.15178396813869474,1.240093730238825,-0.2038301990551874
1772649099422071600,7.520071533203125,0.1449801333427429,1.2077658703468739,-0.2086243562628515
1772649099432115500,7.530115478515625,0.45214404828548427,1.1262933096662162,-0.20759302218742667
1772649099442160600,7.54016064453125,0.721734896159172,1.0271543055221437,-0.1428822660143487
1772649099452204500,7.55020458984375,0.9368781145304441,0.8744358330123126,-0.0953184594752267
1772649099462248400,7.56024853515625,1.0929834529995917,0.7227671618163585,-0.14189570266241208
1772649099472292600,7.570292724609375,1.1392115356892347,0.6186158824682235,-0.22076030933437868
1772649099482336500,7.58033642578125,1.1774860290259122,0.5508860159359872,-0.2697728533770889
1772649099492380700,7.590380615234375,1.2154331901043653,0.5073591550290584,-0.32793873621765524
1772649099502425600,7.600425537109375,1.2145447168320416,0.49839405054599045,-0.3514204052984714
1772649099512469500,7.610469482421875,1.257607028967142,0.4931758775062859,-0.35051001245528457
1772649099522513700,7.620513671875,1.1915104627251625,0.49680795039832587,-0.3713433589844033
1772649099532557600,7.6305576171875,0.9533955340892076,0.5049626152813435,-0.44932877166904506
1772649099542601500,7.6406015625,0.6054296531587838,0.5857653138764203,-0.5086182151794433
1772649099552645400,7.650645263671875,0.3309299904555082,0.6845426451012492,-0.4912858990412205
1772649099562690600,7.660690673828125,0.18542963263094425,0.7384326407209039,-0.3531863189924508
1772649099572734700,7.670734619140625,0.12809037334024906,0.7573099212788045,-0.15357490667607634
1772649099582778400,7.6807783203125,0.13799801937043665,0.7838125821486115,0.03412486284393817
1772649099592822500,7.690822509765625,0.1599813031196594,0.8048824043147266,0.14528729959577322
1772649099602866700,7.70086669921875,0.14350538461506365,0.7306964935109019,0.22511388316769151
1772649099612911400,7.710911376953125,0.20184826799035072,0.6288664967171848,0.2593503166273236
1772649099622955500,7.72095556640625,0.3767062377244234,0.5027162976592778,0.2849462744483724
1772649099632999700,7.730999755859375,0.6247492706567048,0.3517806169129908,0.3327743396805599
1772649099643043600,7.741043701171875,0.8751584481984377,0.20989888797700404,0.35354221975803374
1772649099653087500,7.75108740234375,1.057003208079934,0.07342237908542155,0.29964126435294747
1772649099663131400,7.76113134765625,1.0844073478341103,-0.091297642993927,0.2908910812621936
1772649099673176600,7.771176513671875,0.9815841022193431,-0.19888693396672605,0.2569622889796272
1772649099683220700,7.781220703125,0.8767869261831045,-0.2416284897148609,0.1747535960441455
1772649099693264400,7.791264404296875,0.8698954131036997,-0.27005700408071276,0.10922412563301623
1772649099703308500,7.80130859375,0.9206161310374736,-0.3282389978058636,0.1243176498685032
1772649099713352400,7.8113525390625,0.9798866506516933,-0.4010854766994715,0.12199099701922386
1772649099723396600,7.821396728515625,0.9775567463994026,-0.4819087796911597,0.09833495775219052
1772649099733441500,7.831441650390625,0.906609232994914,-0.5328212208047509,0.10700235793031751
1772649099743485400,7.8414853515625,0.7228998482853174,-0.5427038785241544,0.07153641920834779
1772649099753529600,7.851529541015625,0.5743558849811553,-0.5411816373929381,0.025368469208106398
1772649099763573800,7.86157373046875,0.493279191750288,-0.5667473096735776,-0.01798592120874673
1772649099773617400,7.871617431640625,0.43676995354294773,-0.6003495734155178,-0.011481471218168735
1772649099783662600,7.88166259765625,0.36298283279836174,-0.6427250723302363,0.0051013782596215605
1772649099793706800,7.891706787109375,0.1835270138800144,-0.6544922286219894,0.02490625852383673
1772649099803750400,7.90175048828125,-0.05900573119819164,-0.6018082477912307,0.005836231872811913
1772649099813794600,7.911794677734375,-0.22717910860180854,-0.5092494988203048,0.010568703754805028
1772649099823838500,7.92183837890625,-0.2800146267324686,-0.4446177444338798,0.08615863613765687
1772649099833882600,7.931882568359375,-0.2967307837337255,-0.4527528278335929,0.1784057253435254
1772649099843927600,7.941927490234375,-0.2248503733932972,-0.45902489384040235,0.17017795869167893
1772649099853971500,7.951971435546875,-0.1478127264201641,-0.43727775693461296,0.08734083165954798
1772649099864015600,7.962015625,-0.13208207332491875,-0.47253816314712166,-0.025632271243445574
1772649099874059800,7.972059814453125,-0.11381284166276454,-0.46538507652208205,-0.11464837917145342
1772649099884103400,7.982103515625,-0.11866086621582507,-0.4031736811503768,-0.21750465027298777
1772649099894147600,7.992147705078125,-0.12043605919480323,-0.3698918815344572,-0.28682766774818297
1772649099904192500,8.002192626953125,-0.1313736327946186,-0.3384996950574219,-0.36276787487342954
1772649099914236700,8.012236572265625,-0.190098208963871,-0.3164033063225448,-0.5017013849956915
1772649099924280600,8.022280517578125,-0.19380232417881488,-0.291267257630825,-0.585797097254172
1772649099934324500,8.032324462890625,-0.20733283688127993,-0.32495106217637654,-0.5392157441474497
1772649099944368600,8.04236865234375,-0.24866788683235644,-0.40002354655638334,-0.3833317568114027
1772649099954413600,8.05241357421875,-0.2367185058414936,-0.5090675663821399,-0.18378716265354306
1772649099964457500,8.06245751953125,-0.21773206582069396,-0.5555963855840266,-0.023781035619881003
1772649099974501600,8.072501708984374,-0.2976993365049362,-0.5591095082715153,0.03838646581117063
1772649099984545500,8.082545654296876,-0.5286310756385326,-0.4886829500012099,0.1219288367695175
1772649099994589400,8.09258935546875,-0.757451521706581,-0.4333969699785113,0.18652836938677356
1772649100004633600,8.102633544921876,-0.9388806865245103,-0.35035555254593487,0.19140874357316642
1772649100014678500,8.112678466796876,-1.1179320162951945,-0.15892288010790942,0.09513718462418765
1772649100024722700,8.12272265625,-1.2445628384768963,0.044072950482368464,-0.014936817570123821
1772649100034766600,8.1327666015625,-1.3685533752828836,0.19800313686951992,-0.06477731860326602
1772649100044810500,8.142810546875,-1.4293465744197367,0.2710764102563262,-0.06564522401159628
1772649100054854700,8.152854736328125,-1.3483803558260201,0.28655922607034445,-0.03951839245054871
1772649100064898600,8.162898681640625,-1.2110878543764352,0.3043807139649987,-0.008296155712939799
1772649100074943500,8.172943603515625,-1.0579495490193367,0.3167354608863592,-0.019729659603536127
1772649100084987600,8.182987548828125,-0.9764642749875784,0.41297099867388604,0.06270151697620749
1772649100095031600,8.193031494140625,-0.9842097745478152,0.49368134281039233,0.15039401161763816
1772649100105075700,8.20307568359375,-1.0376847596257925,0.5945386951796711,0.168539397704415
1772649100115119400,8.213119384765625,-1.023750342297554,0.757660488282144,0.11379147008117288
1772649100125164500,8.22316455078125,-0.9347282430201769,0.9131915339946747,0.08908800412043928
1772649100135208400,8.23320849609375,-0.8227385251313447,1.0391701758779586,0.07068721850048751
1772649100145252400,8.24325244140625,-0.6666928078949451,1.1646163183197378,0.09305530031621456
1772649100155296300,8.253296142578124,-0.5118605581015349,1.245543520077318,0.07101104362737387
1772649100165340400,8.26334033203125,-0.3486006717026233,1.3004492686107754,0.05373217470943927
1772649100175384600,8.273384521484376,-0.14345745382010935,1.324058984518051,0.030403248504921793
1772649100185429200,8.28342919921875,0.07946458185911179,1.2920664940603077,-0.018605258683487773
1772649100195473400,8.293473388671876,0.3413923477590084,1.2229191619455813,-0.017159772582910952
1772649100205517600,8.303517578125,0.5502016869336366,1.1626917799979448,0.03090381843820214
1772649100215561500,8.3135615234375,0.571439705273509,1.076328378535807,0.1346362878523767
1772649100225605400,8.32360546875,0.5418243192106486,1.034395654952526,0.20513510764129458
1772649100235649300,8.333649169921875,0.5731324806660414,1.0434566210255025,0.17913601237945256
1772649100245694500,8.343694580078125,0.6973270156115293,0.9873568404018879,0.1804937471313402
1772649100255738600,8.353738525390625,0.8372188859045505,0.9187418615981936,0.23953323446866123
1772649100265782300,8.3637822265625,0.9732792152106762,0.8582967452466488,0.29872049624621866
1772649100275826400,8.373826416015625,1.0189029022663831,0.8060904649302363,0.36389885166473684
1772649100285870600,8.38387060546875,0.9267740691453218,0.7908718530103563,0.35770365028642115
1772649100295914500,8.39391455078125,0.7565110259860753,0.7446502000615001,0.3627844972146675
1772649100305959400,8.40395947265625,0.6219301215827465,0.6994289563268423,0.32008707286920396
1772649100316003300,8.41400341796875,0.5371966594099998,0.685937898851931,0.2806067839393392
1772649100326047500,8.424047607421874,0.5003291102617978,0.6330319458335638,0.1987387211350724
1772649100336091400,8.43409130859375,0.4788385784655809,0.5282879612892866,0.13263437344543635
1772649100346135300,8.44413525390625,0.4188987812876701,0.4297670890435576,0.07891034550983458
1772649100356180500,8.454180419921874,0.2931312979370355,0.3938169470012188,-0.02989380114544183
1772649100366224600,8.464224609375,0.16797639352679253,0.35791561253666876,-0.1623575672643259
1772649100376268300,8.474268310546876,0.0779693748652935,0.3639025779917836,-0.18615407444797455
1772649100386312400,8.4843125,0.0812631557136774,0.3408976961098611,-0.12483133501168339
1772649100396356400,8.4943564453125,0.13728256457746027,0.30979806283861394,-0.03577814647629857
1772649100406400500,8.504400390625,0.20819617571234703,0.2524177408851683,0.03917049232833087
1772649100416445400,8.514445556640625,0.25041034658551214,0.18414850677922368,0.11366828209292143
1772649100426489300,8.5244892578125,0.2590443194180727,0.1015441655896604,0.17275369093120096
1772649100436533500,8.534533447265625,0.23007073839008807,0.03724485802799463,0.20838227286897598
1772649100446577700,8.54457763671875,0.16636252858936787,-0.053125733248889445,0.24946619760319588
1772649100456621300,8.554621337890625,0.10733867721259593,-0.12755655872449279,0.2722016148939729
1772649100466665500,8.56466552734375,0.062327569097280495,-0.1619322910569608,0.2729739144407213
1772649100476710400,8.57471044921875,0.08230535824298858,-0.1900632837809622,0.2722579481910914
1772649100486754300,8.58475439453125,0.16093056666851044,-0.24312530414387581,0.31827764882706105
1772649100496798500,8.594798583984375,0.2632826876401901,-0.34474633436203,0.34815369512010363
1772649100506842400,8.60484228515625,0.3164361856788397,-0.4046526676617562,0.39412045999243855
1772649100516886500,8.614886474609374,0.2618845112800598,-0.43487507970705624,0.43304085001721976
1772649100526931500,8.624931396484374,0.1277408292502165,-0.4498844327904284,0.3630128626104444
1772649100536975400,8.634975341796874,0.08586568107306956,-0.4616628411285579,0.30980785358026625
1772649100547019500,8.64501953125,0.09515957911908626,-0.5197134635590016,0.24781857652664183
1772649100557063400,8.6550634765625,0.15107961926162242,-0.5960701425306498,0.22281806384809313
1772649100567107300,8.665107421875,0.2261871749550104,-0.6901235139735042,0.11750994261503218
1772649100577151500,8.6751513671875,0.26452655022144317,-0.7680671698756516,0.035511677559837695
1772649100587196400,8.685196533203126,0.17867723576128483,-0.810853295417875,-0.011619345318898558
1772649100597240300,8.695240234375,0.008066402077674865,-0.7671307658083737,-0.10596088605336844
1772649100607284500,8.705284423828125,-0.09544424127936363,-0.7269866792075336,-0.1445434224259108
1772649100617328400,8.715328369140625,-0.13902619337439537,-0.6877173296146094,-0.053537675050646064
1772649100627372500,8.72537255859375,-0.10873802261650561,-0.6828964853294194,0.08852934732437133
1772649100637416400,8.73541650390625,-0.05284253239333629,-0.6564860327877103,0.18451354069933293
1772649100647461400,8.74546142578125,0.008641571617126465,-0.6464933388225734,0.22779534080401062
1772649100657505500,8.755505615234375,0.0927349823206663,-0.6411743357568979,0.26207104682810606
1772649100667549400,8.765549560546875,0.20413784023225306,-0.7191323124453425,0.3297534940220415
1772649100677593300,8.77559326171875,0.26043431247174736,-0.8051135827220975,0.35343956310115754
1772649100687637200,8.78563720703125,0.29818858132660386,-0.8442468848451972,0.3408109676744789
1772649100697681400,8.795681396484374,0.3082739220112562,-0.8736375222414732,0.30968809965811667
1772649100707726600,8.8057265625,0.21835107450187205,-0.8566388950370252,0.30892566391825677
1772649100717770200,8.815770263671874,0.06790683053433895,-0.7496696356587111,0.2518321230169385
1772649100727814400,8.825814453125,-0.10876198801398276,-0.6448863420173525,0.18200623405352234
1772649100737858600,8.835858642578126,-0.28006372657120226,-0.5234431516066194,0.18887655821442603
1772649100747902500,8.84590234375,-0.5074982712388039,-0.39782194485887884,0.20661044089086353
1772649100757946400,8.8559462890625,-0.6922165407299995,-0.27327070543020965,0.26438202718421816
1772649100767991600,8.865991455078126,-0.8088841873019933,-0.2351381047822535,0.3474709370203316
1772649100778035500,8.876035400390625,-0.7702414451748132,-0.3555665651924908,0.4836125879343599
1772649100788079600,8.88607958984375,-0.6023603287160396,-0.4781849368624389,0.4838599137589335
1772649100798123300,8.896123291015625,-0.41633039210438727,-0.5729959948047996,0.4336149235781282
1772649100808167400,8.90616748046875,-0.3234907803654671,-0.5911962528839707,0.31558665617741644
1772649100818212600,8.916212646484375,-0.28483050258159637,-0.6227801625408231,0.20650646905973552
1772649100828256300,8.92625634765625,-0.2923673278272152,-0.6400371484205126,0.16599917516969143
1772649100838300400,8.936300537109375,-0.34700200433433054,-0.5865519342094659,0.09523644374758004
1772649100848344300,8.94634423828125,-0.43785482617020605,-0.5122343598499893,0.002491670685261488
1772649100858388500,8.956388427734375,-0.5576894123405218,-0.5146906669609248,-0.05280008149109781
1772649100868432600,8.9664326171875,-0.6740975311934948,-0.4850746963761747,-0.09815985691361129
1772649100878477300,8.976477294921875,-0.6883347308605909,-0.4122260255254805,-0.22542707730270922
1772649100888521500,8.986521484375,-0.7201233693093061,-0.34251740626618266,-0.2796718046441674
1772649100898565600,8.996565673828124,-0.7973901488631964,-0.258251123213768,-0.23008330561071633
1772649100908608500,9.0066083984375,-0.8782382940351963,-0.06370718688741325,-0.1116867163542658
1772649100918652400,9.01665234375,-0.977512907257676,0.18440350445359943,-0.06519150716103612
1772649100928696300,9.0266962890625,-1.0350035577178,0.41273412117809055,-0.07107778872065246
1772649100938741500,9.036741455078126,-1.1041536663115024,0.5832423712700605,-0.1220067425776273
1772649100948785700,9.04678564453125,-1.1468085666894912,0.7294460550583899,-0.15432437333650886
1772649100958829300,9.056829345703125,-1.1386778672039508,0.9255214387357235,-0.09641425535529852
1772649100968873500,9.06687353515625,-1.0952315241873263,1.1138862480357288,-0.02923683507405221
1772649100978917400,9.07691748046875,-1.0235013359725476,1.3314651691213248,0.03977225761376321
1772649100988961500,9.08696142578125,-0.8492904319703578,1.470676363673806,0.10065919944867491
1772649100999006500,9.09700634765625,-0.5383604424923658,1.5227132787726818,0.12035108432509005
1772649101009050400,9.10705029296875,-0.16066460920870304,1.5153635005317627,0.18622443627044558
1772649101019094500,9.117094482421875,0.16737258241474628,1.4784865990333258,0.1977301651470363
1772649101029138400,9.127138427734375,0.453778371489048,1.4537316586136817,0.17765176517106593
1772649101039182300,9.137182373046874,0.6193693311840296,1.2921527110390365,0.25420710851997136
1772649101049226500,9.1472265625,0.8274819202661514,1.1587985719516873,0.13414930805303155
1772649101059271400,9.157271484375,1.0745242517232894,1.011705976499617,-0.08412636312507092
1772649101069315300,9.1673154296875,1.223735154503584,0.8247659393057226,-0.3100803869113326
1772649101079359500,9.177359375,1.187175063869357,0.7264014266654849,-0.4894182054731995
1772649101089403400,9.1874033203125,1.0377578248620032,0.753994074729085,-0.6411972051758319
1772649101099447600,9.197447509765626,0.858861393392086,0.8173240988671779,-0.6815680862698703
