time,seconds_elapsed,z,y,x
1772650002994358800,0.07135888671875,-0.2689250774413347,-0.7608988856814801,0.47910000588074325
1772650003004402700,0.081402587890625,-0.11558160490095615,-0.7788277794733643,0.49238655375950036
1772650003014447400,0.091447265625,-0.06426993533670902,-0.7231934244044125,0.4661825835753232
1772650003024491500,0.101491455078125,-0.1614145507931709,-0.6068349899120629,0.37626039365306496
1772650003034535700,0.11153564453125,-0.30045886434614655,-0.4166282060071826,0.19503902636691928
1772650003044580400,0.121580322265625,-0.41680210126936434,-0.15801219500377772,0.0034671646539121866
1772650003054624500,0.13162451171875,-0.6144891579270363,0.039323417867720124,-0.19892543934620915
1772650003064669700,0.141669677734375,-0.757214790341258,0.2321529514916241,-0.30830519393235445
1772650003074713300,0.15171337890625,-0.8656482770532369,0.3995648430034518,-0.33794958689399063
1772650003084757500,0.161757568359375,-0.8933674741059541,0.5799154188044369,-0.3286173295989632
1772650003094802700,0.171802734375,-0.8304156356304884,0.7107689732477068,-0.2003833830695599
1772650003104846600,0.1818466796875,-0.6766723501175642,0.7984472567006945,-0.09218249953705816
1772650003114890500,0.191890380859375,-0.47574295053780075,0.7748606294080614,0.01743847992643714
1772650003124935700,0.201935791015625,-0.22091654107570646,0.7705690696939825,0.11547993462476878
1772650003134979600,0.2119794921875,0.023646833047270773,0.6938160848811269,0.15352569723948836
1772650003145023500,0.2220234375,0.28986382057368754,0.5595122438535094,0.19393870044220238
1772650003155068700,0.232068603515625,0.5648650030583143,0.41619390624314545,0.18201997031792996
1772650003165112600,0.242112548828125,0.7610954311668873,0.28922523040920495,0.21709369485191998
1772650003175156500,0.252156494140625,0.8203343865990638,0.2419996611148119,0.22658713405802844
1772650003185201700,0.26220166015625,0.8095622326940297,0.22964286836683748,0.1936450877904892
1772650003195245600,0.27224560546875,0.7463502819776534,0.21377923654168843,0.17675525472275913
1772650003205290500,0.28229052734375,0.6700292588412762,0.23789953231960534,0.20269202533811329
1772650003215334700,0.292334716796875,0.580996053647995,0.23817718021720646,0.19565708520002661
1772650003225378600,0.302378662109375,0.48849546460509297,0.22037878093719482,0.18890498059131203
1772650003235423500,0.312423583984375,0.3417173419296741,0.19731383943110703,0.1253066609058529
1772650003245467600,0.322467529296875,0.20020400791466236,0.22626228601783513,-0.014994520840421318
1772650003255511600,0.332511474609375,0.13349778534173964,0.22751287060081957,-0.09444200543425976
1772650003265556500,0.342556396484375,0.1254430737018585,0.17314970451146364,-0.17036986453458666
1772650003275600600,0.3526005859375,0.16713059035241604,0.1621469567209482,-0.27171741157360374
1772650003285644500,0.36264453125,0.17968670506477355,0.11273352199345826,-0.42243031641468404
1772650003295689500,0.372689453125,0.019967267751693725,0.06842939310371875,-0.5165337375443428
1772650003305733600,0.382733642578125,-0.17495909202098844,0.11246756453365087,-0.6291759279925376
1772650003315777500,0.392777587890625,-0.22213877634704113,0.1979381088092923,-0.6086887280199677
1772650003325822500,0.402822509765625,-0.21873978155851362,0.21342560079842804,-0.5526810095939785
1772650003335866400,0.412866455078125,-0.24726561881899833,0.24424656325876712,-0.5457692574441433
1772650003345911600,0.42291162109375,-0.4494195917576551,0.29203181226253505,-0.6460160766996443
1772650003355955700,0.432955810546875,-0.6163859314590692,0.3745052205488085,-0.7576888375937938
1772650003365999400,0.442999267578125,-0.8065876007974148,0.45030835729092356,-0.8185755602329969
1772650003376044500,0.45304443359375,-0.8380296177655457,0.33820494989454747,-0.858556419096142
1772650003386088700,0.463088623046875,-1.3404688520491121,0.21303134078383446,-0.3899724004022777
1772650003396132400,0.47313232421875,-1.0666928274452685,0.36995237955003973,-0.5176328578926622
1772650003406177500,0.483177490234375,-0.45012394063472744,0.7358677586689591,-0.8282042431913316
1772650003416221700,0.4932216796875,0.22945991301536559,0.702915044876933,-0.9824816355809569
1772650003426265600,0.503265625,0.581758854714036,0.6258078397989273,-0.9615057753086089
1772650003436310500,0.513310546875,0.5934709198176861,0.5437579176217318,-0.7925393478311598
1772650003446354700,0.523354736328125,0.6123930624306202,0.3865773511365056,-0.7449209798268973
1772650003456398600,0.533398681640625,0.6760182701230049,0.3585995031476021,-1.0543230290852486
1772650003466443500,0.543443603515625,0.7259709262937307,0.4113938124850392,-0.9990019777491688
1772650003476487700,0.55348779296875,0.6936936275452374,0.19688041644990442,-0.7297865390591323
1772650003486532400,0.563532470703125,0.7317360656917095,-0.09301146117448807,-0.45820393284633754
1772650003496576500,0.573576416015625,0.6635609396100044,-0.04935995097458362,-0.6165336693666875
1772650003506620700,0.58362060546875,0.6594079115837812,0.2936664277270436,-1.107898259667307
1772650003516665300,0.593665283203125,0.6894388927102089,0.3900312909826636,-0.8846263876371085
1772650003526709500,0.60370947265625,0.6530828002154827,-0.14200462466329336,-0.0965080711185932
1772650003536753700,0.613753662109375,0.6754103673577309,-0.27468057222813363,-0.04325988053381443
1772650003546798600,0.623798583984375,0.659399143755436,0.3492646885693073,-0.3485103630706668
1772650003556842500,0.633842529296875,0.2039355956584215,0.3561830896556377,-0.29698344332054255
1772650003566886700,0.64388671875,-0.23244272821843623,0.097220895563066,0.0019905892953276634
1772650003576931600,0.653931640625,-0.2821925552934408,0.07431143687963486,-0.21301351286619902
1772650003586975500,0.6639755859375,-0.2538543495595455,0.1086231640651822,-0.44073271969407796
1772650003597019600,0.67401953125,-0.19592823029160497,-0.14372487258464098,-0.10015680288448929
1772650003607064600,0.684064697265625,-0.18439619792997836,-0.5156260481148958,0.17629793940931557
1772650003617108500,0.6941083984375,0.10308628046512604,0.15444178917109966,-0.28184359572529794
1772650003627153700,0.704153564453125,0.31649229978024956,0.3248492092370987,-0.4166577243626117
1772650003637197600,0.714197509765625,0.5768880338072776,0.04355506408810615,0.12468027263581752
1772650003647241500,0.724241455078125,0.9941916548579931,-0.1347051153048873,0.47624373966678973
1772650003657286700,0.73428662109375,0.8531792561024427,0.10348287856727838,0.3379297862149775
1772650003667330600,0.74433056640625,0.38887130729258057,-0.16359247935414314,0.4089478806376457
1772650003677374700,0.754374755859375,0.2648854466617107,-0.27788667479306456,0.4636354563757777
1772650003687419600,0.764419677734375,0.4391115482330322,-0.2507698275476694,0.24465865119099617
1772650003697463600,0.774463623046875,0.5277361726254225,-0.24672376702725887,0.1376087277919054
1772650003707507700,0.7845078125,0.5074778129726648,-0.268855519336462,0.10410510211884975
1772650003717552600,0.794552734375,0.671930124026537,-0.26958295682817696,0.01849690293818712
1772650003727596500,0.804596435546875,0.6576397328674792,-0.27254589828699827,-0.02628404968306422
1772650003737640700,0.814640625,0.19278642513453959,-0.1312245797127485,-0.11450827658101916
1772650003747685600,0.824685546875,-0.3461591237694025,0.04745791674554348,-0.19163418635949492
1772650003757729500,0.8347294921875,-0.6428723718464374,0.22071838815510272,-0.2357316867612302
1772650003767774500,0.8447744140625,-0.6610831513196229,0.27345775243490933,-0.12074614805728197
1772650003777818600,0.854818603515625,-0.5136462724745273,0.1854845776885748,0.0608713789395988
1772650003787862500,0.864862548828125,-0.29562779092788694,0.09111644120812415,0.16924188341796398
1772650003797907700,0.87490771484375,0.0019371055424213409,0.03004705547839403,0.12243263983950019
1772650003807951400,0.884951416015625,0.27788112183511254,-0.03250263193696737,0.02381254500299692
1772650003817995500,0.89499560546875,0.43558337410688397,-0.06945873615145683,-0.0021495792493224143
1772650003828040700,0.905040771484375,0.50496904502213,-0.1145700897708535,-0.06304594649970531
1772650003838084400,0.91508447265625,0.2943301523327827,-0.11382979279756546,-0.15534092996791005
1772650003848128500,0.92512841796875,-0.03590308803021908,-0.09744798231720923,-0.20360504852980374
1772650003858173700,0.935173583984375,-0.34502281321585176,-0.06897416750490665,-0.28997641410268843
1772650003868217300,0.94521728515625,-0.4089467115938663,-0.09275544058680533,-0.37999979937709866
1772650003878262500,0.955262451171875,-0.2686626271128654,-0.1497691211849451,-0.3975348715458065
1772650003888306700,0.965306640625,0.026206454402208326,-0.15880436829477548,-0.35544381559565663
1772650003898350600,0.9753505859375,0.2371966447472572,-0.1409504394352436,-0.2929906473573297
1772650003908395500,0.9853955078125,0.3616518764555454,-0.11351532002091407,-0.21661226801052688
1772650003918439700,0.995439697265625,0.4274567662745714,0.004609539622068405,-0.19987097656801342
1772650003928483600,1.005483642578125,0.5544307028055191,0.12756839529275893,-0.17267112721428274
1772650003938528500,1.015528564453125,0.6557078880220651,0.21503771217018364,-0.1731920092832297
1772650003948572700,1.02557275390625,0.46441433179378505,0.23837971705198285,-0.14030227772481738
1772650003958616600,1.035616455078125,0.2996376110911369,0.26756226465553046,-0.10591127475798129
1772650003968661500,1.04566162109375,0.3289221577644348,0.205549752856791,-0.17749883963167667
1772650003978705700,1.05570556640625,0.5282745172858238,0.07667699696719646,-0.1861517363604158
1772650003988749600,1.06574951171875,0.6799480107873678,-0.10266454792171716,-0.10725034134201705
1772650003998795000,1.075794921875,0.6957903075635433,-0.3083428955942392,-0.08133768225461244
1772650004008839200,1.085839111328125,0.6331207931607962,-0.4122612429693341,-0.10293737351372838
1772650004018884000,1.095884033203125,0.6543605650663376,-0.3998158951550722,-0.12316679933294652
1772650004028928000,1.105927978515625,0.79581661593616,-0.32600071735978126,-0.24149353822357952
1772650004038972200,1.11597216796875,0.9225672651052474,-0.3317784239783883,-0.1369018216315657
1772650004049016800,1.126016845703125,1.0365689073383808,-0.32623160350620745,-0.06747158092223107
1772650004059061000,1.13606103515625,0.854566326546669,-0.2756406494319439,0.057047655932977795
1772650004069105200,1.146105224609375,0.5077858560085297,-0.26376550272107124,0.29287195288110524
1772650004079150000,1.156150146484375,0.4282546386539936,-0.13765052110701798,0.1215815394354984
1772650004089194000,1.166194091796875,0.5431862552136183,0.05704875191152096,-0.16922500534839927
1772650004099238100,1.176238037109375,0.5490834965586662,-0.08738865285664796,0.05267881146529689
1772650004109283000,1.186282958984375,0.40909751824140544,-0.36319150711297987,0.2551326441333629
1772650004119327000,1.196326904296875,0.2473714172810316,-0.4347917853377759,0.22354192114323376
1772650004129371100,1.20637109375,0.1765472379952669,-0.3993574838630855,0.07020262245447374
1772650004139416000,1.216416015625,0.02316986318528652,-0.4384763190694153,0.028103963153180665
1772650004149460000,1.2264599609375,-0.4218558775275945,-0.5911586973525583,0.031967940538376566
1772650004159505200,1.236505126953125,-0.7628226933509111,-0.6219822901614009,-0.08664187134364619
1772650004169549000,1.246549072265625,-0.8500280985951423,-0.5864964046299457,-0.16370699084559454
1772650004179593000,1.256593017578125,-0.9927636678814887,-0.596260112144798,0.009420081708952784
1772650004189638100,1.26663818359375,-1.147769520676136,-0.589595539689064,0.11240812596399337
1772650004199682000,1.27668212890625,-1.108171669781208,-0.575866435674578,0.09516304971780627
1772650004209726200,1.286726318359375,-0.9325111514925957,-0.6464649895109236,0.03587923223059624
1772650004219771100,1.296771240234375,-0.6635586015224456,-0.7187307459071278,-0.04227214813809842
1772650004229815000,1.30681494140625,-0.5237117394149303,-0.7354075938113034,0.06243497499451041
1772650004239859200,1.316859130859375,-0.4715010751843452,-0.7011943585641681,0.21958116428609936
1772650004249904000,1.326904052734375,-0.40872167066633697,-0.6656029668316245,0.23579927210472523
1772650004259948000,1.336947998046875,-0.38023674993813034,-0.714510936255008,0.15815485487747938
1772650004269993000,1.346992919921875,-0.3996849622517824,-0.7926680887773633,0.0701788305869326
1772650004280037000,1.357037109375,-0.3802688986420631,-0.8856969394780695,-0.02433938188869506
1772650004290081000,1.3670810546875,-0.30598551881313324,-1.020612774924189,-0.09288962489310651
1772650004300126000,1.3771259765625,-0.15939678122997283,-1.1458365067869425,-0.11379610972367227
1772650004310170000,1.387170166015625,0.04468319133520126,-1.250293637213856,-0.1874243501121178
1772650004320214000,1.397214111328125,0.3073223203748464,-1.2978707964248954,-0.2718933526623994
1772650004330259200,1.40725927734375,0.49230362471640104,-1.3310539579719305,-0.2891579373266548
1772650004340303000,1.41730322265625,0.6220785901427268,-1.3638168482802808,-0.2758119508782402
1772650004350347000,1.427346923828125,0.7175216623783112,-1.398518743827194,-0.2544179017264396
1772650004360392200,1.43739208984375,0.8022896113425493,-1.4479470838628707,-0.24041779875084757
1772650004370435800,1.447435791015625,0.856086083459854,-1.4442115505963562,-0.19250037473477422
1772650004380480000,1.45747998046875,0.8087228592604399,-1.4705815249972045,-0.2190670042188838
1772650004390525200,1.467525146484375,0.6620534576565027,-1.4841083844378589,-0.25324074770584704
1772650004400569000,1.477569091796875,0.45562195352911944,-1.4765890948489306,-0.3662120239779353
1772650004410614000,1.487614013671875,0.2574538353562355,-1.4602562380768358,-0.49885980489421633
1772650004420658200,1.497658203125,0.16454758812189102,-1.4574986099317668,-0.5564722185704857
1772650004430702000,1.5077021484375,0.16375263835191725,-1.4419038581758736,-0.6175264797963201
1772650004440747000,1.5177470703125,0.20382395197749137,-1.354438048429787,-0.6276406081840396
1772650004450791200,1.527791259765625,0.17388824791908264,-1.2802861860260366,-0.5787132764730603
1772650004460835000,1.5378349609375,0.05056581963300705,-1.2068989513192325,-0.5550174897175282
1772650004470880000,1.5478798828125,-0.12320610843002795,-1.1009279091980309,-0.5788451592244207
1772650004480924200,1.557924072265625,-0.36877778281271456,-0.9683940735176205,-0.59908671387285
1772650004490968000,1.567968017578125,-0.6136755034565925,-0.8142417688123882,-0.5828886624615639
1772650004501013000,1.578012939453125,-0.8329530451536178,-0.6639852294366806,-0.536815112746507
1772650004511057200,1.58805712890625,-0.9660650460481643,-0.5879605588983744,-0.48039589091017837
1772650004521101000,1.59810107421875,-0.9632698623716831,-0.5739744113828986,-0.46025955020189285
1772650004531146000,1.60814599609375,-0.8258300614058971,-0.609883490762487,-0.43845779703203586
1772650004541190100,1.618190185546875,-0.6569055733740329,-0.7715139493286609,-0.3830993362950161
1772650004551235000,1.628235107421875,-0.564992428830266,-0.9944388345520943,-0.3208757024962455
1772650004561279000,1.638279052734375,-0.5017991828143596,-1.107297298099473,-0.3053864204088226
1772650004571323100,1.6483232421875,-0.5067646962672472,-1.1681005071736872,-0.36617180156540124
1772650004581368000,1.6583681640625,-0.6145651457726955,-1.0867807989671825,-0.4603120110414922
1772650004591412000,1.668411865234375,-0.8540782507687806,-0.9025904988728463,-0.5742782897002995
1772650004601456000,1.6784560546875,-1.0514712929159402,-0.7297836164496838,-0.6170416919540613
1772650004611501000,1.6885009765625,-1.1598258691728114,-0.5236642470113932,-0.6071813191317021
1772650004621545000,1.698544921875,-1.2082798112183808,-0.3095437958166003,-0.5127233854759484
1772650004631589000,1.708589111328125,-1.2470084780633448,-0.11849880752190947,-0.3420332760110497
1772650004641634000,1.718634033203125,-1.23342185125947,0.07025017879009246,-0.13087262446992098
1772650004651678200,1.72867822265625,-1.1731535527795554,0.22230755704268812,0.1666765081756748
1772650004661723100,1.73872314453125,-1.0659095681130886,0.3238737883336842,0.45306003061924127
1772650004671767000,1.74876708984375,-0.8445096274346112,0.413981929282099,0.6623810091104358
1772650004681811200,1.758811279296875,-0.5051479087203741,0.4474669963851571,0.8182352954279631
1772650004691856100,1.768856201171875,-0.11428279726207255,0.42698739519715306,0.8641535815160721
1772650004701900000,1.778900146484375,0.19822247870862483,0.4099624645076692,0.8349828704807907
1772650004711944200,1.788944091796875,0.32561668647825714,0.3743807173863053,0.7670252596072852
1772650004721989000,1.798989013671875,0.3034668139904737,0.3740576229117811,0.5938712807795032
1772650004732033000,1.809032958984375,0.24445816018283364,0.39529257251173255,0.4310472650472075
1772650004742077200,1.8190771484375,0.23992460840642452,0.4806580489777028,0.31749530281033367
1772650004752122000,1.8291220703125,0.24389351203739643,0.5395969985499978,0.2782993837798014
1772650004762166000,1.839166015625,0.2910100679993629,0.6118162854559719,0.24736622964926064
1772650004772210200,1.849210205078125,0.37652912759184837,0.6679841628797352,0.21327165234573184
1772650004782255000,1.859255126953125,0.4503647636532783,0.7243988546714186,0.2234489456301555
1772650004792299000,1.869299072265625,0.47121641302406786,0.7494780586093663,0.20772349843299015
1772650004802344200,1.87934423828125,0.45636371180713176,0.7243081076480448,0.23258694072840733
1772650004812388000,1.88938818359375,0.5058651170790195,0.6764495011471211,0.32174433855693785
1772650004822432000,1.899431884765625,0.597038841432333,0.6384555783174931,0.4699153403628617
1772650004832477200,1.909477294921875,0.6823743611514568,0.6028029579170048,0.5748075012061744
1772650004842520800,1.919520751953125,0.7296206809729338,0.5724518049255013,0.6339788712948561
1772650004852565000,1.92956494140625,0.7138117019444704,0.5313246986366809,0.6290584390927105
1772650004862610200,1.939610107421875,0.6812275292038917,0.41907238428890703,0.5915516421929001
1772650004872654000,1.949654052734375,0.6612456484049558,0.3101796095021069,0.5213485904801637
1772650004882698000,1.959697998046875,0.6926286286622285,0.2672391701810062,0.3825700151912868
1772650004892743200,1.9697431640625,0.7225736850708723,0.2641753986962139,0.2535200578375719
1772650004902787000,1.979787109375,0.7079682366132736,0.3190222566492855,0.12071652010399847
1772650004912831000,1.9898310546875,0.6190151109188795,0.400250779440999,-0.023956433285982348
1772650004922876200,1.999876220703125,0.43465573786795136,0.5200128848969936,-0.0746125204517506
1772650004932920000,2.009920166015625,0.1628267556786537,0.5617962631374597,-0.0321765006885631
1772650004942965000,2.019965087890625,-0.16631401327252388,0.5887624498657882,0.04878331099725328
1772650004953009200,2.030009033203125,-0.4589309319466352,0.5904676463484764,0.1774417026169598
1772650004963053000,2.040052978515625,-0.6358049176782369,0.5250770364187658,0.25534842404220254
1772650004973098000,2.050097900390625,-0.6978221056520938,0.49775472972914575,0.25330630548903715
1772650004983142100,2.06014208984375,-0.5391840338349342,0.4564307856939733,0.10418163795378059
1772650004993186000,2.07018603515625,-0.31695874824821946,0.31647315668836234,0.0860863198201172
1772650005003231000,2.08023095703125,-0.30664135237336154,0.09669424134045838,0.23406289503248406
1772650005013275100,2.090275146484375,-0.12593874826431273,0.024028818102180955,0.019645324054639784
1772650005023319000,2.100319091796875,0.12629238400757312,-0.0924776465587318,-0.10596030153147876
1772650005033364000,2.110364013671875,0.32751988975107665,-0.37452421751022336,0.02370464591542259
1772650005043408100,2.120408203125,0.47016252005696296,-0.5758906933329999,0.17785390014704316
1772650005053452000,2.1304521484375,0.5946130755901337,-0.6174513687334955,0.17847404133938252
1772650005063497000,2.1404970703125,0.7441618320226668,-0.6155865977749229,0.14535883959517815
1772650005073541000,2.150541015625,0.7756126168191433,-0.6748398739933967,0.1769983975625597
1772650005083586300,2.16058642578125,0.774372845891118,-0.7257295187532902,0.21694767397735268
1772650005093630000,2.1706298828125,0.7124100184530019,-0.8527800276517867,0.2767336688330397
1772650005103674000,2.180674072265625,0.7199877602308988,-0.9729004450261592,0.3815385167190805
1772650005113719300,2.19071923828125,0.8057365369260311,-1.059454546754807,0.4295354722447693
1772650005123763200,2.20076318359375,0.8961468756914138,-1.1331819001361727,0.4646683796200901
1772650005133807000,2.21080712890625,0.9620283378779888,-1.1628301655553281,0.49178719962686296
1772650005143852000,2.22085205078125,0.9415297397285699,-1.1474093090616166,0.517546458250843
1772650005153896200,2.230896240234375,0.7774690583407878,-1.137385927697271,0.5140259194418788
1772650005163940000,2.240940185546875,0.5932622455030679,-1.1040231717996298,0.5149313803816213
1772650005173985000,2.250985107421875,0.45696635387539863,-1.0683671903982759,0.5273877610465512
1772650005184029200,2.261029296875,0.3437643375873565,-1.011483127529174,0.5593351702535525
1772650005194073000,2.271072998046875,0.3057932111114263,-0.9510732286214828,0.6171553083963692
1772650005204118000,2.281117919921875,0.2955915505707264,-0.882261558201909,0.65615804294236
1772650005214162200,2.291162109375,0.33727614461183547,-0.8007105254575609,0.6587399491943419
1772650005224207000,2.30120703125,0.3917243586361408,-0.7581792514592409,0.6715141636367887
1772650005234251000,2.3112509765625,0.4115823207944631,-0.7934114544905722,0.7387048087257891
1772650005244295200,2.321295166015625,0.3601005553603172,-0.8742633990548551,0.7979694100558757
1772650005254340000,2.331340087890625,0.3050637277930975,-0.9454724860049784,0.7743986379195005
1772650005264384000,2.341384033203125,0.25751287206709383,-1.010738738902658,0.8142989788923413
1772650005274428200,2.35142822265625,0.1938221979230642,-1.0607391797378658,0.8148061246968805
1772650005284473000,2.36147314453125,0.1264239014327526,-1.1104304084934293,0.7937232238534837
1772650005294517000,2.37151708984375,0.06411328347027301,-1.1179860845699905,0.755065357222408
1772650005304561200,2.38156103515625,0.04574526760876178,-1.0990545896068216,0.7172344429347663
1772650005314606000,2.391606201171875,-0.040222704795002936,-1.0953095578595995,0.6814316734738648
1772650005324650000,2.40164990234375,-0.17191081036627293,-1.0720067159444093,0.6309063319817185
1772650005334695200,2.411695068359375,-0.3300397636175155,-1.0702018584795296,0.5703459917526692
1772650005344739000,2.421739013671875,-0.5064519770562649,-1.0434629046358168,0.5488476419761776
1772650005354783000,2.431782958984375,-0.6475310113072394,-0.9795210322096943,0.5538880472961812
1772650005364828200,2.441828125,-0.7412883224129676,-0.9458499410152434,0.6354806541599333
1772650005374872300,2.451872314453125,-0.8135843278169631,-0.9688058691889047,0.7924309190206229
1772650005384916000,2.461916015625,-0.7981137869626284,-1.056971936158836,0.9521822127766907
1772650005394961200,2.471961181640625,-0.6881319017648696,-1.159167259133607,1.0334420074895023
1772650005405005300,2.48200537109375,-0.5760720412492751,-1.1416023763485252,1.00665117732808
1772650005415049000,2.492049072265625,-0.5309639025002718,-0.988679759568721,0.9147382519800216
1772650005425094100,2.50209423828125,-0.5834177278369664,-0.8142614964261651,0.8804970327474176
1772650005435138300,2.51213818359375,-0.7846499097555876,-0.6609997108198702,0.8784631888322532
1772650005445182200,2.52218212890625,-1.0611392849713563,-0.5013764273576438,0.8320837880384176
1772650005455227100,2.53222705078125,-1.348615333625674,-0.3170883659772575,0.6962478420726954
1772650005465271000,2.54227099609375,-1.5972335360974073,-0.09077902594730257,0.3968010773785412
1772650005475316000,2.55231591796875,-1.782915682184696,0.11987623335495591,0.0604562222674489
1772650005485360000,2.562360107421875,-1.9139111293166875,0.3127436147712171,-0.23063242739345877
1772650005495404000,2.572404052734375,-1.9785843847572802,0.4542572410471737,-0.35701369526088234
1772650005505449000,2.582448974609375,-1.9586399133592842,0.6317623642891645,-0.4316503089742735
1772650005515493000,2.5924931640625,-1.820799714899063,0.8493984223894775,-0.42132016321569676
1772650005525537000,2.602537109375,-1.5997615932703018,1.0326014650121331,-0.3193473238851875
1772650005535582000,2.61258203125,-1.311114162749052,1.1657903305351733,-0.13825301704481244
1772650005545626000,2.622626220703125,-0.8965560410141944,1.3046543190851807,-0.013045578729733824
1772650005555670000,2.632669921875,-0.3610270225554704,1.4083318434417247,0.10003427248336375
1772650005565715200,2.642715087890625,0.18746493785083293,1.3904155168704688,0.2664679666128009
1772650005575759000,2.652759033203125,0.7326327222704887,1.2924515478551386,0.33289752766881137
1772650005585803000,2.662802978515625,1.1926923659861086,1.143133093047142,0.4325902932381257
1772650005595848200,2.67284814453125,1.6266180360138416,0.958297919178009,0.39160321647450325
1772650005605892000,2.68289208984375,1.9349638542175291,0.7761771188341081,0.2840433342592791
1772650005615937000,2.69293701171875,2.123945041850209,0.606781652289629,0.19116474221684038
1772650005625981200,2.702981201171875,2.2081734771102663,0.43201063018664715,0.08018217381024732
1772650005636025000,2.713025146484375,2.1372382386654616,0.2911183506794274,0.008711038390453904
1772650005646070000,2.723070068359375,1.9556611898094414,0.12873232450559735,-0.024382344247587024
1772650005656114200,2.7331142578125,1.7964894495069978,0.008545856157690285,-0.054992476968839764
1772650005666158000,2.743157958984375,1.6313532478421926,-0.04568623089790344,-0.09769483321774751
1772650005676203000,2.753203125,1.4227917459487913,-0.08330635197907686,-0.11591874616714194
1772650005686247200,2.7632470703125,1.1324784280419349,-0.11164952614903449,-0.11992259324733168
1772650005696291300,2.773291259765625,0.8638029414474964,-0.0542791410677135,-0.18871117505226284
1772650005706336000,2.7833359375,0.6917389863461255,0.08921177663058041,-0.25413017082624134
1772650005716380200,2.793380126953125,0.5339852961480617,0.2024956259831786,-0.22558986664898692
1772650005726424300,2.80342431640625,0.32404724520444866,0.28190029434859754,-0.12821272107828408
1772650005736469000,2.813468994140625,0.045019875943660734,0.3715342419140041,0.009862053322792053
1772650005746513200,2.82351318359375,-0.23939620061814784,0.4424566208772361,0.15229593624882398
1772650005756558000,2.83355810546875,-0.48131110605895516,0.5073636850737036,0.32243703352883457
1772650005766602000,2.84360205078125,-0.6912409736961126,0.5682983385078608,0.47658868064694104
1772650005776646100,2.853646240234375,-0.8613900350868702,0.6334650765538216,0.5978112140443176
1772650005786691000,2.863691162109375,-0.9394552715420722,0.6317857451647519,0.7254070088006556
1772650005796735000,2.87373486328125,-0.8789636857002973,0.5580325266897678,0.8085456760626286
1772650005806779100,2.883779052734375,-0.656043988108635,0.4040153926715255,0.8481139355368912
1772650005816824300,2.89382421875,-0.2625029354393482,0.24030030985102055,0.8211771940987557
1772650005826868000,2.903867919921875,0.1774924098908901,0.07982420895174146,0.7719289598703384
1772650005836912000,2.913912109375,0.5437924044132232,-0.0959530675843358,0.7164063215475529
1772650005846957300,2.923957275390625,0.7833470104634761,-0.31134295419305563,0.6941724971033633
1772650005857001000,2.9340009765625,0.9721440737009048,-0.49014469311684367,0.6422794474545865
1772650005867045000,2.944045166015625,1.1482733785450459,-0.6564651361301541,0.5988432239731774
1772650005877090300,2.95409033203125,1.2624275809913872,-0.7931415515080094,0.4798269684484228
1772650005887134000,2.964134033203125,1.2745008806228637,-0.9061987524978816,0.3763648769408464
1772650005897179100,2.97417919921875,1.1065139657020568,-0.9804175426580011,0.23207652525454758
1772650005907223300,2.984223388671875,0.8863549649953841,-0.988196652226895,0.10357497729752212
1772650005917267200,2.99426708984375,0.6124281337440014,-0.9655281626924872,-0.02995320318248123
1772650005927312100,3.00431201171875,0.3944827174335718,-0.9249733033336699,-0.09032251435145736
1772650005937356000,3.01435595703125,0.2533575059533119,-0.8734614350222051,-0.12653021135143935
1772650005947400200,3.024400146484375,0.13623743943870067,-0.8440011664558201,-0.13117171701435
1772650005957445000,3.034445068359375,0.0862520500421524,-0.8198276791859418,-0.14317743130233138
1772650005967489000,3.044489013671875,0.058062312868237494,-0.7701663341119885,-0.1310724578909576
1772650005977533200,3.054533203125,-0.011976268997788428,-0.7545848802290857,-0.05684150236900896
1772650005987578000,3.064578125,-0.0930401027470827,-0.7349423143871128,0.015503749004192649
1772650005997622000,3.0746220703125,-0.13602934964597224,-0.709675625053048,0.014350121989659964
1772650006007666000,3.084666015625,-0.13584171811938284,-0.7163733691260218,0.025144195465557274
1772650006017710800,3.0947109375,-0.12983867831230164,-0.7388007433809339,0.020045776348002253
1772650006027755000,3.104755126953125,-0.1375876850038767,-0.7871907533448189,-0.10193798721283674
1772650006037800200,3.11480029296875,-0.17843232108950613,-0.7847856649644672,-0.2190973993571475
1772650006047843800,3.12484375,-0.18909809201061725,-0.7826746641598641,-0.36260625457093115
1772650006057888000,3.134887939453125,-0.16455577142834663,-0.7700609740413725,-0.500206835588999
1772650006067933200,3.14493310546875,-0.16818740592896939,-0.7293138800460844,-0.5861567608794197
1772650006077976800,3.154976806640625,-0.22683424068689345,-0.7301262924075126,-0.6192970696654171
1772650006088021000,3.16502099609375,-0.32038696913123127,-0.7495861220937222,-0.5972602290980518
1772650006098066200,3.175066162109375,-0.4549176046520471,-0.8090884046372026,-0.5362199233323335
1772650006108109800,3.18510986328125,-0.6104805068075656,-0.9313033831380307,-0.38140316336899993
1772650006118154000,3.195154052734375,-0.704438893443346,-1.0708839955247937,-0.24975210187248884
1772650006128199200,3.20519921875,-0.7502344299346209,-1.1216014985881746,-0.07931775726694613
1772650006138243000,3.2152431640625,-0.8648544963270425,-1.1388912176936865,0.07195402356591075
1772650006148288000,3.2252880859375,-1.067206622186303,-1.1719278103768824,0.17725516706891356
1772650006158332000,3.235331787109375,-1.2926976315706968,-1.1003927063427865,0.26822734096813944
1772650006168376000,3.2453759765625,-1.5039502722442148,-0.9539331480972468,0.2737462870527059
1772650006178421000,3.2554208984375,-1.679201040688157,-0.6935730699054896,0.25933172152470796
1772650006188465000,3.26546484375,-1.8000234688520431,-0.3503625668086111,0.25766963353138417
1772650006198509000,3.275509033203125,-1.7850187919437883,0.00196457807123661,0.3305848302796483
1772650006208554000,3.285553955078125,-1.6615455570101736,0.3023980157151818,0.4626193746684119
1772650006218598000,3.295597900390625,-1.4817799414902924,0.5748674877651035,0.5898015471225604
1772650006228642000,3.30564208984375,-1.307020171433687,0.8589157539278268,0.7161421907186508
1772650006238687000,3.31568701171875,-1.1594652191668748,1.0900023913621901,0.8708725875727832
1772650006248731000,3.32573095703125,-1.0298685329169035,1.259380760641396,1.0621100296996533
1772650006258775000,3.335775146484375,-0.9210732271552086,1.3974183813698589,1.2064566874444485
1772650006268820000,3.345820068359375,-0.7020335858672857,1.4858441221892833,1.3207862464576958
1772650006278864000,3.35586376953125,-0.41461774296760556,1.566168535748124,1.3614388671025632
1772650006288909000,3.365908935546875,-0.056716743478178976,1.5878516675069927,1.3834684742115437
1772650006298953000,3.375952880859375,0.37619828820228574,1.564502940623462,1.3272041506759822
1772650006308996900,3.385996826171875,0.8007803758233785,1.5198796627819537,1.2269359963715076
1772650006319042000,3.3960419921875,1.1057184314101933,1.4269117484882472,1.2138508893489837
1772650006329086000,3.4060859375,1.2360749961167574,1.269499565204233,1.2423667897373438
1772650006339129900,3.4161298828125,1.3517986398369073,1.1312291586332022,1.201935118366778
1772650006349175000,3.426175048828125,1.3521148661792277,1.0205530075609683,1.1609522428542376
1772650006359219200,3.43621923828125,1.3166501695662736,0.8746233184084296,1.1472640553720295
1772650006369262800,3.446262939453125,1.2644412589013576,0.7336956753268837,1.175321617533639
1772650006379308000,3.45630810546875,1.1951608019262552,0.6132360891260207,1.2625988459050654
1772650006389352200,3.466352294921875,1.0538912135392426,0.5558934688344598,1.2772580703765153
1772650006399395800,3.476395751953125,0.9398071537196636,0.5306074902780353,1.293048052443564
1772650006409441000,3.48644091796875,0.859558728006482,0.5194356695309281,1.3117242574714123
1772650006419485200,3.496485107421875,0.8164818028241395,0.5302465480111539,1.2535273584380746
1772650006429529900,3.50652978515625,0.8138818494588136,0.508132915880531,1.1978054712161421
1772650006439574000,3.516573974609375,0.7810545156121254,0.44819794100821014,1.1169801954630763
1772650006449618200,3.5266181640625,0.7502168942779303,0.48030046771168705,0.9918721989344805
1772650006459662800,3.536662841796875,0.649277562713623,0.42302448291555045,0.9397226903066038
1772650006469707000,3.54670703125,0.47207741376757617,0.3295437967941165,0.9588816373500972
1772650006479751000,3.5567509765625,0.27653730601072307,0.27269100584611294,0.9724491941273212
1772650006489795800,3.5667958984375,0.14243512503504752,0.23797376659959554,0.9351225761000066
1772650006499840000,3.576840087890625,-0.011464812344312666,0.18487755170613526,0.9185491885703057
1772650006509884000,3.5868837890625,-0.08298048102557659,0.08084639160633086,0.9143097243696451
1772650006519928800,3.5969287109375,-0.04555412895083427,-0.02645896785855293,0.8858375169925391
1772650006529973000,3.606972900390625,0.07679214777946472,-0.10310220868662,0.8119899712976067
1772650006540017000,3.617016845703125,0.2243354096084833,-0.23948870120719074,0.8002876238703728
1772650006550061800,3.627061767578125,0.3896118965268135,-0.36989641157910225,0.7890194300767034
1772650006560106000,3.63710595703125,0.46688452129960056,-0.4783316518567502,0.7543545786045491
1772650006570151200,3.647151123046875,0.4385942463606596,-0.630330504855141,0.7836972852058708
1772650006580195000,3.657195068359375,0.35174013877213,-0.7098312540061772,0.7930328304365277
1772650006590239000,3.667239013671875,0.32139936104416844,-0.747424487080425,0.7474974061861633
1772650006600284200,3.6772841796875,0.3155792765885591,-0.7645758936937898,0.7221273295428603
1772650006610328000,3.687328125,0.2546779409021139,-0.7647488391079008,0.7529567675705998
1772650006620372000,3.6973720703125,0.10943009653389453,-0.7666185785025358,0.7458375832151621
1772650006630417000,3.7074169921875,-0.07704349219202995,-0.7640607107132673,0.6655700144100933
1772650006640461000,3.7174609375,-0.23454233084619044,-0.7484354907538742,0.5747082786154002
1772650006650505000,3.7275048828125,-0.2953770310372114,-0.7416209153681993,0.4771051788017153
1772650006660550000,3.7375498046875,-0.25151801556646824,-0.7358147863727063,0.361668023872748
1772650006670594000,3.747593994140625,-0.19117665185034274,-0.6885504925031215,0.33379319786690176
1772650006680638000,3.757637939453125,-0.130846978572011,-0.60995246434547,0.39415407000109554
1772650006690683000,3.767682861328125,-0.09661562314629554,-0.5554971629932522,0.5243280446823686
1772650006700727000,3.77772705078125,-0.10980886671841143,-0.5179706384796648,0.6412916054610163
1772650006710772000,3.78777197265625,-0.08044599411189556,-0.4735918369185179,0.7386481101024895
1772650006720815900,3.79781591796875,-0.02570318105518818,-0.44649274452552196,0.7748423630990088
1772650006730860000,3.807860107421875,-0.0033656770408153533,-0.4470283127069473,0.8058063872918486
1772650006740905000,3.817905029296875,0.014707739788293837,-0.4956832572173327,0.781761056446284
1772650006750948900,3.827948974609375,-0.009879004457592964,-0.5537886785749345,0.6812200765497982
1772650006760993000,3.837992919921875,-0.03159223909378051,-0.5899770863525569,0.5117631621416658
1772650006771038000,3.848037841796875,-0.030618425625562665,-0.59675293716304,0.3252941034603864
1772650006781081900,3.858081787109375,-0.0441805025100708,-0.543552531242743,0.30073914259225126
1772650006791126000,3.8681259765625,-0.10207388855218887,-0.4610880369152873,0.3829635445535183
1772650006801171000,3.8781708984375,-0.28869419227242465,-0.40506782433390615,0.5797718456152826
1772650006811214800,3.88821484375,-0.5410813918888568,-0.4525447380408644,0.8658486949961632
1772650006821260000,3.898260009765625,-0.7002671607166528,-0.5777167397163808,1.197612798188254
1772650006831304200,3.90830419921875,-0.694254184037447,-0.681241849990189,1.3112727143116294
1772650006841347800,3.918347900390625,-0.6111638128966093,-0.6878307268612086,1.218789222534001
1772650006851393000,3.92839306640625,-0.6441442914783955,-0.7576808004178106,1.0536697528082877
1772650006861437200,3.938437255859375,-0.6756330701977015,-0.7845718760833144,0.7662311135549098
1772650006871480800,3.948480712890625,-0.780213973134756,-0.6981627357833087,0.3908993790540844
1772650006881526000,3.958526123046875,-1.0390350051909685,-0.5801694666307419,-0.048810281202569604
1772650006891570200,3.968570068359375,-1.493153568419814,-0.4143411179833114,-0.39426995146572585
1772650006901613800,3.97861376953125,-2.0093600467711688,-0.24166136907115576,-0.5291099451966583
1772650006911659000,3.988658935546875,-2.4358014985233543,-0.05624510737843811,-0.4532088279727846
1772650006921703200,3.998703125,-2.6122920378953216,0.2445022185202688,-0.3162298494517803
1772650006931747000,4.0087470703125,-2.469168930596113,0.5821968808051199,-0.24348734238930045
1772650006941792000,4.0187919921875,-2.176434523022175,0.8657797944784164,-0.145025214593485
1772650006951836000,4.0288359375,-1.768141306900978,1.1156216204609721,-0.0260807091306895
1772650006961880800,4.038880859375,-1.3521978682875633,1.3679416731253267,0.18043745036683975
1772650006971925000,4.048925048828125,-1.0179413637578487,1.5210897692240775,0.39869836236722767
1772650006981969000,4.058968994140625,-0.7675210803002118,1.5963311804302036,0.5546398155115545
1772650006992013800,4.069013916015625,-0.5092658654332161,1.6610883147619664,0.6191097303997725
1772650007002058000,4.07905810546875,-0.2634872703015804,1.705371985385567,0.637128494432196
1772650007012102100,4.08910205078125,-0.10555120927393435,1.6312208536341786,0.7072128882013261
1772650007022147000,4.09914697265625,0.021619126611948012,1.5242622617803514,0.7661718576483428
1772650007032191000,4.10919091796875,0.17426994071304797,1.4703373409777878,0.7216651188585906
1772650007042235100,4.119235107421875,0.4117307893544435,1.461793384516239,0.591903378240019
1772650007052280000,4.129280029296875,0.6914706907987594,1.4471958271041512,0.4872689184848219
1772650007062324000,4.139323974609375,0.955694458681345,1.388299109238386,0.3845272136736661
1772650007072368000,4.1493681640625,1.1583359228760004,1.290157007177174,0.3405670028507709
1772650007082413000,4.1594130859375,1.2764981919199228,1.2013280923843384,0.3262194016117602
1772650007092457000,4.16945703125,1.2248819864511489,1.123146682203561,0.29415150783024724
1772650007102502100,4.179502197265625,1.0504290903866291,1.0917759769059716,0.3281725084409117
1772650007112546000,4.189546142578125,0.8624994576334952,1.0953649413086473,0.39456140869297085
1772650007122590000,4.19958984375,0.7193295885831117,1.0761905775003135,0.41632359703741967
1772650007132635100,4.20963525390625,0.6019727907031774,1.0568993093140422,0.41229119971618056
1772650007142679000,4.219678955078125,0.4953010529667139,1.0434211113207041,0.37629020426943893
1772650007152723200,4.22972314453125,0.46567806811928747,0.9765976921088994,0.3949216933727264
1772650007162768100,4.23976806640625,0.5723696796000004,0.8523200089246035,0.443873721133545
1772650007172812000,4.24981201171875,0.8428916708439588,0.7416687000326811,0.4656352518908679
1772650007182856200,4.259856201171875,1.1217571275413036,0.6168596864506601,0.5215408981818705
1772650007192901000,4.269901123046875,1.3316168525516987,0.47687429265528913,0.5258127302821726
1772650007202945000,4.279945068359375,1.4582394914269448,0.3331035351023078,0.5393854746911675
1772650007212989200,4.2899892578125,1.4754109909802675,0.1665714951649308,0.5269193032845855
1772650007223034000,4.3000341796875,1.4062129515916109,0.0343127500988543,0.5516656950715929
1772650007233078000,4.310078125,1.2354454660415648,-0.043039077389985324,0.5519784873478114
1772650007243123000,4.320123046875,1.1297270835071802,-0.11698723391517996,0.48417000262141224
1772650007253167000,4.3301669921875,1.1092191330075263,-0.202622613363713,0.36816768809035416
1772650007263211000,4.3402109375,1.112011394074559,-0.27171090876758097,0.2871227051720023
1772650007273256000,4.350255859375,1.0558891093581915,-0.4013182625420391,0.23893362460769713
1772650007283300000,4.360300048828125,0.9133107764601707,-0.4995227623149752,0.249147048651427
1772650007293344000,4.370343994140625,0.6754916159003973,-0.5953634555660188,0.25314108672365543
1772650007303389200,4.38038916015625,0.5333960980832576,-0.6510143233783543,0.211478193057701
1772650007313433000,4.39043310546875,0.49515784510374067,-0.7237779462940991,0.1861901686746627
1772650007323477000,4.40047705078125,0.480679237896204,-0.8008961111575364,0.17245850737690924
1772650007333522200,4.410522216796875,0.4887935707688331,-0.8804732134804129,0.13305384096652267
1772650007343566000,4.420566162109375,0.4587251802414655,-0.959629460042715,0.06842855285350233
1772650007353611000,4.430611083984375,0.32329613457620143,-1.052095416163653,0.030052718034200367
1772650007363655200,4.4406552734375,0.09815876093506812,-1.1435318100411445,-0.041022440337948496
1772650007373699000,4.450698974609375,-0.16419395237863063,-1.188101092673093,-0.09398114645686
1772650007383744000,4.460743896484375,-0.44573359672129154,-1.1994073534548282,-0.09786642692498862
1772650007393788200,4.4707880859375,-0.6252718332260847,-1.1629579566534607,-0.07762520107012241
1772650007403832000,4.48083203125,-0.744094612005353,-1.1282255929030478,0.017419811758585275
1772650007413877000,4.490876953125,-0.7228805590629577,-1.0497252529662102,0.12897924847137182
1772650007423921200,4.500921142578125,-0.6262333717346191,-0.9802014887545257,0.2225510469423607
1772650007433965000,4.510965087890625,-0.5533890847980976,-0.9061203534994274,0.27203557414468377
1772650007444010000,4.521010009765625,-0.52029930062294,-0.846250698948279,0.3360744772044942
1772650007454054100,4.53105419921875,-0.41043490432500834,-0.8218771590616554,0.41624658627845346
1772650007464099000,4.54109912109375,-0.27296529274284836,-0.8422630175516009,0.447216053831391
1772650007474143000,4.55114306640625,-0.14103928676247596,-0.841286062278226,0.3658740607278421
1772650007484187100,4.561187255859375,-0.005383446604013443,-0.8025339414924383,0.21149130826760082
1772650007494232000,4.571232177734375,0.061276598739624016,-0.7860233170006423,0.09346055664885788
1772650007504276000,4.58127587890625,0.06658288845419884,-0.7344190211653709,0.003832015910930931
1772650007514320100,4.591320068359375,0.03576397182047367,-0.6671275460503995,-0.018623561525158584
1772650007524365000,4.601364990234375,-0.033572599256038664,-0.6772995421051978,-0.000060004825238138434
1772650007534409000,4.611408935546875,-0.09552607434391974,-0.8013058610022068,0.16192980683892966
1772650007544453000,4.621453125,-0.09939794734120368,-0.9640154200419783,0.33874227164164183
1772650007554498000,4.631498046875,-0.0465507387727499,-1.0456085383623839,0.4075282230980694
1772650007564542000,4.6415419921875,-0.08297638937234877,-1.0036157551549374,0.39047311646603045
1772650007574586000,4.651586181640625,-0.3113379857569933,-0.848178671336174,0.19000857618534936
1772650007584631000,4.661631103515625,-0.6125508833408355,-0.6623685149550438,-0.02310452459780499
1772650007594675000,4.671675048828125,-0.9832809692651033,-0.4631665236897766,-0.22942191909253595
1772650007604720000,4.68172021484375,-1.3341267895460127,-0.21478870584517717,-0.4038629055235535
1772650007614764000,4.691763916015625,-1.6583488067954777,0.03319675168097019,-0.46946861950866875
1772650007624808200,4.70180810546875,-1.969761611354351,0.20645181626304984,-0.3787699653211981
1772650007634853000,4.71185302734375,-2.1593384267926217,0.3759507431820035,-0.22402332971831782
1772650007644897000,4.72189697265625,-2.159377005237341,0.5749738707490265,-0.0834206990737468
1772650007654941200,4.731941162109375,-2.0868992135256526,0.7222232641980052,0.11240396124552934
1772650007664986000,4.741986083984375,-1.9995874252974986,0.8381823241092264,0.29355788931865245
1772650007675030000,4.752030029296875,-1.8693454268813132,0.9542382685236632,0.4149926406946033
1772650007685074200,4.76207421875,-1.7190291932076214,1.0444057384438812,0.5114067133868113
1772650007695119000,4.772119140625,-1.5600953533142805,1.1036140064768492,0.5347041484745219
1772650007705163000,4.7821630859375,-1.310808457800746,1.173872222442925,0.4503099647261202
1772650007715207200,4.792207275390625,-1.0028758965730666,1.1826001571692526,0.432936951251328
1772650007725251000,4.8022509765625,-0.646222851318121,1.085942594577372,0.46018221064936365
1772650007735296000,4.8122958984375,-0.2518389180839062,0.9717438223369419,0.46025366845037785
1772650007745340200,4.822340087890625,0.1791834317177534,0.9083702513180673,0.4366478250006213
1772650007755384000,4.832384033203125,0.5663432589173316,0.8200478247426449,0.45094680132493375
1772650007765429000,4.842428955078125,0.8870710043102502,0.7208622049778699,0.5278080688178539
1772650007775473200,4.85247314453125,1.104426638033986,0.6228324772499502,0.6022320992264897
1772650007785517000,4.86251708984375,1.2780483439713717,0.5093105813577771,0.6380966818772256
1772650007795562000,4.87256201171875,1.357217157754302,0.4319980629660189,0.6942066185686737
1772650007805606100,4.882606201171875,1.3910001848906277,0.3514611757002771,0.723434101292491
1772650007815651000,4.892651123046875,1.3471966989994049,0.3140992671638727,0.6750079971019178
1772650007825695000,4.902695068359375,1.2902666050314902,0.2985769961223006,0.5629204813944175
1772650007835739100,4.9127392578125,1.2515525512337684,0.29779885135665535,0.4849200903363526
1772650007845784000,4.9227841796875,1.2322241659075022,0.2988246872730553,0.4254837491685524
1772650007855828000,4.932827880859375,1.1241332090228795,0.34495793128609653,0.4294496936574578
1772650007865872100,4.9428720703125,0.9635849196702241,0.38901144641563296,0.3844804519224912
1772650007875917000,4.9529169921875,0.8290981232911347,0.4414190945230424,0.35477176155298945
1772650007885961000,4.9629609375,0.685647099211812,0.4753593580476939,0.4212979148512706
1772650007896005000,4.973005126953125,0.5215338108539581,0.4569540789157152,0.5160816463952884
1772650007906050000,4.983050048828125,0.38347558572888374,0.46580271741226315,0.593421710381098
1772650007916094000,4.993093994140625,0.3116945441097021,0.48250031584352254,0.6191138220530003
1772650007926138000,5.00313818359375,0.3051251025915146,0.4780879062287509,0.6176990598842501
1772650007936183000,5.01318310546875,0.33051907156705856,0.40091713439524174,0.6788957252554595
1772650007946227200,5.023227294921875,0.3301864786118269,0.28338191120848055,0.6860233851782978
1772650007956272000,5.033272216796875,0.3173492088705301,0.18151494340524077,0.6573508329235017
1772650007966316000,5.04331591796875,0.3172983554661274,0.06812193458974361,0.6016810412149876
1772650007976360200,5.053360107421875,0.3097475016951561,-0.04634922485128045,0.4997908021340146
1772650007986405000,5.063405029296875,0.22959201496243475,-0.20081834042072294,0.4995021944509819
1772650007996449000,5.073448974609375,0.20152502738535402,-0.35459567433372136,0.5347259584475308
1772650008006493400,5.083493408203125,0.1872662004083395,-0.4528869756072759,0.5667536298165098
1772650008016538000,5.0935380859375,0.13125205224156378,-0.4975609607227146,0.5773462624361738
1772650008026582300,5.103582275390625,0.03942483241558075,-0.46334363382235166,0.5738641924740746
1772650008036626400,5.11362646484375,-0.04634498706758022,-0.4473072757788002,0.5964432866919785
1772650008046671000,5.123671142578125,-0.0992184991210699,-0.4824968087121844,0.5647640269018709
1772650008056716300,5.13371630859375,-0.07845102090239524,-0.48430225069895383,0.5416502047527582
1772650008066760200,5.14376025390625,-0.012362053444981574,-0.5151712900847196,0.5210680199731141
1772650008076804000,5.15380419921875,0.06332710152864456,-0.5709023835264146,0.5050852187477052
1772650008086849300,5.163849365234375,0.20924422346055507,-0.5447852148428559,0.41699744117837395
1772650008096893200,5.17389306640625,0.3532312541127205,-0.5487384825132787,0.3267550428584218
1772650008106937000,5.18393701171875,0.5099497560441494,-0.5600199011147022,0.27267862128857523
1772650008116982300,5.193982177734375,0.7396762110412121,-0.6220078629940747,0.23921213102182373
1772650008127026400,5.2040263671875,0.9563310030192136,-0.6985267467901111,0.20795531616117804
1772650008137071000,5.214071044921875,1.0574883612483739,-0.7136667405158281,0.17177711925031616
1772650008147115300,5.224115234375,0.9505202709138393,-0.7610634285934269,0.13109725440549663
1772650008157159400,5.234159423828125,0.6859317613720893,-0.7586755105435847,0.023004731184872798
1772650008167204000,5.2442041015625,0.43760523532330986,-0.6790050308488309,-0.15149554311875252
1772650008177248300,5.254248291015625,0.2903922283619642,-0.6097432785741984,-0.3191042358443141
1772650008187292400,5.26429248046875,0.2533224346399307,-0.543782613671571,-0.4378166130516678
1772650008197337000,5.274337158203125,0.21173370218873022,-0.42472324965745206,-0.5202679556366056
1772650008207381200,5.28438134765625,0.115675128403306,-0.2537334996588528,-0.5537896284230053
1772650008217425400,5.29442529296875,-0.03553951541483402,-0.02272138876542449,-0.5076381911661476
1772650008227470000,5.304469970703125,-0.1638993533462286,0.08738090794160962,-0.1797539250820875
1772650008237514200,5.31451416015625,-0.19681436547636985,-0.03328910613954067,0.3304973346592858
1772650008247559400,5.324559326171875,-0.049635260784626004,-0.09694237088263034,0.618567513281852
1772650008257603000,5.33460302734375,0.18794015414714813,-0.014051175575703382,0.5836042633850127
1772650008267647200,5.344647216796875,0.238970668682456,0.030282763930410145,0.4771703895250335
1772650008277692400,5.3546923828125,0.18412147264182566,-0.03248670371547341,0.3582492284052074
1772650008287736000,5.364736083984375,-0.10006547133922576,-0.09304799379259347,0.11907544749923982
1772650008297780200,5.3747802734375,-0.597635638281703,-0.018636895930767058,-0.21394434570921583
1772650008307825400,5.384825439453125,-1.0895891343861817,0.18633549542948602,-0.47154995582737025
1772650008317869300,5.394869384765625,-1.5341607015907763,0.3952468336738646,-0.5128210371641442
1772650008327913200,5.404913330078125,-1.92104931063354,0.6153595110207796,-0.3712379258485511
1772650008337958400,5.41495849609375,-2.1905741075336933,0.9185119983650744,-0.3159681663082912
1772650008348002300,5.425002197265625,-2.327344630935788,1.2237088510185479,-0.32016978271659463
1772650008358047200,5.435047119140625,-2.4475328528493643,1.4418760933861137,-0.2967811256814748
1772650008368091400,5.44509130859375,-2.478363459920883,1.5799851719155906,-0.24435269051436334
1772650008378135300,5.45513525390625,-2.2714181610524653,1.625563558524847,-0.2461940075321123
1772650008388180200,5.46518017578125,-1.6914684015870094,1.5662698041655123,-0.3260334140529856
1772650008398224100,5.47522412109375,-1.399664552861452,1.3397580734312533,0.08465568422880024
1772650008408268300,5.485268310546875,-1.1435691463768483,1.1956960778467356,0.05229471665169112
1772650008418313200,5.495313232421875,-0.7064432190030813,1.2439318470969796,-0.26732449211059134
1772650008428357000,5.505357177734375,-0.2785410470485687,0.9514110822737216,-0.28902086694352325
1772650008438401300,5.5154013671875,0.1310954003751278,0.647269876153022,-0.2670039001204073
1772650008448446200,5.5254462890625,0.540655859953165,0.5381916617967188,-0.40175457160007205
1772650008458490000,5.535489990234375,0.8219038278728723,0.39317937975004313,-0.4891039153596386
1772650008468534300,5.5455341796875,0.9522007713466882,0.20476970839500427,-0.5493879593979567
1772650008478579200,5.5555791015625,1.0354314277410506,0.05275339280515909,-0.6325380248367786
1772650008488623000,5.565623046875,1.0844885963767765,-0.04203296908736229,-0.7280555505480617
1772650008498668300,5.575668212890625,1.0695020396471022,-0.08950067657455801,-0.7917401602774858
1772650008508712200,5.585712158203125,0.9945762702614068,-0.10132058596685528,-0.7944253077082335
1772650008518756000,5.595756103515625,0.9040349985927343,-0.0374228449434042,-0.7767504617426544
1772650008528801300,5.60580126953125,0.7556061861008405,0.08081658098995685,-0.7374912682175636
1772650008538845200,5.61584521484375,0.5488146164894103,0.23274989447146652,-0.6622938422836363
1772650008548889000,5.62588916015625,0.3657674950808286,0.3794226570762694,-0.6025199397245422
1772650008558934300,5.635934326171875,0.2467524085998535,0.5229778721824289,-0.4623540017304942
1772650008568978400,5.645978515625,0.17288170122504234,0.5475878511734307,-0.27826873291321097
1772650008579022000,5.65602197265625,0.17536942638754843,0.5540978175893425,-0.13707995467744766
1772650008589067300,5.6660673828125,0.27654373575150965,0.5638919202424586,0.03659132602270693
1772650008599111400,5.676111328125,0.549458759611845,0.50329512046054,0.1931461618250236
1772650008609156000,5.686156005859375,0.9399380866229533,0.4160878155201673,0.2844433664275333
1772650008619200300,5.6962001953125,1.2742869456112385,0.26037995193600655,0.3256790476573631
1772650008629244400,5.706244384765625,1.4584779763579367,0.01637596526145935,0.36570699706524606
1772650008639289000,5.7162890625,1.5645669457703828,-0.19912191176638006,0.28872297997549173
1772650008649333200,5.726333251953125,1.5980220561265945,-0.4129199991390109,0.2033636409893632
1772650008659377400,5.73637744140625,1.5444342583239077,-0.615146891183406,0.1277723751659505
1772650008669422000,5.746422119140625,1.4991425797015427,-0.752537446179986,0.03076691245185211
1772650008679466200,5.75646630859375,1.4073434169262646,-0.8549512342110276,-0.024363986606989053
1772650008689510400,5.766510498046875,1.280759356495738,-0.9425551372535527,-0.07382869486398995
1772650008699555000,5.77655517578125,1.0750479833364486,-1.0093353018455207,-0.12559446487128734
1772650008709599200,5.78659912109375,0.8945990617275238,-1.005134927546233,-0.21144664714196695
1772650008719644400,5.79664453125,0.7358505152732133,-0.9705619190759956,-0.29397163948500526
1772650008729688000,5.80668798828125,0.5992220306903123,-0.9596841128394007,-0.33609307230710983
1772650008739732200,5.816732177734375,0.5529419255524873,-0.9362671430252492,-0.3664563541278243
1772650008749777400,5.82677734375,0.5234563033491373,-0.8950069118760525,-0.4060639957644045
1772650008759821000,5.836821044921875,0.4852490300297737,-0.8367964227087795,-0.4193760434105992
1772650008769865200,5.846865234375,0.41018239086866376,-0.7865759093821049,-0.4173629500225186
1772650008779910400,5.856910400390625,0.37103053017556664,-0.7743196543991565,-0.3723695236943662
1772650008789954300,5.866954345703125,0.4029571157902479,-0.7325158178925514,-0.31661212676763534
1772650008799998200,5.876998291015625,0.4764806171625852,-0.7246478609964251,-0.1761500371049158
1772650008810043400,5.88704345703125,0.5737701940476894,-0.7381333655133843,-0.10665247591356747
1772650008820087300,5.89708740234375,0.6010790567338467,-0.72401394700706,-0.0720885457989294
1772650008830132200,5.90713232421875,0.5837146649569273,-0.7252433426715433,-0.01955225721001625
1772650008840176400,5.91717626953125,0.5537216777533293,-0.6889088774867356,0.014674728001258335
1772650008850220300,5.92722021484375,0.4263151950240135,-0.590060965243727,0.010184376045758836
1772650008860265200,5.93726513671875,0.2237076330989599,-0.4224085429742932,-0.03327628775716293
1772650008870309000,5.94730908203125,-0.08278232810497284,-0.23936741291508076,-0.18377278706831857
1772650008880353300,5.957353271484375,-0.4146422928869724,-0.11411971565485,-0.3150061528757214
1772650008890398200,5.967398193359375,-0.8255477373331784,-0.021572364860773085,-0.3821436795379966
1772650008900442000,5.977442138671875,-1.2223568518877028,0.0592673778090626,-0.26164547835979607
1772650008910486300,5.987486328125,-1.5244108764708042,-0.03144830057844519,0.03861826527304947
1772650008920531200,5.99753125,-1.64404029545784,-0.24969284596592187,0.42398225856442
1772650008930575000,6.0075751953125,-1.5907055956333875,-0.4051680698379874,0.6064782123636454
1772650008940620300,6.017620361328125,-1.4617512989401817,-0.46338995718210935,0.5948577710662036
1772650008950664200,6.027664306640625,-1.3929554106116293,-0.5253473777927458,0.6105691349390894
1772650008960708000,6.0377080078125,-1.3871341571122406,-0.6460246983975172,0.5760075977109372
1772650008970753300,6.047753173828125,-1.3555366573214531,-0.7126216153770685,0.4360379129413515
1772650008980797200,6.057797119140625,-1.423257025372982,-0.646712242270261,0.19152058818349613
1772650008990841000,6.067841064453125,-1.4820669417381285,-0.5355478692896664,-0.255686862216331
1772650009000886300,6.07788623046875,-1.572563789743185,-0.40590237546190616,-0.7016595649231225
1772650009010930200,6.08793017578125,-1.6700462588518856,-0.21493578616566955,-1.0182324556589126
1772650009020974000,6.09797412109375,-1.824509090811014,0.06591551058664917,-1.1066118731185792
1772650009031019300,6.108019287109375,-2.066064515289664,0.4294103114951402,-0.958697878281027
1772650009041063400,6.1180634765625,-2.220860524725914,0.8682173968888819,-0.7511429961469024
1772650009051107000,6.128107177734375,-2.1851707871854305,1.2841639042422175,-0.49836533590815957
1772650009061152300,6.13815234375,-2.0205933884471654,1.5443946569658815,-0.14459902507066727
1772650009071196400,6.148196533203125,-1.6060767677664756,1.7114413684271275,0.259259313875623
1772650009081241000,6.158240966796875,-0.9458680611938237,1.797900631479174,0.5607509188029914
1772650009091285200,6.16828515625,-0.16016951916813849,1.781651361337304,0.6955949311219155
1772650009101329400,6.178329345703125,0.6167635325998068,1.6017539361312985,0.5982283800104633
1772650009111374000,6.1883740234375,1.1925579259514807,1.2817594734489917,0.3691324780019
1772650009121418200,6.198418212890625,1.6088608455270528,1.0040236053034663,0.19076717600030824
1772650009131462400,6.20846240234375,1.8855700009733438,0.7710130140691995,0.09416152625875547
1772650009141507000,6.218507080078125,1.951519852221012,0.5198837055593729,0.16145941284820436
1772650009151551200,6.22855126953125,1.854210986113548,0.296766293438524,0.25755398952877145
1772650009161595400,6.238595458984375,1.6874264327198265,0.10686667578667401,0.3918677126295864
1772650009171640000,6.24864013671875,1.4888590860962867,-0.03159253135472536,0.5022227419886738
1772650009181684200,6.258684326171875,1.3403840963751077,-0.05046878899931907,0.5857908501764759
1772650009191729400,6.2687294921875,1.2143220139920712,0.0068171326689422124,0.622685469994694
1772650009201773000,6.27877294921875,1.0849082830935717,0.1466036428913474,0.5557658603994176
1772650009211817200,6.288817138671875,0.861765298140049,0.28572029102817176,0.4031507751988247
1772650009221862400,6.2988623046875,0.6111217273205518,0.4275330463811755,0.15426197562478483
1772650009231906000,6.308906005859375,0.29559973387718197,0.5541711750864983,-0.11809119483539834
1772650009241950200,6.3189501953125,-0.05240414097607136,0.6392490667827427,-0.3169921755937859
1772650009251995400,6.328995361328125,-0.4645435111314058,0.6275904123667627,-0.3593942337218672
1772650009262039300,6.339039306640625,-0.8865209692120551,0.5894290970809757,-0.3207624513801187
1772650009272083200,6.349083251953125,-1.2348948464214802,0.5639408008854836,-0.2281356969405897
1772650009282128400,6.35912841796875,-1.4218465740531683,0.5483516020875424,-0.1391920423274394
1772650009292172300,6.36917236328125,-1.313663847231865,0.6225186620604246,-0.09368192604826762
1772650009302217200,6.37921728515625,-0.9842278947263956,0.6532511425197124,-0.007830066862929379
1772650009312261400,6.389261474609375,-0.4979185419887304,0.5997103987291454,0.06942589789435732
1772650009322305300,6.39930517578125,0.031039865908026692,0.42697395119369025,0.14284433602360078
1772650009332350200,6.40935009765625,0.464843370860815,0.19281557816378772,0.22751597587335853
1772650009342394000,6.41939404296875,0.7920487878352404,-0.0018115794666111469,0.2289131658528
1772650009352438300,6.429438232421875,1.0473609349876642,-0.17278671641796825,0.22978220377229153
1772650009362483200,6.439483154296875,1.2368062330007552,-0.32920426264144476,0.2317072900833562
1772650009372527000,6.449527099609375,1.3374924665868282,-0.5032418559033424,0.2484861005246639
1772650009382571300,6.4595712890625,1.40591601447165,-0.6403924646642059,0.2260333361001685
1772650009392616200,6.4696162109375,1.3967565564602613,-0.7576468250829727,0.1619008547390811
1772650009402660000,6.47966015625,1.26079968752861,-0.8566234052069485,0.1149298264613375
1772650009412705300,6.489705322265625,1.137737956005335,-0.9296360344476997,0.019176437034411353
1772650009422749200,6.499749267578125,1.0397136351048946,-0.98756967943497,-0.0849348025642801
1772650009432793000,6.50979296875,0.9392150330454111,-1.0464398015547542,-0.17569794595586136
1772650009442838300,6.51983837890625,0.8256880225867033,-1.0558013580095023,-0.2502524160774425
1772650009452882200,6.529882080078125,0.6696218470841646,-1.0559071564715354,-0.31577633353061973
1772650009462926000,6.539926025390625,0.5087789586991072,-0.9827486159540713,-0.37524738068561997
1772650009472971300,6.54997119140625,0.2096650792211294,-0.9385921519067137,-0.39563068189229816
1772650009483015400,6.560015380859375,-0.04492518339753151,-0.8798681602593511,-0.3715147334959358
1772650009493059000,6.57005908203125,-0.21195348241925238,-0.8123438262365758,-0.29545367646999654
1772650009503104300,6.580104248046875,-0.256499895632267,-0.8137439753580838,-0.16268489952255039
1772650009513148400,6.5901484375,-0.16481296105980872,-0.8180632267966866,0.019552101946389303
1772650009523192000,6.600192138671875,0.01405892049074173,-0.8280642501987516,0.09187008172017522
1772650009533237200,6.6102373046875,0.1548193903118372,-0.8769023692563176,0.21279088309146463
1772650009543281400,6.620281494140625,0.18746435332894323,-0.944059404336661,0.2764202007033862
1772650009553326000,6.630326171875,0.22582886303663252,-0.8892737750515342,0.28921688270596785
1772650009563370200,6.640370361328125,0.2141793417751789,-0.8087152604758739,0.2829819155728444
1772650009573414400,6.650414306640625,0.05837444755733013,-0.6695626642428338,0.23034716244498266
1772650009583459000,6.660458984375,-0.19311843356788158,-0.5058320915922522,0.15201897333781234
1772650009593503200,6.670503173828125,-0.525776855251193,-0.3249472627840936,0.052781650785263624
1772650009603547400,6.68054736328125,-0.8135533481568098,-0.1365367146462202,0.03481116460766643
1772650009613592000,6.690592041015625,-1.0378045866131782,-0.0980722516953945,0.18451984257595613
1772650009623636200,6.70063623046875,-1.1923328850239514,-0.22124518850818276,0.537691968646273
1772650009633681400,6.710681396484375,-1.2186316938847304,-0.38006767698153854,0.8045455005105584
1772650009643725000,6.72072509765625,-1.1196557713478803,-0.3822019125312566,0.8742422832015901
1772650009653769200,6.730769287109375,-0.9405126716405152,-0.33878055782541633,0.746914710927382
1772650009663814400,6.740814453125,-0.7931506115972995,-0.35095731783136724,0.7120649313423782
1772650009673858000,6.750858154296875,-0.7197013445049524,-0.3599411270149052,0.6353868383966386
1772650009683902200,6.760902099609375,-0.7605114937990903,-0.13376447345390916,0.41339375413060186
1772650009693947400,6.770947509765625,-0.967022492903471,0.20330080488622188,0.13903325330284425
1772650009703991300,6.7809912109375,-1.3035060258328914,0.4662713578373193,-0.05633103209622204
1772650009714035200,6.79103515625,-1.6455869403779506,0.6420512647219002,-0.08745107796783559
1772650009724080400,6.801080322265625,-1.9318173728853463,0.7628675554059445,-0.08181065179491415
1772650009734124300,6.811124267578125,-2.0363059213638306,0.9229398247446864,-0.07430157307274639
1772650009744168200,6.821168212890625,-1.9560808765262365,1.1355798281233758,-0.13474820552794262
1772650009754213400,6.83121337890625,-1.786660713931918,1.3135216622821986,-0.2565953918959945
1772650009764257300,6.84125732421875,-1.5578350071668623,1.4156965269908308,-0.33193748699761927
1772650009774302200,6.85130224609375,-1.2378712318837641,1.4164765714526175,-0.31975079011954366
1772650009784346400,6.861346435546875,-0.803269270029664,1.361225955004245,-0.27782150060236455
1772650009794390300,6.871390380859375,-0.32004034765064715,1.2759919959634543,-0.23230693647693842
1772650009804435200,6.881435302734375,0.1889215663999319,1.1687409970343112,-0.16536924323569982
1772650009814479400,6.891479248046875,0.653434682393074,1.0700954754956067,-0.1401304465555586
1772650009824523300,6.901523193359375,0.9848621009767055,0.9374750575102865,-0.11054547389727085
1772650009834568200,6.911568115234375,1.2625906625986099,0.8118468364998698,-0.13284807099504395
1772650009844612000,6.921612060546875,1.4614444249480962,0.664425155223906,-0.17895367808248847
1772650009854656300,6.93165625,1.6301894647598265,0.4832758302606642,-0.28046560363667083
1772650009864701200,6.941701171875,1.81864166008234,0.3108724140718579,-0.3702464671257883
1772650009874745000,6.9517451171875,1.9164543840587138,0.13438479730933903,-0.42150355695858593
1772650009884790300,6.961790283203125,1.9257967974215744,-0.033378099597245456,-0.4851501362325623
1772650009894834200,6.971834228515625,1.7586743903756141,-0.10763327624499797,-0.5441175081817433
1772650009904878000,6.981878173828125,1.5778700794577598,-0.10426672242134809,-0.6363626246262342
1772650009914923300,6.99192333984375,1.369011640444398,-0.06265154035463928,-0.6504048862431198
1772650009924967200,7.00196728515625,1.2109557524293662,-0.018563684564083815,-0.647845849410072
1772650009935011000,7.012010986328125,1.0509820480942726,-0.011277326948195695,-0.5941921467643231
1772650009945056300,7.02205615234375,0.8560001587420701,0.04577361692041158,-0.5268381643397734
1772650009955100400,7.032100341796875,0.5861778402000666,0.1528441447161138,-0.49002983456552024
1772650009965144000,7.04214404296875,0.08711071269810199,0.2537827456280589,-0.5000302734456956
1772650009975189200,7.052189208984375,-0.4009884460657835,0.36800007643848653,-0.5391127221643924
1772650009985233400,7.0622333984375,-0.49256665956676005,0.45016617234125733,-0.506846054407768
1772650009995278000,7.072278076171875,-0.2990449058949947,0.39140798616334793,-0.2988840162448585
1772650010005321500,7.082321533203125,0.1137275014668703,0.33239860170334573,-0.005104720994178205
1772650010015365600,7.09236572265625,0.4815490064680576,0.21986732428371905,0.27575344389034434
1772650010025410600,7.10241064453125,0.697299543082714,0.09532251459583639,0.4557099240735173
1772650010035454500,7.112454345703125,0.8025181594014167,-0.029414602793753145,0.5657850770452991
1772650010045498600,7.12249853515625,0.8949427605986595,-0.11938888822942971,0.5890830235896631
1772650010055543600,7.13254345703125,0.9576227963954209,-0.1861455988805741,0.6152808928266167
1772650010065587500,7.14258740234375,1.0496095906972884,-0.3804617178004235,0.702815895351395
1772650010075631600,7.152631591796875,1.0825357087433338,-0.5611499280579387,0.7958972068917006
1772650010085676500,7.162676513671875,1.0152958176851272,-0.7202337708812206,0.8241451039936393
1772650010095720400,7.172720458984375,0.7688321628987789,-0.87478566936329,0.7060038777377456
1772650010105764600,7.1827646484375,0.4037362834692001,-0.9790499075666069,0.5581381059560925
1772650010115809800,7.192809814453125,0.094447631457448,-1.006760044530034,0.31404402984529733
1772650010125853400,7.202853515625,-0.05142798942029476,-0.989943349763751,0.09506416505374946
1772650010135898600,7.212898681640625,-0.0623188012689352,-0.9597541093356907,-0.04315017308164388
1772650010145942800,7.22294287109375,-0.12727847243547438,-0.9527248682860284,-0.05489771135747432
1772650010155986400,7.232986328125,-0.2825438529491424,-0.9721783412966877,-0.08365374064464122
1772650010166031600,7.243031494140625,-0.35944705988764764,-0.9242820331338792,-0.14998623453434556
1772650010176075800,7.25307568359375,-0.384109207457304,-0.862969997754693,-0.1871015113659203
1772650010186119700,7.26311962890625,-0.41158056722879405,-0.8207314961578697,-0.18049389326181262
1772650010196164600,7.27316455078125,-0.40412382148206233,-0.7027183532610535,-0.14699334546183235
1772650010206208800,7.283208740234375,-0.38801965889930723,-0.5783822909530252,-0.10770414952412247
1772650010216252700,7.293252685546875,-0.3513555233687162,-0.4651104242991656,-0.06976159155555069
1772650010226297600,7.303297607421875,-0.34783377898335455,-0.387344463051483,-0.05706253384170122
1772650010236341800,7.313341796875,-0.5153975000560284,-0.2975947070866823,-0.02416899375785142
1772650010246386400,7.323386474609375,-0.6934475438296794,-0.10361658794954419,-0.1539472471198067
1772650010256430600,7.3334306640625,-0.6116197399705648,-0.06291574424877762,-0.12670048988442867
1772650010266474800,7.343474853515625,-0.8129027752935886,-0.13899346014857292,-0.05682908127885312
1772650010276519400,7.35351953125,-0.9841787948876619,0.0708640729047358,-0.5854669519843533
1772650010286563600,7.3635634765625,-1.1253010837584734,-0.08339987548142672,-0.3967224591843784
1772650010296607500,7.373607421875,-1.1805857486069202,-0.439447648319602,0.037833718166081234
1772650010306652700,7.383652587890625,-1.046094860574603,-0.5741904652863741,0.27306668902439996
1772650010316696600,7.393696533203125,-0.8851479272931814,-0.45649829797223207,0.23426029903441667
1772650010326740500,7.403740478515625,-0.8855155915617943,-0.4125906210541725,0.3031130869156681
1772650010336785700,7.41378564453125,-0.9793862999141215,-0.42734570711553094,0.3856162510193884
1772650010346829600,7.42382958984375,-1.0050579167872666,-0.37677009674087164,0.2502984289099462
1772650010356874800,7.433874755859375,-1.0012760601609945,-0.18799173820391296,-0.03633567076120525
1772650010366918700,7.443918701171875,-1.0659364561200142,0.03303556976988911,-0.30631334426170215
1772650010376962600,7.453962646484375,-1.1436322747409342,0.222575414198637,-0.41984424544423815
1772650010387007700,7.4640078125,-1.224932255333662,0.3610261457726359,-0.39370804326664655
1772650010397051600,7.4740517578125,-1.2329752765357493,0.5568935857877135,-0.3433088489048183
1772650010407095600,7.484095458984375,-1.2335673972100019,0.8048756823129951,-0.2063530320636928
1772650010417140700,7.494140625,-1.2083183896631002,1.0498254254050552,-0.0225128605812788
1772650010427184600,7.5041845703125,-1.1271791525900363,1.322431821707636,0.17478804630301892
1772650010437228800,7.514228759765625,-0.9524982929885387,1.5761881177201866,0.33142124457117167
1772650010447273500,7.5242734375,-0.7244044076293706,1.714014141524583,0.578516365661472
1772650010457317600,7.534317626953125,-0.46071080110073087,1.695965420745313,0.8083886588700115
1772650010467362600,7.544362548828125,-0.08141396236121654,1.655589863476157,0.940474093195796
1772650010477406500,7.554406494140625,0.32357962769269943,1.562253262000531,1.083562348377332
1772650010487450600,7.56445068359375,0.6631061815798283,1.4339724806547165,1.1532570852417499
1772650010497495600,7.57449560546875,0.9373615141332149,1.3075859886229038,1.1114384164921938
1772650010507539500,7.58453955078125,1.1361433802902698,1.1475984018929302,1.0819536710716784
1772650010517583600,7.59458349609375,1.2893717020183801,0.94715254804641,1.1432768123667687
1772650010527628500,7.604628662109375,1.3651181401371955,0.7684013702660799,1.2089658937864005
1772650010537672400,7.61467236328125,1.3424638252586125,0.6251179578386247,1.2560204904280603
1772650010547716600,7.624716552734375,1.2821551947683094,0.5963640109106898,1.1993057927764952
1772650010557761800,7.63476171875,1.2126087803333998,0.6157767135195433,1.0888692956790327
1772650010567805400,7.644805419921875,1.0591583402872085,0.5872280799053609,0.9453362193394452
1772650010577849600,7.654849609375,0.9685434188604354,0.5591809660725295,0.717802013689652
1772650010587894800,7.664894775390625,0.9199614665210246,0.5662893367730081,0.4997963916245848
1772650010597938400,7.6749384765625,0.8622194716483355,0.5856763204187154,0.3696825496327132
1772650010607983600,7.684983642578125,0.7439344530075788,0.6090994277127086,0.29986188483368603
1772650010618027800,7.69502783203125,0.6755944917529821,0.602142448181659,0.3029263869708404
1772650010628071400,7.705071533203125,0.6171522396564483,0.601512041323632,0.2702557415232062
1772650010638116600,7.71511669921875,0.5818120462059975,0.5625438666343688,0.3052724751729518
1772650010648160800,7.725160888671875,0.5207756859630346,0.46881914262399077,0.41371363373473286
1772650010658204700,7.73520458984375,0.4585743735939264,0.3753616912476718,0.4622074693992734
1772650010668249600,7.74524951171875,0.4883563483953476,0.3138333097040653,0.45279524220321327
1772650010678293800,7.755293701171875,0.5411766689568758,0.1859146396689117,0.4851040686011314
1772650010688337700,7.765337646484375,0.6492454140096903,0.03615852409601211,0.5331004761375486
1772650010698382600,7.775382568359375,0.8038988001048565,-0.11152516911700368,0.5948459344979375
1772650010708426800,7.7854267578125,0.9273580065131187,-0.2513943891867995,0.6196933755066245
1772650010718471400,7.795471435546875,1.045568790873885,-0.34027284220978615,0.6163935302436352
1772650010728515600,7.805515625,1.0742068563371896,-0.43938451995551586,0.5826318381562828
1772650010738559700,7.815559814453125,1.03030400172472,-0.5392024462744593,0.5513369015086442
1772650010748604400,7.8256044921875,0.9395815282702445,-0.6295217457555234,0.565374706146121
1772650010758648600,7.835648681640625,0.8433324003487825,-0.7215246144093572,0.5475655662763863
1772650010768692500,7.8456923828125,0.6874503492414951,-0.7944736768946051,0.5119906872872263
1772650010778737700,7.855737548828125,0.5518447779655457,-0.8197790908038616,0.4156036121997982
1772650010788781600,7.865781494140625,0.3166103732019663,-0.91420261073336,0.38679764282368123
1772650010798825500,7.875825439453125,0.038489012870192525,-1.0215914106979966,0.37456250369399785
1772650010808870700,7.88587060546875,-0.11337386572360991,-1.059821480371058,0.35571653158981353
1772650010818914600,7.89591455078125,-0.20404665481746195,-1.073686777985841,0.2857105733517557
1772650010828959700,7.905959716796875,-0.20158815574944017,-1.068707966659963,0.27328447822723534
1772650010839003600,7.916003662109375,-0.17870646185576913,-1.0455530087828635,0.28227804161980746
1772650010849047600,7.926047607421875,-0.20440788934528825,-0.994729853387922,0.33722759276237335
1772650010859092700,7.9360927734375,-0.2677583717495203,-0.9362474154114723,0.419835185354948
1772650010869136600,7.94613671875,-0.3879191211342811,-0.8236478950612246,0.48806375865694135
1772650010879180500,7.9561806640625,-0.495422048997879,-0.6570290536232293,0.5996522753337398
1772650010889225700,7.966225830078125,-0.5845733276128768,-0.48546486473754047,0.6846919904440641
1772650010899269600,7.97626953125,-0.6533195315808057,-0.32576559342965483,0.7784865648202598
1772650010909313800,7.986313720703125,-0.764874365183711,-0.17351240034401416,0.8065263721294701
1772650010919358500,7.9963583984375,-0.8961047901153564,-0.037165363050997255,0.812507127039507
1772650010929402600,8.006402587890625,-0.9128647862583398,0.09957827234417199,0.8874697213042527
1772650010939446800,8.01644677734375,-0.8593436239510774,0.1486350025884807,1.027117626773566
1772650010949491500,8.026491455078125,-0.87425886901021,0.03857508371844887,1.3376220843158662
1772650010959535600,8.03653564453125,-0.9583744915455579,-0.18567454730272293,1.6705077388837932
1772650010969580500,8.04658056640625,-0.969627706965804,-0.35168373240977524,1.715994793947786
1772650010979624400,8.05662451171875,-0.9708967039883136,-0.42124344471767544,1.6103391013860702
1772650010989668600,8.066668701171874,-1.1106038653641939,-0.3718924077019095,1.4439631287932395
1772650010999713500,8.076713623046874,-1.3653513643711805,-0.30021438806578515,1.3438497266590594
1772650011009758700,8.0867587890625,-1.6371528740316628,-0.136824299415946,1.1366796791240572
1772650011019803000,8.096802978515624,-1.9470336467176674,0.14234540092498063,0.7478352598384023
1772650011029847600,8.10684765625,-2.1869804669559,0.42275896384716033,0.2911310640305281
1772650011039891700,8.1168916015625,-2.326813300538063,0.6448337350472807,-0.06101097007337957
1772650011049935600,8.126935546875,-2.34692319163084,0.8433582654424011,-0.2737141748813912
1772650011059980500,8.13698046875,-2.3100287544757125,1.0323622494287787,-0.3144355133809149
1772650011070024700,8.147024658203126,-2.312929736614227,1.2596524171896277,-0.24838512436822055
1772650011080070000,8.15706982421875,-2.217881801176071,1.4953750438615678,-0.14342833732347934
1772650011090113500,8.167113525390626,-1.8783476485043764,1.7615837019510565,-0.19784060325156896
1772650011100157700,8.17715771484375,-1.4097493090242146,1.9130640109680592,-0.06362115257177502
1772650011110203000,8.187202880859376,-1.1233838519603014,1.9168880993008612,0.35792295559290793
1772650011120246500,8.19724658203125,-0.7319909172356128,1.9617370025917886,0.38054296634308993
1772650011130290700,8.207290771484375,-0.1568354063093662,1.9902220694504678,0.17556041891500354
1772650011140335900,8.2173359375,0.41998131582736964,1.8108347857236862,0.1181554009117186
1772650011150379800,8.2273798828125,0.8090671426534652,1.583488796122372,0.17069787264624608
1772650011160423700,8.237423583984375,1.0509750338315964,1.4150411318220197,0.2472312964242883
1772650011170468900,8.24746875,1.218181027507782,1.293643534118682,0.23175850881393997
1772650011180512800,8.2575126953125,1.3687766626447437,1.2130908647619187,0.197914088612888
1772650011190556700,8.267556640625,1.526100729253888,1.0794286826387047,0.10057157596414908
1772650011200601600,8.2776015625,1.7041823372095821,0.9351454455189406,0.0012562106061726809
1772650011210645800,8.287645751953125,1.7713532546848059,0.7635077530056238,-0.08697181568406522
1772650011220690700,8.297690673828125,1.719865644031763,0.6367345997437834,-0.1601513989895582
1772650011230734600,8.307734619140625,1.5863772110402583,0.5198676312074065,-0.24807540083192287
1772650011240778800,8.31777880859375,1.3981751910865305,0.49324236687123774,-0.3060739642815664
1772650011250823700,8.32782373046875,1.2174731714993714,0.5367097526758909,-0.428214233578369
1772650011260867600,8.33786767578125,1.0591197618424892,0.562563301987201,-0.45157815803103146
1772650011270911700,8.347911865234375,0.9102075497478246,0.6013172494038939,-0.39886703346502034
1772650011280956700,8.357956787109375,0.8649515269607305,0.6022210663758218,-0.34000571570619936
1772650011291000600,8.36800048828125,0.8344102582246065,0.5968462414696812,-0.22910653300043193
1772650011301045800,8.378045654296875,0.8411153088212012,0.5137095469690859,-0.0173274938326329
1772650011311089700,8.388089599609375,0.9321434872239828,0.40281595375388857,0.09982220063526183
1772650011321133600,8.398133544921874,0.9525012155979872,0.3065919602736831,0.24471874734777957
1772650011331178800,8.4081787109375,0.8897381776928901,0.21628478962182998,0.40317547124866393
1772650011341222700,8.41822265625,0.8646095816552638,0.12550941693633794,0.5737263914385811
1772650011351266600,8.4282666015625,0.8505033148914575,0.010380670369416475,0.6389028106283396
1772650011361311700,8.438311767578124,0.8626315595805645,-0.12191577635854482,0.6204581493340432
1772650011371355600,8.448355712890624,0.8736813613831996,-0.2696742883734405,0.5350735297761857
1772650011381399600,8.458399658203126,0.7699778258025646,-0.3745695179566741,0.455020151711069
1772650011391444700,8.46844482421875,0.5887099890261888,-0.45236792016923427,0.3863977933185175
1772650011401489000,8.478489013671876,0.3925479499787092,-0.4375770321421325,0.30575671502593904
1772650011411532500,8.488532470703126,0.21714520584344862,-0.4345537387982011,0.2188097049895674
1772650011421577700,8.49857763671875,0.062146951833367346,-0.43632454786300656,0.12433237251359969
1772650011431622000,8.508621826171876,-0.032227029865980146,-0.39828123293370005,0.04395535198468715
1772650011441666600,8.51866650390625,-0.07083762328922748,-0.3953327583916485,-0.014514226510189472
1772650011451710700,8.528710693359375,-0.06170563780665397,-0.3969648896381259,-0.10286650023460388
1772650011461755000,8.5387548828125,-0.02633972539305687,-0.38075989702939983,-0.16891751030180602
1772650011471799600,8.548799560546875,-0.13382044142484664,-0.3993571916021406,-0.1744714546345174
1772650011481843700,8.55884375,-0.2566787593305111,-0.35431890321895476,-0.16878310679979622
1772650011491887900,8.568887939453125,-0.3689046240627765,-0.26260376546531916,-0.23243607928194104
1772650011501932500,8.5789326171875,-0.5510422294110059,-0.171492877215147,-0.2620709372302517
1772650011511976700,8.588976806640625,-0.8925959052115678,-0.14451134678721428,-0.27508294248394666
1772650011522020600,8.5990205078125,-1.1636334447622299,-0.05685907455831766,-0.3548074539208784
1772650011532065500,8.6090654296875,-1.28140817579329,0.06600991087183355,-0.42490861616171893
1772650011542109700,8.619109619140625,-1.2715806092619895,0.08288432717472315,-0.4290413320522755
1772650011552155000,8.62915478515625,-1.0663304238736628,0.03087444621324539,-0.38100364265739917
1772650011562198500,8.639198486328125,-0.7007552364945411,-0.019013181897252797,-0.32609186624195424
1772650011572242700,8.64924267578125,-0.30549627399146556,-0.0437207760438323,-0.2440501639038324
1772650011582288000,8.659287841796875,0.08146130863428115,-0.07589870607107878,-0.13782587767392396
1772650011592331500,8.66933154296875,0.34237843618690966,-0.08343129353299736,-0.03410013026148081
1772650011602375700,8.679375732421875,0.5085784676909446,-0.04343626001402735,0.06265329392030834
1772650011612420900,8.6894208984375,0.5615969411730766,-0.014740326883643864,0.19411683348808437
1772650011622464800,8.69946484375,0.46851475284993643,-0.04024447823539376,0.33033874656409024
1772650011632508700,8.7095087890625,0.24974866780638694,-0.1741689645566046,0.6054790087258443
1772650011642553900,8.719553955078124,0.005676876592636108,-0.39559287063255905,0.8926923513233661
1772650011652597800,8.72959765625,-0.16937866154015063,-0.5571428843736648,1.0238749915905296
1772650011662641700,8.7396416015625,-0.4444873960524797,-0.6835270383179187,1.042049676837027
1772650011672686600,8.7496865234375,-0.6766752727270126,-0.7321290105320513,0.9836458570547402
1772650011682730800,8.759730712890626,-0.8711790231734514,-0.6078434363022446,0.7435204653792082
1772650011692775700,8.769775634765624,-1.0887708037406205,-0.3541792024873197,0.36677115569803864
1772650011702818600,8.779818603515626,-1.2726526224076746,-0.04280161537230014,0.03451473894435912
1772650011712863700,8.78986376953125,-1.4405162032097578,0.29630291371047496,-0.14439049688652156
1772650011722908000,8.799907958984376,-1.5686048229843377,0.60288654454723,-0.14313742808550595
1772650011732951600,8.80995166015625,-1.6355688197106122,0.8130057972766459,-0.01680368915423751
1772650011742996700,8.819996826171876,-1.623724652659893,0.9946079805739223,0.19334851599670946
1772650011753041000,8.830041015625,-1.548297948014736,1.1693062297016381,0.44591085298433897
1772650011763085600,8.84008544921875,-1.4325918399512767,1.4206528342239557,0.6094846276380121
1772650011773129700,8.850129638671875,-1.1556979755878447,1.5507836273506284,0.8564248138949274
1772650011783174000,8.860173828125,-0.8238765892505645,1.5092992320567369,1.2045738693725316
1772650011793218600,8.870218505859375,-0.541368392136693,1.5142527628108857,1.2933552186965942
1772650011803262700,8.8802626953125,-0.22740414952933788,1.4948054272800684,1.1949007627505808
1772650011813307000,8.890306884765625,0.18222294554412363,1.4414920625045895,1.0362575763668864
1772650011823351600,8.9003515625,0.5777332524597645,1.2439061281338333,1.0133776360388844
1772650011833395700,8.910395751953125,0.8485843295276164,0.9583923194631934,1.0411965671390295
1772650011843439600,8.920439697265625,0.9316752851903438,0.8555690738484263,0.9434690372280776
1772650011853484500,8.930484619140625,0.7795084552139043,0.9225491449266672,0.9105212188068776
