time,seconds_elapsed,z,y,x
1772649091969283000,0.067282958984375,-0.5210022926330566,-0.012141513638198376,-0.2145257145166397
1772649091979327200,0.0773271484375,-0.5202504992485046,-0.041350800544023514,-0.17711415886878967
1772649091989372200,0.0873720703125,-0.5223442912101746,-0.056193508207798004,-0.14791010320186615
1772649091999416000,0.097416015625,-0.5176517963409424,-0.06947442144155502,-0.13529258966445923
1772649092009460200,0.107460205078125,-0.5045123100280762,-0.0991741493344307,-0.1402115374803543
1772649092019504000,0.117504150390625,-0.4809393286705017,-0.1321462094783783,-0.1501602977514267
1772649092029548300,0.12754833984375,-0.46216920018196106,-0.17511874437332153,-0.16379521787166595
1772649092039593200,0.13759326171875,-0.44339415431022644,-0.22162020206451416,-0.1796836256980896
1772649092049637000,0.14763720703125,-0.4322436451911926,-0.2529948949813843,-0.1884317249059677
1772649092059681300,0.157681396484375,-0.41390085220336914,-0.27317631244659424,-0.19379906356334686
1772649092069725200,0.16772509765625,-0.3977118730545044,-0.279948890209198,-0.20345671474933624
1772649092079769000,0.17776904296875,-0.3918297588825226,-0.2841319143772125,-0.21847960352897644
1772649092089814300,0.187814208984375,-0.3937210440635681,-0.2859223484992981,-0.22693666815757751
1772649092099858200,0.197858154296875,-0.3720948398113251,-0.2981571555137634,-0.19930876791477203
1772649092109901600,0.207901611328125,-0.35221168398857117,-0.2701406180858612,-0.14310045540332794
1772649092119945700,0.21794580078125,-0.35683783888816833,-0.22987280786037445,-0.08418041467666626
1772649092129989600,0.22798974609375,-0.3576333224773407,-0.2084258794784546,-0.0385097861289978
1772649092140034600,0.23803466796875,-0.34969016909599304,-0.2188795953989029,0.00461930688470602
1772649092150078700,0.24807861328125,-0.34599965810775757,-0.22713924944400787,0.04181704297661781
1772649092160122600,0.25812255859375,-0.33054932951927185,-0.22521592676639557,0.06341900676488876
1772649092170166800,0.268166748046875,-0.3072061538696289,-0.21546359360218048,0.07588650286197662
1772649092180211000,0.2782109375,-0.2862135171890259,-0.21147629618644714,0.08273562043905258
1772649092190255600,0.288255615234375,-0.27218204736709595,-0.2264067530632019,0.0857868641614914
1772649092200299800,0.2982998046875,-0.26540377736091614,-0.2349483072757721,0.0976397916674614
1772649092210344000,0.308343994140625,-0.25885605812072754,-0.24062512814998627,0.09851791709661484
1772649092220387600,0.3183876953125,-0.25109797716140747,-0.2460758090019226,0.08639413863420486
1772649092230431700,0.328431640625,-0.23241505026817322,-0.23288525640964508,0.06432946771383286
1772649092240476700,0.3384765625,-0.22049660980701447,-0.21018792688846588,0.04588174819946289
1772649092250520800,0.348520751953125,-0.21184490621089935,-0.1767345815896988,0.03908628225326538
1772649092260564700,0.358564697265625,-0.21605801582336426,-0.15163934230804443,0.04907606542110443
1772649092270608600,0.368608642578125,-0.22143447399139404,-0.12639276683330536,0.0717812180519104
1772649092280652800,0.37865283203125,-0.2377154380083084,-0.0834391713142395,0.10677435994148254
1772649092290697700,0.38869775390625,-0.24645507335662842,-0.028115741908550262,0.149369016289711
1772649092300741600,0.39874169921875,-0.23619365692138672,-0.00041114306077361107,0.1841064989566803
1772649092310785800,0.408785888671875,-0.2091405987739563,-0.004633220843970776,0.20478573441505432
1772649092320829700,0.41882958984375,-0.17469340562820435,-0.07097549736499786,0.20517641305923462
1772649092330873600,0.42887353515625,-0.15131764113903046,-0.17582185566425323,0.1833467036485672
1772649092340918800,0.438918701171875,-0.13109973073005676,-0.25363728404045105,0.14829550683498383
1772649092350962700,0.448962646484375,-0.11102091521024704,-0.2662360966205597,0.11658856272697449
1772649092361006800,0.4590068359375,-0.099077969789505,-0.2525267004966736,0.10309752821922302
1772649092371050800,0.46905078125,-0.10261648148298264,-0.22983579337596893,0.10780899226665497
1772649092381094700,0.4790947265625,-0.11587396264076233,-0.20226381719112396,0.1252274066209793
1772649092391139800,0.489139892578125,-0.15845753252506256,-0.17683936655521393,0.15851722657680511
1772649092401183700,0.499183837890625,-0.2295255810022354,-0.1650351732969284,0.22032706439495087
1772649092411227600,0.5092275390625,-0.3219808340072632,-0.18964199721813202,0.3206767141819
1772649092421271800,0.519271728515625,-0.39462414383888245,-0.23501905798912048,0.4555075168609619
1772649092431315700,0.529315673828125,-0.43799424171447754,-0.20882873237133026,0.6509078741073608
1772649092441360600,0.539360595703125,-0.47136446833610535,-0.04331780970096588,0.9221748113632202
1772649092451404800,0.54940478515625,-0.49775049090385437,0.13395600020885468,1.2230620384216309
1772649092461448700,0.55944873046875,-0.48557373881340027,0.24429236352443695,1.5221177339553833
1772649092471492900,0.569492919921875,-0.4997733533382416,0.5772665739059448,1.7895028591156006
1772649092481536500,0.57953662109375,-0.49617674946784973,0.7492862939834595,2.052626848220825
1772649092491581700,0.589581787109375,-0.4728740155696869,0.7320671081542969,2.1852781772613525
1772649092501625900,0.5996259765625,-0.5701611638069153,0.8185346126556396,2.2740750312805176
1772649092511669800,0.609669677734375,-0.74626225233078,0.8221486806869507,2.3611295223236084
1772649092521713700,0.619713623046875,-0.8691099286079407,0.6649319529533386,2.3978567123413086
1772649092531757800,0.6297578125,-0.9055041074752808,0.4931984543800354,2.395174026489258
1772649092541802800,0.639802734375,-0.8724012970924377,0.5255113840103149,2.3350775241851807
1772649092551846700,0.6498466796875,-0.8356270790100098,0.7826730608940125,2.3256382942199707
1772649092561890800,0.659890869140625,-0.7273416519165039,0.9703007936477661,2.291471242904663
1772649092571934700,0.669934814453125,-0.6125607490539551,0.9897643327713013,2.113804340362549
1772649092581979000,0.679978759765625,-0.5040659308433533,0.8814122676849365,1.9258215427398682
1772649092592023600,0.6900234375,-0.329834520816803,0.6057314872741699,1.6832425594329834
1772649092602067700,0.700067626953125,-0.20073407888412476,0.37449029088020325,1.422573208808899
1772649092612112000,0.71011181640625,-0.10520263016223907,0.2762754559516907,1.2000356912612915
1772649092622155800,0.72015576171875,0.028370875865221024,0.13122586905956268,1.013070821762085
1772649092632199700,0.73019970703125,0.15469038486480713,-0.0417809821665287,0.7787564992904663
1772649092642244900,0.740244873046875,0.2865946590900421,-0.1122940257191658,0.5179605484008789
1772649092652288800,0.750288818359375,0.37688037753105164,0.011142069473862648,0.2846803367137909
1772649092662332700,0.760332763671875,0.4087294042110443,0.20164890587329865,0.12391702830791473
1772649092672376600,0.77037646484375,0.37226730585098267,0.07291343808174133,-0.04866577312350273
1772649092682420700,0.780420654296875,0.24751603603363037,0.10176107287406921,-0.17676275968551636
1772649092692465700,0.790465576171875,0.13266028463840485,0.21558266878128052,-0.21723933517932892
1772649092702509600,0.800509521484375,0.029559995979070663,0.30311119556427,-0.22894471883773804
1772649092712553700,0.8105537109375,-0.06190698593854904,0.3516443967819214,-0.26575514674186707
1772649092722598000,0.820597900390625,-0.12319458276033401,0.3762056529521942,-0.3161863386631012
1772649092732641800,0.830641845703125,-0.14143183827400208,0.3488314747810364,-0.37586498260498047
1772649092742686700,0.840686767578125,-0.15563420951366425,0.23218102753162384,-0.4345637261867523
1772649092752730600,0.850730712890625,-0.14870598912239075,0.2085498571395874,-0.4444348216056824
1772649092762774800,0.86077490234375,-0.1283240169286728,0.22770437598228455,-0.414429247379303
1772649092772818700,0.870818603515625,-0.109047532081604,0.16403819620609283,-0.38329440355300903
1772649092782862600,0.880862548828125,-0.08468706160783768,0.1599196195602417,-0.35410749912261963
1772649092792907800,0.89090771484375,-0.0567212775349617,0.23911625146865845,-0.3255676031112671
1772649092802952000,0.900951904296875,-0.01550193689763546,0.20810161530971527,-0.3255862295627594
1772649092812995600,0.91099560546875,0.01849592663347721,0.14823926985263824,-0.3262144923210144
1772649092823039700,0.921039794921875,0.01758699119091034,0.09525302052497864,-0.32753992080688477
1772649092833083600,0.931083740234375,0.019512172788381577,-0.04541019722819328,-0.36086341738700867
1772649092843128600,0.941128662109375,0.03241065889596939,-0.06907238066196442,-0.403916597366333
1772649092853172700,0.9511728515625,0.035085808485746384,-0.04178863763809204,-0.46399956941604614
1772649092863216600,0.961216552734375,0.005034167319536209,-0.025218181312084198,-0.5252030491828918
1772649092873260800,0.9712607421875,-0.061863694339990616,-0.019248969852924347,-0.5821830034255981
1772649092883305000,0.981304931640625,-0.14492368698120117,0.0006328588351607323,-0.6020962595939636
1772649092893349600,0.991349609375,-0.21029900014400482,-0.025586791336536407,-0.5911788940429688
1772649092903393800,1.001393798828125,-0.23050519824028015,-0.09739307314157486,-0.578604519367218
1772649092913438000,1.01143798828125,-0.21825098991394043,-0.18581461906433105,-0.5697111487388611
1772649092923481600,1.021481689453125,-0.20714427530765533,-0.30571144819259644,-0.5828275084495544
1772649092933525800,1.03152587890625,-0.22128313779830933,-0.437369167804718,-0.6115451455116272
1772649092943570700,1.04157080078125,-0.2322329878807068,-0.5839002728462219,-0.6743763089179993
1772649092953614600,1.051614501953125,-0.22422395646572113,-0.7190830111503601,-0.786832869052887
1772649092963658800,1.06165869140625,-0.19168998301029205,-0.8451815843582153,-0.9350932240486145
1772649092973702700,1.07170263671875,-0.1622474193572998,-0.8364468216896057,-1.0548874139785767
1772649092983746800,1.081746826171875,-0.13807550072669983,-0.6868365406990051,-1.1182458400726318
1772649092993791700,1.091791748046875,-0.13304339349269867,-0.4877912402153015,-1.1564041376113892
1772649093003835600,1.101835693359375,-0.18929946422576904,-0.3464314341545105,-1.2357834577560425
1772649093013879800,1.1118798828125,-0.1383376568555832,-0.2766464650630951,-1.2745752334594727
1772649093023923700,1.121923828125,-0.039209749549627304,-0.17768526077270508,-1.2993037700653076
1772649093033967600,1.131967529296875,0.054043516516685486,-0.1277330368757248,-1.3272199630737305
1772649093044012800,1.1420126953125,0.1099214255809784,-0.12150976061820984,-1.3535215854644775
1772649093054056700,1.152056640625,0.14735348522663116,-0.1269460767507553,-1.3621551990509033
1772649093064100900,1.162100830078125,0.18763691186904907,-0.126968652009964,-1.336400032043457
1772649093074144800,1.172144775390625,0.22926069796085358,-0.1010047197341919,-1.2906171083450317
1772649093084188700,1.182188720703125,0.2798788547515869,-0.11196975409984589,-1.2349170446395874
1772649093094233900,1.19223388671875,0.3453717529773712,-0.18595372140407562,-1.1503870487213135
1772649093104278000,1.202278076171875,0.4213365614414215,-0.25386062264442444,-1.0301882028579712
1772649093114322200,1.212322265625,0.46724724769592285,-0.3076819181442261,-0.8956932425498962
1772649093124366300,1.222366455078125,0.476872980594635,-0.3601160943508148,-0.7574490904808044
1772649093134410200,1.23241015625,0.4601902961730957,-0.3879314064979553,-0.6372861266136169
1772649093144455200,1.242455078125,0.432416170835495,-0.3822282552719116,-0.540297269821167
1772649093154499300,1.252499267578125,0.3966945707798004,-0.3865315318107605,-0.48637616634368896
1772649093164543200,1.262543212890625,0.36834976077079773,-0.3874516487121582,-0.45583873987197876
1772649093174587100,1.272587158203125,0.35142233967781067,-0.362520307302475,-0.4350817799568176
1772649093184631000,1.282631103515625,0.3394748866558075,-0.33990445733070374,-0.43484610319137573
1772649093194676200,1.29267626953125,0.3306840658187866,-0.2930448651313782,-0.44679853320121765
1772649093204720400,1.302720458984375,0.32629919052124023,-0.2153596431016922,-0.45971807837486267
1772649093214764000,1.312763916015625,0.2708972990512848,-0.08032039552927017,-0.5060292482376099
1772649093224808200,1.32280810546875,0.22995170950889587,-0.011158637702465057,-0.5512713193893433
1772649093234852000,1.33285205078125,0.2695247232913971,0.14889970421791077,-0.5326299071311951
1772649093244897000,1.34289697265625,0.330195814371109,0.27800655364990234,-0.5140335559844971
1772649093254941200,1.352941162109375,0.35068026185035706,0.2840519845485687,-0.5217658877372742
1772649093264985000,1.362985107421875,0.3421964943408966,0.2533087134361267,-0.5161681771278381
1772649093275029200,1.373029296875,0.3308162987232208,0.23331353068351746,-0.48296263813972473
1772649093285073400,1.383073486328125,0.3176988959312439,0.18268364667892456,-0.45265159010887146
1772649093295118000,1.3931181640625,0.30814164876937866,0.07676234096288681,-0.432094931602478
1772649093305162200,1.403162353515625,0.3131806254386902,-0.06787286698818207,-0.40853315591812134
1772649093315206400,1.413206298828125,0.3157738447189331,-0.23052021861076355,-0.3737962245941162
1772649093325250000,1.42325,0.311713844537735,-0.37415143847465515,-0.3210107982158661
1772649093335294200,1.433294189453125,0.2979525923728943,-0.48776736855506897,-0.2575937509536743
1772649093345339400,1.44333935546875,0.1846289485692978,-0.5702217817306519,-0.26904481649398804
1772649093355383000,1.453383056640625,0.1716943234205246,-0.6443607807159424,-0.20628976821899414
1772649093365427200,1.46342724609375,0.22959090769290924,-0.561011552810669,-0.09997210651636124
1772649093375471000,1.47347119140625,0.30169397592544556,-0.45818766951560974,-0.0013111791340634227
1772649093385515300,1.483515380859375,0.3540509045124054,-0.3349088728427887,0.07378251105546951
1772649093395560200,1.493560302734375,0.3671964704990387,-0.17477528750896454,0.12246352434158325
1772649093405604000,1.50360400390625,0.3523709177970886,0.0013861688785254955,0.17038258910179138
1772649093415648300,1.513648193359375,0.3126848638057709,0.16615451872348785,0.2030499428510666
1772649093425692200,1.523692138671875,0.2654379904270172,0.28350403904914856,0.22840721905231476
1772649093435736000,1.533736083984375,0.2328958958387375,0.35712572932243347,0.2509412467479706
1772649093445781200,1.54378125,0.22419880330562592,0.399232417345047,0.2801111340522766
1772649093455825200,1.5538251953125,0.22720208764076233,0.3976411521434784,0.2990047037601471
1772649093465869300,1.563869384765625,0.21796464920043945,0.36211591958999634,0.2984297275543213
1772649093475913200,1.573913330078125,0.2031850814819336,0.3149888515472412,0.2742322087287903
1772649093485957000,1.58395703125,0.19854184985160828,0.2590302526950836,0.22361963987350464
1772649093496002300,1.594002197265625,0.20317691564559937,0.1955237239599228,0.16687652468681335
1772649093506046200,1.604046142578125,0.21264630556106567,0.15851403772830963,0.11368786543607712
1772649093516090000,1.614090087890625,0.22106942534446716,0.13054242730140686,0.0686039924621582
1772649093526134300,1.62413427734375,0.2101621925830841,0.10387087613344193,0.016064083203673363
1772649093536178200,1.63417822265625,0.20100897550582886,0.09957458078861237,-0.046845488250255585
1772649093546222300,1.644222412109375,0.20129340887069702,0.11728885769844055,-0.10873761773109436
1772649093556267300,1.654267333984375,0.2057490199804306,0.1500944197177887,-0.16650216281414032
1772649093566311200,1.664311279296875,0.2110292762517929,0.17255152761936188,-0.2138260155916214
1772649093576355300,1.674355224609375,0.21418261528015137,0.18157070875167847,-0.2421007603406906
1772649093586399000,1.68439892578125,0.20439709722995758,0.1735926866531372,-0.2529403567314148
1772649093596443100,1.694443115234375,0.17672017216682434,0.15464194118976593,-0.2530176341533661
1772649093606488300,1.70448828125,0.14603735506534576,0.1256726086139679,-0.23934020102024078
1772649093616532000,1.714531982421875,0.1308557540178299,0.09702356159687042,-0.2146667242050171
1772649093626576100,1.724576171875,0.12560425698757172,0.06839191913604736,-0.1831921488046646
1772649093636620300,1.734620361328125,0.12452182173728943,0.04520973190665245,-0.13103729486465454
1772649093646664200,1.744664306640625,0.12270794063806534,0.0368356890976429,-0.054461825639009476
1772649093656709000,1.754709228515625,0.11491411924362183,0.020849963650107384,0.022640973329544067
1772649093666753300,1.764753173828125,0.10861308127641678,-0.015229476615786552,0.09202563762664795
1772649093676797200,1.774797119140625,0.09976518154144287,-0.05908484011888504,0.1470789760351181
1772649093686841300,1.78484130859375,0.09640000760555267,-0.08923661708831787,0.18422873318195343
1772649093696885000,1.794885009765625,0.08380046486854553,-0.09204075485467911,0.2154204398393631
1772649093706930200,1.80493017578125,0.0739680677652359,-0.07126224040985107,0.21084459125995636
1772649093716974300,1.814974365234375,0.06883081793785095,-0.03300372138619423,0.183958038687706
1772649093727018200,1.825018310546875,0.06876770406961441,0.005846206098794937,0.13808295130729675
1772649093737062100,1.835062255859375,0.06972932070493698,0.013610582798719406,0.07556260377168655
1772649093747106000,1.84510595703125,0.06810292601585388,0.010789761319756508,0.006384598556905985
1772649093757151200,1.855151123046875,0.05380133166909218,-0.007339650299400091,-0.0505867563188076
1772649093767195100,1.865195068359375,0.022426366806030273,-0.03793590888381004,-0.0902462899684906
1772649093777239000,1.875239013671875,-0.027905426919460297,-0.07736530900001526,-0.1218736544251442
1772649093787283200,1.885283203125,-0.08898422867059708,-0.11641550809144974,-0.13402274250984192
1772649093797327400,1.895327392578125,-0.15532948076725006,-0.14117871224880219,-0.1397911161184311
1772649093807372000,1.9053720703125,-0.2243088036775589,-0.160807803273201,-0.14084599912166595
1772649093817416200,1.915416259765625,-0.29385024309158325,-0.1537572145462036,-0.1241445541381836
1772649093827460400,1.92546044921875,-0.352741003036499,-0.15063999593257904,-0.10795173048973083
1772649093837504300,1.935504150390625,-0.411937952041626,-0.16804899275302887,-0.08925209939479828
1772649093847548200,1.945548095703125,-0.46580490469932556,-0.18794360756874084,-0.07649023085832596
1772649093857593300,1.95559326171875,-0.547687828540802,-0.19574403762817383,-0.0904146358370781
1772649093867637200,1.96563720703125,-0.6064241528511047,-0.23530583083629608,-0.13316155970096588
1772649093877681200,1.97568115234375,-0.5907147526741028,-0.20275892317295074,-0.13953042030334473
1772649093887725000,1.98572509765625,-0.5858171582221985,-0.15602177381515503,-0.15521138906478882
1772649093897769200,1.995769287109375,-0.6068634986877441,-0.1745525598526001,-0.19476723670959473
1772649093907814100,2.005814208984375,-0.6388927698135376,-0.18611733615398407,-0.22840243577957153
1772649093917858000,2.015858154296875,-0.6623787879943848,-0.1880800724029541,-0.26073095202445984
1772649093927902200,2.025902099609375,-0.6879922747612,-0.18006795644760132,-0.28668639063835144
1772649093937946000,2.035946044921875,-0.7108765840530396,-0.15626183152198792,-0.31646648049354553
1772649093947990300,2.045990234375,-0.784601628780365,-0.1191520169377327,-0.3823040723800659
1772649093958034200,2.0560341796875,-0.8062776327133179,-0.10255584120750427,-0.4116237163543701
1772649093968079000,2.0660791015625,-0.7790305614471436,-0.01854030415415764,-0.3768726587295532
1772649093978123300,2.076123291015625,-0.740899384021759,0.022923419252038002,-0.3252719044685364
1772649093988167200,2.086167236328125,-0.7349125742912292,0.012571180239319801,-0.2870861887931824
1772649093998211000,2.096211181640625,-0.7469006776809692,-0.01818351075053215,-0.25204208493232727
1772649094008255200,2.106255126953125,-0.7509060502052307,-0.042823608964681625,-0.21591021120548248
1772649094018300400,2.116300537109375,-0.7451005578041077,-0.07288796454668045,-0.18760614097118378
1772649094028344000,2.126343994140625,-0.7322574853897095,-0.09111011028289795,-0.1537666916847229
1772649094038388200,2.13638818359375,-0.7098249197006226,-0.08894773572683334,-0.1146780475974083
1772649094048432000,2.14643212890625,-0.6981310248374939,-0.09162288159132004,-0.07925640791654587
1772649094058476300,2.156476318359375,-0.6836256384849548,-0.10549812018871307,-0.05549990013241768
1772649094068521200,2.166521240234375,-0.6716297268867493,-0.12062620371580124,-0.04996372386813164
1772649094078565000,2.176565185546875,-0.6617037653923035,-0.14819009602069855,-0.06435919553041458
1772649094088609300,2.186609375,-0.6528468728065491,-0.15763206779956818,-0.09079799801111221
1772649094098653200,2.196653076171875,-0.644185483455658,-0.13452519476413727,-0.125215545296669
1772649094108697600,2.206697509765625,-0.6275846362113953,-0.11269126087427139,-0.16749802231788635
1772649094118742500,2.216742431640625,-0.6045103669166565,-0.09404690563678741,-0.2122500091791153
1772649094128786700,2.22678662109375,-0.5765799283981323,-0.07847966253757477,-0.2397756427526474
1772649094138830600,2.23683056640625,-0.5528344511985779,-0.06825795024633408,-0.2520941495895386
1772649094148874500,2.24687451171875,-0.535268247127533,-0.0699879378080368,-0.24368388950824738
1772649094158918700,2.256918701171875,-0.528885543346405,-0.0926971584558487,-0.21960560977458954
1772649094168963600,2.266963623046875,-0.5251315236091614,-0.13208983838558197,-0.1943788081407547
1772649094179007500,2.277007568359375,-0.5222791433334351,-0.1836870163679123,-0.1634204238653183
1772649094189051600,2.2870517578125,-0.5183501839637756,-0.24411147832870483,-0.1351480334997177
1772649094199095600,2.297095458984375,-0.5178426504135132,-0.3055494725704193,-0.10476764291524887
1772649094209139700,2.3071396484375,-0.5153022408485413,-0.35321953892707825,-0.06484366208314896
1772649094219183400,2.317183349609375,-0.5193213224411011,-0.368949830532074,-0.022049913182854652
1772649094229228500,2.327228515625,-0.5257081389427185,-0.3782658278942108,0.009093359112739563
1772649094239272700,2.337272705078125,-0.5274809002876282,-0.35653555393218994,0.025067148730158806
1772649094249316400,2.34731640625,-0.5253770351409912,-0.3125534653663635,0.01931551843881607
1772649094259360500,2.357360595703125,-0.5139836668968201,-0.2602950632572174,0.004061534535139799
1772649094269404700,2.36740478515625,-0.49735569953918457,-0.19270560145378113,-0.004966314882040024
1772649094279449300,2.377449462890625,-0.4785429835319519,-0.13635724782943726,-0.004642445594072342
1772649094289493500,2.387493408203125,-0.46744826436042786,-0.0920528993010521,0.005753470119088888
1772649094299537700,2.39753759765625,-0.44421422481536865,-0.06538961082696915,0.007264087442308664
1772649094309581600,2.40758154296875,-0.4160473048686981,-0.08119333535432816,0.011161623522639275
1772649094319625700,2.417625732421875,-0.3876613974571228,-0.1289408951997757,0.01726885512471199
1772649094329670700,2.427670654296875,-0.37560713291168213,-0.18932221829891205,0.02899928204715252
1772649094339714600,2.437714599609375,-0.3918118178844452,-0.24432651698589325,0.05294486880302429
1772649094349758700,2.4477587890625,-0.42445898056030273,-0.31172606348991394,0.06284543871879578
1772649094359802400,2.45780224609375,-0.4688834846019745,-0.399615079164505,0.04912041500210762
1772649094369846500,2.467846435546875,-0.5163892507553101,-0.48457977175712585,0.01632784679532051
1772649094379891700,2.4778916015625,-0.5511800646781921,-0.5441683530807495,-0.026119187474250793
1772649094389935600,2.487935546875,-0.5668234825134277,-0.570647120475769,-0.06944136321544647
1772649094399979500,2.4979794921875,-0.5599195957183838,-0.523316502571106,-0.08207730203866959
1772649094410023400,2.5080234375,-0.5306512117385864,-0.3940296173095703,-0.05920207500457764
1772649094420067600,2.518067626953125,-0.49036601185798645,-0.21550464630126953,-0.0027554291300475597
1772649094430112500,2.528112548828125,-0.4395228326320648,-0.03338438272476196,0.07848456501960754
1772649094440156400,2.538156494140625,-0.3799129128456116,0.12479226291179657,0.1680525839328766
1772649094450200600,2.54820068359375,-0.3239383101463318,0.20913855731487274,0.2498805969953537
1772649094460244700,2.55824462890625,-0.272958904504776,0.2063499540090561,0.32579466700553894
1772649094470288600,2.56828857421875,-0.23575933277606964,0.1372518390417099,0.38885247707366943
1772649094480332500,2.57833251953125,-0.20958106219768524,0.021165117621421814,0.4468494951725006
1772649094490377700,2.588377685546875,-0.19685781002044678,-0.12971708178520203,0.49682503938674927
1772649094500421600,2.598421630859375,-0.18490657210350037,-0.2765685021877289,0.5314295887947083
1772649094510465500,2.608465576171875,-0.18786799907684326,-0.38868892192840576,0.5613816380500793
1772649094520509400,2.618509521484375,-0.20557941496372223,-0.4772776663303375,0.5693979263305664
1772649094530553600,2.6285537109375,-0.23396551609039307,-0.5117384195327759,0.5596529245376587
1772649094540598500,2.6385986328125,-0.2729981243610382,-0.4618312120437622,0.5178800225257874
1772649094550642400,2.648642333984375,-0.31899595260620117,-0.39307478070259094,0.4396316111087799
1772649094560686600,2.6586865234375,-0.3725956380367279,-0.31961166858673096,0.3262367248535156
1772649094570730500,2.66873046875,-0.4238628149032593,-0.24900780618190765,0.1936752200126648
1772649094580774700,2.678774658203125,-0.48072129487991333,-0.18123434484004974,0.06742727011442184
1772649094590819600,2.688819580078125,-0.5342601537704468,-0.14160571992397308,-0.036857858300209045
1772649094600863500,2.698863525390625,-0.5842602252960205,-0.13471391797065735,-0.10194001346826553
1772649094610907600,2.70890771484375,-0.6198326349258423,-0.15086784958839417,-0.13198073208332062
1772649094620951600,2.71895166015625,-0.6411113739013672,-0.15558169782161713,-0.12513598799705505
1772649094630995500,2.728995361328125,-0.6440243721008301,-0.14284805953502655,-0.0868421345949173
1772649094641040600,2.73904052734375,-0.6346378326416016,-0.11228610575199127,-0.02628006599843502
1772649094651084500,2.74908447265625,-0.6199257373809814,-0.06564989686012268,0.0344485267996788
1772649094661128400,2.75912841796875,-0.600989818572998,-0.015653815120458603,0.08638555556535721
1772649094671172600,2.769172607421875,-0.574181079864502,0.03238348662853241,0.11864762008190155
1772649094681216500,2.779216552734375,-0.5384954214096069,0.07393213361501694,0.1342158317565918
1772649094691261400,2.789261474609375,-0.49426862597465515,0.10346020013093948,0.1331273913383484
1772649094701305600,2.7993056640625,-0.4469830393791199,0.11530409753322601,0.12555022537708282
1772649094711349500,2.809349609375,-0.3983268141746521,0.09547527134418488,0.10707961022853851
1772649094721393700,2.8193935546875,-0.35547706484794617,0.06998264789581299,0.07943367213010788
1772649094731437600,2.8294375,-0.3064298927783966,0.03967880830168724,0.05779895558953285
1772649094741481500,2.8394814453125,-0.2623908221721649,0.0026187230832874775,0.028606465086340904
1772649094751526700,2.849526611328125,-0.23437198996543884,-0.05187834054231644,-0.009315883740782738
1772649094761570600,2.859570556640625,-0.21915209293365479,-0.0996796041727066,-0.058488380163908005
1772649094771614500,2.869614501953125,-0.2160652130842209,-0.1394086331129074,-0.11614688485860825
1772649094781658600,2.87965869140625,-0.21042664349079132,-0.17301151156425476,-0.17700965702533722
1772649094791702500,2.88970263671875,-0.2010219544172287,-0.17270870506763458,-0.2335139513015747
1772649094801747500,2.89974755859375,-0.1878746896982193,-0.13420264422893524,-0.2776179313659668
1772649094811791600,2.90979150390625,-0.17563720047473907,-0.06917250156402588,-0.30904749035835266
1772649094821835500,2.91983544921875,-0.1640533208847046,0.006816508714109659,-0.33614522218704224
1772649094831879700,2.929879638671875,-0.15415142476558685,0.08265374600887299,-0.34890016913414
1772649094841923600,2.939923583984375,-0.14368899166584015,0.13761094212532043,-0.36402639746665955
1772649094851968500,2.949968505859375,-0.1336965411901474,0.1583889126777649,-0.3769030272960663
1772649094862012700,2.9600126953125,-0.128633514046669,0.16811828315258026,-0.38640913367271423
1772649094872056600,2.970056640625,-0.12306884676218033,0.1697489321231842,-0.38895565271377563
1772649094882100500,2.9801005859375,-0.11979024112224579,0.17075595259666443,-0.3678235411643982
1772649094892144400,2.990144287109375,-0.12120518088340759,0.20270350575447083,-0.3294985294342041
1772649094902189600,3.000189453125,-0.11823705583810806,0.225941464304924,-0.2855614423751831
1772649094912233500,3.0102333984375,-0.1114417314529419,0.24083732068538666,-0.250757098197937
1772649094922277400,3.02027734375,-0.10085847973823547,0.2456890493631363,-0.2245378941297531
1772649094932321500,3.030321533203125,-0.08008848875761032,0.24703796207904816,-0.2066507637500763
1772649094942365700,3.04036572265625,-0.05768440291285515,0.24861185252666473,-0.18465304374694824
1772649094952409600,3.05040966796875,-0.04228414222598076,0.2833749055862427,-0.1456931233406067
1772649094962454500,3.06045458984375,-0.0338829942047596,0.30112114548683167,-0.09832222759723663
1772649094972498700,3.070498779296875,-0.03285608068108559,0.2763998210430145,-0.04552718997001648
1772649094982542600,3.08054248046875,-0.0227383803576231,0.2516787648200989,0.01576552540063858
1772649094992586500,3.09058642578125,-0.014400022104382515,0.24761612713336945,0.08439411967992783
1772649095002630400,3.10063037109375,-0.0032335917931050062,0.2696510851383209,0.154232919216156
1772649095012675600,3.110675537109375,-0.006283443886786699,0.2526199221611023,0.20536774396896362
1772649095022719700,3.1207197265625,-0.01181115210056305,0.22250749170780182,0.23821039497852325
1772649095032763400,3.130763427734375,-0.006173240020871162,0.18904753029346466,0.26168859004974365
1772649095042807600,3.1408076171875,0.01827850565314293,0.16832663118839264,0.2739088535308838
1772649095052851700,3.150851806640625,0.04697752743959427,0.15386593341827393,0.27850013971328735
1772649095062896400,3.160896484375,0.06532862782478333,0.19132809340953827,0.2964445948600769
1772649095072940500,3.1709404296875,0.06643490493297577,0.24950669705867767,0.31774774193763733
1772649095082984400,3.180984375,0.055320385843515396,0.29092761874198914,0.33106642961502075
1772649095093028600,3.191028564453125,0.05041351169347763,0.31723752617836,0.3370409607887268
1772649095103072800,3.20107275390625,0.05707956850528717,0.33700868487358093,0.3368058502674103
1772649095113116700,3.21111669921875,0.06919428706169128,0.327029287815094,0.3239576816558838
1772649095123160800,3.221160888671875,0.07223589718341827,0.30038687586784363,0.28985288739204407
1772649095133205000,3.231205078125,0.06841745972633362,0.27648472785949707,0.23869489133358002
1772649095143249000,3.241248779296875,0.07288729399442673,0.25119683146476746,0.1856141984462738
1772649095153292800,3.251292724609375,0.08992060273885727,0.23712363839149475,0.1160564124584198
1772649095163336700,3.261336669921875,0.11538217216730118,0.2143160104751587,0.04319494217634201
1772649095173382000,3.2713818359375,0.1379559338092804,0.19982440769672394,-0.028162596747279167
1772649095183425800,3.28142578125,0.15073788166046143,0.21501247584819794,-0.08275654911994934
1772649095193469700,3.2914697265625,0.15234589576721191,0.22636446356773376,-0.12448827922344208
1772649095203513900,3.301513916015625,0.15156055986881256,0.18997354805469513,-0.1549815684556961
1772649095213558000,3.31155810546875,0.15042339265346527,0.1176370307803154,-0.18836909532546997
1772649095223602700,3.321602783203125,0.13680952787399292,0.028895489871501923,-0.2249854952096939
1772649095233646800,3.331646728515625,0.11173480749130249,-0.0638861134648323,-0.2517888844013214
1772649095243691000,3.34169091796875,0.08029802143573761,-0.1382516473531723,-0.262065589427948
1772649095253735000,3.35173486328125,0.04828549176454544,-0.19956400990486145,-0.259748637676239
1772649095263778800,3.36177880859375,0.005742513108998537,-0.2577795088291168,-0.26651400327682495
1772649095273823700,3.37182373046875,-0.03836715966463089,-0.2988385260105133,-0.2745937705039978
1772649095283868000,3.381867919921875,-0.07675778865814209,-0.29084867238998413,-0.27234843373298645
1772649095293911800,3.391911865234375,-0.09436900913715363,-0.21590305864810944,-0.2455437183380127
1772649095303955700,3.401955810546875,-0.09569376707077026,-0.054111357778310776,-0.1781686395406723
1772649095314000000,3.411999755859375,-0.08702331781387329,0.15174166858196259,-0.06897316128015518
1772649095324043800,3.422043701171875,-0.07854152470827103,0.30906277894973755,0.047126755118370056
1772649095334088700,3.432088623046875,-0.058737464249134064,0.37740376591682434,0.16520892083644867
1772649095344132900,3.4421328125,-0.014003262855112553,0.374483197927475,0.2784331142902374
1772649095354176800,3.4521767578125,0.03569185733795166,0.30818191170692444,0.368647962808609
1772649095364221000,3.462220947265625,0.08746255934238434,0.21709860861301422,0.4397071599960327
1772649095374264800,3.472264892578125,0.12948989868164062,0.10909382998943329,0.4877580404281616
1772649095384309800,3.482309814453125,0.16465149819850922,-0.015636630356311798,0.5091878771781921
1772649095394354000,3.49235400390625,0.1876891702413559,-0.13102740049362183,0.5107694864273071
1772649095404398000,3.502398193359375,0.20249810814857483,-0.229559525847435,0.48490604758262634
1772649095414441700,3.512441650390625,0.20504435896873474,-0.283752977848053,0.4473666846752167
1772649095424486000,3.52248583984375,0.20266291499137878,-0.28276076912879944,0.41140761971473694
1772649095434530800,3.53253076171875,0.1951858252286911,-0.2343926876783371,0.3737558424472809
1772649095444574700,3.54257470703125,0.18090079724788666,-0.17625342309474945,0.32501399517059326
1772649095454619000,3.552618896484375,0.15816698968410492,-0.12520010769367218,0.26322972774505615
1772649095464662800,3.562662841796875,0.13895726203918457,-0.0921202003955841,0.19706982374191284
1772649095474707000,3.57270703125,0.1282755732536316,-0.08588095009326935,0.11898407340049744
1772649095484752000,3.582751953125,0.12242994457483292,-0.10378211736679077,0.030451994389295578
1772649095494795800,3.592795654296875,0.11969807744026184,-0.12850743532180786,-0.060608409345149994
1772649095504840000,3.60283984375,0.12357382476329803,-0.11209996789693832,-0.14004963636398315
1772649095514883800,3.6128837890625,0.13252471387386322,-0.06724248081445694,-0.21425755321979523
1772649095524927700,3.622927734375,0.14882706105709076,0.003727662842720747,-0.2846023142337799
1772649095534972000,3.632971923828125,0.16922447085380554,0.07607109844684601,-0.3333296477794647
1772649095545016800,3.643016845703125,0.19190853834152222,0.1318228542804718,-0.36727777123451233
1772649095555060700,3.653060791015625,0.21506446599960327,0.14844976365566254,-0.3827289044857025
1772649095565105000,3.66310498046875,0.2359880954027176,0.12786491215229034,-0.3772614896297455
1772649095575148800,3.673148681640625,0.25419822335243225,0.08221299201250076,-0.3682863712310791
1772649095585193000,3.68319287109375,0.2835163176059723,0.030288560315966606,-0.352267861366272
1772649095595238000,3.69323779296875,0.2992982268333435,-0.03502706438302994,-0.33437222242355347
1772649095605281800,3.70328173828125,0.3012401759624481,-0.10753830522298813,-0.3048018217086792
1772649095615326000,3.713325927734375,0.30125322937965393,-0.1533319056034088,-0.2648884952068329
1772649095625369900,3.723369873046875,0.3045094609260559,-0.18327489495277405,-0.2210557907819748
1772649095635413800,3.733413818359375,0.3031540811061859,-0.19722919166088104,-0.18378375470638275
1772649095645459000,3.743458984375,0.29165008664131165,-0.1735786497592926,-0.1367100030183792
1772649095655502800,3.7535029296875,0.2703370749950409,-0.1388334482908249,-0.09867420047521591
1772649095665547000,3.763547119140625,0.24738062918186188,-0.09157554060220718,-0.07027275115251541
1772649095675590700,3.773590576171875,0.22549530863761902,-0.02537868544459343,-0.05351400747895241
1772649095685634800,3.783634765625,0.20026451349258423,0.045422252267599106,-0.039720963686704636
1772649095695679000,3.793678955078125,0.16895753145217896,0.09950091689825058,-0.03386353701353073
1772649095705723600,3.8037236328125,0.1302872598171234,0.11662791669368744,-0.037324629724025726
1772649095715767800,3.813767822265625,0.08394665271043777,0.09304802119731903,-0.04986226186156273
1772649095725812000,3.82381201171875,0.03242773190140724,0.04035720229148865,-0.06931973993778229
1772649095735855900,3.83385595703125,-0.023865366354584694,-0.026112902909517288,-0.10606443881988525
1772649095745900000,3.843900146484375,-0.0796470046043396,-0.07009996473789215,-0.1439870148897171
1772649095755945000,3.853945068359375,-0.12695007026195526,-0.09490597993135452,-0.17688371241092682
1772649095765988900,3.86398876953125,-0.17517808079719543,-0.10151232779026031,-0.20690356194972992
1772649095776033000,3.874032958984375,-0.21294036507606506,-0.10221061110496521,-0.23976829648017883
1772649095786076700,3.88407666015625,-0.250552237033844,-0.08848555386066437,-0.27549993991851807
1772649095796120800,3.894120849609375,-0.28530117869377136,-0.055063679814338684,-0.3133338689804077
1772649095806166000,3.904166015625,-0.3215857148170471,-0.016913587227463722,-0.34671902656555176
1772649095816210000,3.9142099609375,-0.35995519161224365,0.029348183423280716,-0.36777666211128235
1772649095826253800,3.92425390625,-0.39725732803344727,0.06585312634706497,-0.3755011558532715
1772649095836297700,3.934297607421875,-0.4265265464782715,0.08557676523923874,-0.3746175169944763
1772649095846342000,3.944341796875,-0.44872769713401794,0.09657534956932068,-0.3592952787876129
1772649095856386000,3.954385986328125,-0.4712311625480652,0.08786335587501526,-0.3354448080062866
1772649095866430700,3.9644306640625,-0.49199938774108887,0.09997629374265671,-0.29831862449645996
1772649095876475000,3.974474853515625,-0.5097509622573853,0.11413845419883728,-0.2566598653793335
1772649095886519000,3.98451904296875,-0.5316131711006165,0.12688349187374115,-0.21069854497909546
1772649095896562700,3.994562744140625,-0.552865743637085,0.13504740595817566,-0.16923604905605316
1772649095906606800,4.00460693359375,-0.5739659070968628,0.12525612115859985,-0.13570690155029297
1772649095916652000,4.014652099609375,-0.5912284851074219,0.11146148294210434,-0.11158530414104462
1772649095926696000,4.024696044921875,-0.612359881401062,0.09016909450292587,-0.09378483146429062
1772649095936739800,4.03473974609375,-0.6248490214347839,0.06497611850500107,-0.08576605468988419
1772649095946783700,4.04478369140625,-0.6441450119018555,0.03934818506240845,-0.07656402140855789
1772649095956828000,4.054827880859375,-0.6664301156997681,-0.014185079373419285,-0.05917437747120857
1772649095966871800,4.064871826171875,-0.6808155179023743,-0.07348860800266266,-0.04752018302679062
1772649095976916700,4.074916748046875,-0.6914782524108887,-0.11704140901565552,-0.02099856175482273
1772649095986961000,4.0849609375,-0.7161006927490234,-0.14416344463825226,0.014024832285940647
1772649095997004800,4.0950048828125,-0.7684634923934937,-0.1582249253988266,0.051947180181741714
1772649096007049000,4.105049072265625,-0.832188606262207,-0.16504457592964172,0.09708692133426666
1772649096017092900,4.1150927734375,-0.8902878761291504,-0.1559235155582428,0.1390194445848465
1772649096027137800,4.1251376953125,-0.9382954835891724,-0.14814291894435883,0.1890506148338318
1772649096037182000,4.135181884765625,-0.9846611022949219,-0.14988702535629272,0.2542690336704254
1772649096047225900,4.145225830078125,-1.0153427124023438,-0.13890716433525085,0.3334195017814636
1772649096057269800,4.155269775390625,-1.043171763420105,-0.1454060822725296,0.3975380063056946
1772649096067314000,4.16531396484375,-1.068658709526062,-0.17545923590660095,0.41998037695884705
1772649096077358800,4.17535888671875,-1.0770255327224731,-0.220603808760643,0.393049418926239
1772649096087402800,4.18540283203125,-1.072274923324585,-0.2773928940296173,0.3396657109260559
1772649096097447000,4.195447021484375,-1.0761276483535767,-0.314248651266098,0.28871119022369385
1772649096107490800,4.20549072265625,-1.0970790386199951,-0.30001506209373474,0.25994932651519775
1772649096117535000,4.215534912109375,-1.14926016330719,-0.2642536163330078,0.24183927476406097
1772649096127578600,4.22557861328125,-1.2155051231384277,-0.22237637639045715,0.21837615966796875
1772649096137623800,4.235623779296875,-1.276534080505371,-0.161813423037529,0.1620260626077652
1772649096147668000,4.24566796875,-1.33341646194458,-0.08683667331933975,0.08668164163827896
1772649096157712000,4.2557119140625,-1.3727349042892456,-0.027219951152801514,-0.01514485664665699
1772649096167755800,4.265755859375,-1.3910799026489258,-0.02860325202345848,-0.13629908859729767
1772649096177799700,4.275799560546875,-1.395169973373413,-0.07910238206386566,-0.26322507858276367
1772649096187844900,4.285844970703125,-1.3665344715118408,-0.14798250794410706,-0.3657251298427582
1772649096197888800,4.295888671875,-1.3230115175247192,-0.2383297085762024,-0.4491180181503296
1772649096207932700,4.3059326171875,-1.2696126699447632,-0.34267085790634155,-0.4999011754989624
1772649096217976800,4.315976806640625,-1.213346242904663,-0.4446510076522827,-0.5059638619422913
1772649096228021000,4.32602099609375,-1.1607739925384521,-0.5025145411491394,-0.4481795132160187
1772649096238065700,4.336065673828125,-1.1022968292236328,-0.495442271232605,-0.3277718722820282
1772649096248109800,4.34610986328125,-1.0337790250778198,-0.42394575476646423,-0.1520911157131195
1772649096258154000,4.356154052734375,-0.9741358757019043,-0.3056281805038452,0.044905297458171844
1772649096268198000,4.366197998046875,-0.9258415699005127,-0.16207142174243927,0.23517180979251862
1772649096278241800,4.37624169921875,-0.885693371295929,-0.034921981394290924,0.37769195437431335
1772649096288285700,4.38628564453125,-0.8446062803268433,0.05240347981452942,0.45129549503326416
1772649096298331000,4.396330810546875,-0.8068557381629944,0.09255675226449966,0.46939805150032043
1772649096308374800,4.406374755859375,-0.7803159356117249,0.10850861668586731,0.4427849054336548
1772649096318418700,4.416418701171875,-0.7674872279167175,0.11015444993972778,0.37855052947998047
1772649096328462800,4.426462890625,-0.7633718848228455,0.12309811264276505,0.28724005818367004
1772649096338506800,4.4365068359375,-0.7499069571495056,0.1694198101758957,0.17860251665115356
1772649096348551700,4.4465517578125,-0.7341099381446838,0.2473665177822113,0.061672382056713104
1772649096358595800,4.456595947265625,-0.7355251312255859,0.3236178755760193,-0.04945174232125282
1772649096368639700,4.4666396484375,-0.7504540681838989,0.3705320358276367,-0.1540210098028183
1772649096378684000,4.476683837890625,-0.7737082839012146,0.38031116127967834,-0.2392088770866394
1772649096388727800,4.486727783203125,-0.7967192530632019,0.3522351384162903,-0.29226943850517273
1772649096398771700,4.496771728515625,-0.8262665271759033,0.2761502265930176,-0.31306952238082886
1772649096408817000,4.50681689453125,-0.8612040281295776,0.15918715298175812,-0.2970333695411682
1772649096418860800,4.51686083984375,-0.8985535502433777,0.03976089134812355,-0.24983710050582886
1772649096428904700,4.52690478515625,-0.9273561239242554,-0.06844474375247955,-0.17778973281383514
1772649096438948900,4.536948974609375,-0.945842981338501,-0.1496698260307312,-0.10081718862056732
1772649096448992800,4.54699267578125,-0.9566508531570435,-0.17501577734947205,-0.032720260322093964
1772649096459037700,4.55703759765625,-0.9507266879081726,-0.15858595073223114,0.008836772292852402
1772649096469081900,4.567081787109375,-0.9239382147789001,-0.09331099689006805,0.03748031705617905
1772649096479125800,4.577125732421875,-0.8875168561935425,-0.015200220048427582,0.053644903004169464
1772649096489170000,4.587169921875,-0.8546562194824219,0.03736824914813042,0.06479161232709885
1772649096499213600,4.597213623046875,-0.8254892826080322,0.06079075112938881,0.07151396572589874
1772649096509258800,4.6072587890625,-0.8042190670967102,0.06327808648347855,0.07285155355930328
1772649096519303000,4.617302978515625,-0.7794761657714844,0.05186937376856804,0.06554143875837326
1772649096529346800,4.627346923828125,-0.7535263895988464,0.026750102639198303,0.050863709300756454
1772649096539390700,4.637390625,-0.7289965152740479,-0.02279934100806713,0.03744244575500488
1772649096549435000,4.647434814453125,-0.7103672027587891,-0.08613448590040207,0.019054746255278587
1772649096559478800,4.657478759765625,-0.694232165813446,-0.1482495218515396,-0.0005754153244197369
1772649096569523700,4.667523681640625,-0.6808174848556519,-0.2041609138250351,-0.01767505705356598
1772649096579567900,4.67756787109375,-0.6788874864578247,-0.2423192262649536,-0.04311783239245415
1772649096589611800,4.68761181640625,-0.6752968430519104,-0.24973554909229279,-0.08189992606639862
1772649096599656000,4.697656005859375,-0.66867595911026,-0.2332758903503418,-0.13426460325717926
1772649096609699800,4.707699951171875,-0.6682504415512085,-0.19026592373847961,-0.20279836654663086
1772649096619744800,4.717744873046875,-0.6639465093612671,-0.12652051448822021,-0.268471360206604
1772649096629789000,4.727788818359375,-0.6453109979629517,-0.07255174219608307,-0.3293251693248749
1772649096639832800,4.737832763671875,-0.6186468601226807,-0.03801480680704117,-0.3613046705722809
1772649096649876700,4.747876708984375,-0.5858244895935059,-0.022018389776349068,-0.34968993067741394
1772649096659920600,4.757920654296875,-0.5558854937553406,-0.00030537135899066925,-0.29221174120903015
1772649096669964800,4.76796484375,-0.5318198204040527,0.011128686368465424,-0.21478597819805145
1772649096680009700,4.778009765625,-0.5048412084579468,0.009760620072484016,-0.13382935523986816
1772649096690053600,4.7880537109375,-0.4722647964954376,0.028006454929709435,-0.05863192304968834
1772649096700097800,4.798097900390625,-0.43645378947257996,0.04078936576843262,-0.009801533073186874
1772649096710142000,4.808141845703125,-0.387495219707489,0.043810900300741196,0.029948431998491287
1772649096720185900,4.818185791015625,-0.3383242189884186,0.04395444691181183,0.05548974499106407
1772649096730230800,4.828230712890625,-0.2972484827041626,0.043865691870450974,0.07927951216697693
1772649096740275000,4.83827490234375,-0.2686586380004883,0.020879948511719704,0.08540184795856476
1772649096750318800,4.84831884765625,-0.25833430886268616,-0.01617722399532795,0.07480183243751526
1772649096760362800,4.85836279296875,-0.25806477665901184,-0.054474011063575745,0.04669428989291191
1772649096770406700,4.86840673828125,-0.26236313581466675,-0.09954173862934113,0.02280876412987709
1772649096780451800,4.878451904296875,-0.2797940671443939,-0.1499929279088974,0.0051828972063958645
1772649096790496000,4.88849609375,-0.3096029758453369,-0.16857682168483734,0.006273152306675911
1772649096800539600,4.89853955078125,-0.3616965115070343,-0.13623300194740295,0.036985527724027634
1772649096810583800,4.908583740234375,-0.4051707983016968,-0.05034841224551201,0.10487981140613556
1772649096820628000,4.9186279296875,-0.4176754057407379,0.06448309868574142,0.198041170835495
1772649096830672000,4.928671875,-0.3754090368747711,0.20905840396881104,0.3143998682498932
1772649096840716800,4.938716796875,-0.32475996017456055,0.3454034626483917,0.4032469391822815
1772649096850760700,4.9487607421875,-0.28365495800971985,0.4126552641391754,0.4516795575618744
1772649096860804900,4.958804931640625,-0.2726300060749054,0.40166521072387695,0.4560524523258209
1772649096870848800,4.968848876953125,-0.27285608649253845,0.33779048919677734,0.44155409932136536
1772649096880892700,4.978892578125,-0.27731820940971375,0.26908278465270996,0.42112234234809875
1772649096890937900,4.988937744140625,-0.29149913787841797,0.19892126321792603,0.3877994120121002
1772649096900980700,4.998980712890625,-0.321677029132843,0.10606296360492706,0.35148268938064575
1772649096911025000,5.00902490234375,-0.3776666820049286,-0.00659142667427659,0.300620436668396
1772649096921068800,5.01906884765625,-0.4490058422088623,-0.11451416462659836,0.24498115479946136
1772649096931112700,5.02911279296875,-0.5150758028030396,-0.19808003306388855,0.18688558042049408
1772649096941156900,5.039156982421875,-0.5659317970275879,-0.2624070942401886,0.13108810782432556
1772649096951201800,5.049201904296875,-0.6058938503265381,-0.3051854372024536,0.08832286298274994
1772649096961245700,5.05924560546875,-0.639228343963623,-0.33554574847221375,0.06657708436250687
1772649096971289900,5.069289794921875,-0.6609014272689819,-0.3136340379714966,0.0670877993106842
1772649096981333800,5.079333740234375,-0.6748452186584473,-0.24030467867851257,0.06478310376405716
1772649096991378000,5.0893779296875,-0.670953094959259,-0.14115847647190094,0.05262526497244835
1772649097001422800,5.0994228515625,-0.6533991098403931,-0.05862739309668541,0.02380000799894333
1772649097011466800,5.109466796875,-0.611121416091919,0.004651597701013088,0.0030319737270474434
1772649097021511000,5.119510986328125,-0.5617608428001404,0.08430035412311554,0.028644125908613205
1772649097031554800,5.129554931640625,-0.5255469679832458,0.16856054961681366,0.0871194452047348
1772649097041598700,5.1395986328125,-0.5067892670631409,0.22181284427642822,0.1514025628566742
1772649097051643000,5.149642822265625,-0.49042636156082153,0.2518163025379181,0.2130013257265091
1772649097061687800,5.159687744140625,-0.4659729599952698,0.25314390659332275,0.2547788619995117
1772649097071731700,5.169731689453125,-0.43324214220046997,0.2040029615163803,0.2702125012874603
1772649097081775900,5.17977587890625,-0.40678390860557556,0.11720441281795502,0.2727270722389221
1772649097091819800,5.18981982421875,-0.39127323031425476,0.022611074149608612,0.26274219155311584
1772649097101864000,5.199864013671875,-0.3855634331703186,-0.06121751293540001,0.2400113195180893
1772649097111908600,5.20990869140625,-0.3911638557910919,-0.12329632043838501,0.20210833847522736
1772649097121952500,5.219952392578125,-0.40278133749961853,-0.16042210161685944,0.14747731387615204
1772649097131996700,5.22999658203125,-0.41367366909980774,-0.1820778101682663,0.07971949130296707
1772649097142040600,5.24004052734375,-0.41612645983695984,-0.20751738548278809,-0.00016042718198150396
1772649097152084500,5.25008447265625,-0.4038563370704651,-0.2280649095773697,-0.08025388419628143
1772649097162128400,5.26012841796875,-0.38918474316596985,-0.24328488111495972,-0.1510007530450821
1772649097172173600,5.270173583984375,-0.37086164951324463,-0.24243192374706268,-0.1966848075389862
1772649097182217500,5.280217529296875,-0.3563128113746643,-0.230227991938591,-0.2217976152896881
1772649097192261400,5.290261474609375,-0.3382229506969452,-0.22756469249725342,-0.23829039931297302
1772649097202305500,5.300305419921875,-0.304842084646225,-0.22841930389404297,-0.24601995944976807
1772649097212349700,5.310349609375,-0.2595829665660858,-0.2224959433078766,-0.23955745995044708
1772649097222394400,5.320394287109375,-0.20576687157154083,-0.2043403685092926,-0.2111189067363739
1772649097232438500,5.3304384765625,-0.1680305302143097,-0.16536766290664673,-0.17628782987594604
1772649097242483700,5.340483642578125,-0.13885746896266937,-0.11982733756303787,-0.12762707471847534
1772649097252527400,5.35052734375,-0.11483675986528397,-0.06653410941362381,-0.08771838247776031
1772649097262571500,5.360571533203125,-0.09063581377267838,-0.033215831965208054,-0.06163777783513069
1772649097272616700,5.37061669921875,-0.07536520808935165,-0.02614651434123516,-0.04278119280934334
1772649097282660600,5.38066064453125,-0.07359420508146286,-0.04558945447206497,-0.041188087314367294
1772649097292704500,5.39070458984375,-0.07659553736448288,-0.07599949091672897,-0.05169081315398216
1772649097302748400,5.40074853515625,-0.08604337275028229,-0.11492425203323364,-0.06668014824390411
1772649097312792600,5.41079248046875,-0.09629827737808228,-0.1436755657196045,-0.08355265110731125
1772649097322836700,5.420836669921875,-0.10884203016757965,-0.1661939173936844,-0.10056812316179276
1772649097332881400,5.43088134765625,-0.13564878702163696,-0.18592020869255066,-0.11985120922327042
1772649097342925600,5.440925537109375,-0.15363605320453644,-0.2047594040632248,-0.15278387069702148
1772649097352969700,5.4509697265625,-0.16146734356880188,-0.2232731729745865,-0.19853350520133972
1772649097363013600,5.461013671875,-0.16362130641937256,-0.23639030754566193,-0.25098711252212524
1772649097373057500,5.4710576171875,-0.15947893261909485,-0.24747541546821594,-0.30773210525512695
1772649097383102700,5.481102783203125,-0.1585436314344406,-0.2660309672355652,-0.3576410710811615
1772649097393146600,5.491146728515625,-0.15351496636867523,-0.2767705023288727,-0.3747383952140808
1772649097403190500,5.5011904296875,-0.14633774757385254,-0.29498305916786194,-0.35269543528556824
1772649097413234400,5.511234375,-0.14676809310913086,-0.29444339871406555,-0.3031671345233917
1772649097423278600,5.521278564453125,-0.14901340007781982,-0.30148372054100037,-0.2325909584760666
1772649097433322800,5.53132275390625,-0.15891070663928986,-0.29441842436790466,-0.15984922647476196
1772649097443367400,5.541367431640625,-0.16960330307483673,-0.26741984486579895,-0.10327862203121185
1772649097453411600,5.55141162109375,-0.17105332016944885,-0.22485044598579407,-0.08246684819459915
1772649097463455700,5.561455810546875,-0.16548171639442444,-0.17837482690811157,-0.08976071327924728
1772649097473499600,5.571499755859375,-0.16182841360569,-0.1436200737953186,-0.11993484944105148
1772649097483543600,5.58154345703125,-0.16518878936767578,-0.12798093259334564,-0.14914973080158234
1772649097493588500,5.59158837890625,-0.17167216539382935,-0.12956716120243073,-0.1740218997001648
1772649097503632600,5.601632568359375,-0.1786179542541504,-0.16221672296524048,-0.17767922580242157
1772649097513676500,5.611676513671875,-0.19292736053466797,-0.19519905745983124,-0.17198576033115387
1772649097523720400,5.621720458984375,-0.19888831675052643,-0.2157522737979889,-0.14513230323791504
1772649097533764600,5.6317646484375,-0.21031171083450317,-0.23097306489944458,-0.11902958154678345
1772649097543808500,5.64180859375,-0.2278779149055481,-0.2451501339673996,-0.08563593775033951
1772649097553853400,5.651853515625,-0.2518712878227234,-0.26862505078315735,-0.05350697785615921
1772649097563897600,5.661897705078125,-0.27604585886001587,-0.3039737045764923,-0.025016216561198235
1772649097573941500,5.67194140625,-0.30060356855392456,-0.34116604924201965,-0.006919709499925375
1772649097583985700,5.681985595703125,-0.31635376811027527,-0.36230677366256714,-0.002748400205746293
1772649097594029600,5.692029541015625,-0.3273359537124634,-0.3649032711982727,-0.007994716055691242
1772649097604074500,5.702074462890625,-0.3270496726036072,-0.35952261090278625,-0.02299550175666809
1772649097614118700,5.71211865234375,-0.3212307393550873,-0.33613115549087524,-0.03884740173816681
1772649097624162600,5.72216259765625,-0.32167255878448486,-0.27773547172546387,-0.054713450372219086
1772649097634206500,5.73220654296875,-0.32876408100128174,-0.19502221047878265,-0.054749470204114914
1772649097644250600,5.742250732421875,-0.3039056062698364,-0.09970740973949432,-0.04560151323676109
1772649097654294500,5.75229443359375,-0.25540927052497864,-0.005505837500095367,-0.03009318746626377
1772649097664339500,5.76233935546875,-0.2091435045003891,0.05423605442047119,-0.04092426598072052
1772649097674383600,5.772383544921875,-0.18054169416427612,0.0697251558303833,-0.08636754751205444
1772649097684427500,5.782427490234375,-0.14771823585033417,0.05862803012132645,-0.14602848887443542
1772649097694471700,5.7924716796875,-0.10398946702480316,0.026770584285259247,-0.1974891573190689
1772649097704515600,5.802515625,-0.06813719868659973,-0.029977917671203613,-0.22860127687454224
1772649097714560500,5.812560546875,-0.04528825357556343,-0.09834922850131989,-0.22734953463077545
1772649097724604700,5.822604736328125,-0.06395461410284042,-0.1588304191827774,-0.21071329712867737
1772649097734648600,5.832648681640625,-0.09715982526540756,-0.1904088407754898,-0.1864488571882248
1772649097744692500,5.8426923828125,-0.12482900172472,-0.18760479986667633,-0.15033479034900665
1772649097754736600,5.852736572265625,-0.13850939273834229,-0.15181989967823029,-0.11502419412136078
1772649097764781600,5.862781494140625,-0.13690032064914703,-0.09482318162918091,-0.07575029134750366
1772649097774825500,5.872825439453125,-0.14320676028728485,-0.015289926901459694,-0.03808802366256714
1772649097784869600,5.88286962890625,-0.15022630989551544,0.06856077164411545,-0.02088426984846592
1772649097794913500,5.89291357421875,-0.14665809273719788,0.13616278767585754,-0.014165063388645649
1772649097804957700,5.902957763671875,-0.13445068895816803,0.19865013659000397,-0.006546557880938053
1772649097815001600,5.913001708984375,-0.1172240823507309,0.2393481284379959,0.0009431530488654971
1772649097825046500,5.923046630859375,-0.11458222568035126,0.27028581500053406,0.007916107773780823
1772649097835090700,5.933090576171875,-0.1277284324169159,0.29708167910575867,0.008427451364696026
1772649097845134600,5.943134521484375,-0.14653195440769196,0.33422157168388367,0.023681772872805595
1772649097855178500,5.953178466796875,-0.16766037046909332,0.3927559554576874,0.04332133010029793
1772649097865222400,5.963222412109375,-0.1798294186592102,0.4546286165714264,0.06991539150476456
1772649097875266600,5.9732666015625,-0.1771983504295349,0.5108624696731567,0.09422743320465088
1772649097885311500,5.9833115234375,-0.15828724205493927,0.5730491280555725,0.1281832605600357
1772649097895355400,5.99335546875,-0.12532082200050354,0.6220110058784485,0.162618488073349
1772649097905399600,6.003399658203125,-0.09736055880784988,0.648268461227417,0.17803871631622314
1772649097915443700,6.013443603515625,-0.07818786799907684,0.6490005850791931,0.17823906242847443
1772649097925487600,6.023487548828125,-0.07323944568634033,0.6195588111877441,0.15913167595863342
1772649097935532500,6.033532470703125,-0.06278134882450104,0.5538080930709839,0.13734012842178345
1772649097945576700,6.04357666015625,-0.05628855898976326,0.4671463966369629,0.1271764487028122
1772649097955620600,6.05362060546875,-0.06892447173595428,0.38614144921302795,0.1026403158903122
1772649097965664500,6.06366455078125,-0.09895560890436172,0.31409868597984314,0.06465058773756027
1772649097975708400,6.07370849609375,-0.14645937085151672,0.27111515402793884,0.032336555421352386
1772649097985752600,6.083752685546875,-0.19628286361694336,0.2198421061038971,-0.006838809233158827
1772649097995797800,6.0937978515625,-0.23382724821567535,0.14974255859851837,-0.049057479947805405
1772649098005841400,6.10384130859375,-0.26495614647865295,0.05304877460002899,-0.09748919308185577
1772649098015885600,6.113885498046875,-0.2964669466018677,-0.045929159969091415,-0.15393230319023132
1772649098025929500,6.123929443359375,-0.31239932775497437,-0.12207373231649399,-0.20098450779914856
1772649098035973600,6.1339736328125,-0.3265518546104431,-0.1556795984506607,-0.23017968237400055
1772649098046018600,6.1440185546875,-0.3303239643573761,-0.15897472202777863,-0.23676754534244537
1772649098056062500,6.1540625,-0.32370924949645996,-0.14270375669002533,-0.2266538292169571
1772649098066106600,6.164106689453125,-0.30742377042770386,-0.10479578375816345,-0.20198549330234528
1772649098076150500,6.174150634765625,-0.28028741478919983,-0.04468630626797676,-0.167648047208786
1772649098086194400,6.1841943359375,-0.24755904078483582,0.024128710851073265,-0.11866825073957443
1772649098096238600,6.194238525390625,-0.20712649822235107,0.07189822196960449,-0.07124077528715134
1772649098106283800,6.20428369140625,-0.1590431183576584,0.07510094344615936,-0.032920289784669876
1772649098116328700,6.21432861328125,-0.11521423608064651,0.04375506192445755,-0.007308814208954573
1772649098126372600,6.22437255859375,-0.07597122341394424,-0.009576606564223766,0.011294431053102016
1772649098136416800,6.234416748046875,-0.0377085879445076,-0.06888812780380249,0.017869172617793083
1772649098146460700,6.244460693359375,-0.008199963718652725,-0.10218723118305206,0.019736316055059433
1772649098156505600,6.254505615234375,0.0030434108339250088,-0.1015537828207016,0.012321174144744873
1772649098166549800,6.2645498046875,-0.0006290882593020797,-0.07050052285194397,-0.0067124380730092525
1772649098176593700,6.27459375,-0.0065659089013934135,-0.038635674864053726,-0.03864370286464691
1772649098186637600,6.284637451171875,-0.0015413231449201703,-0.008565389551222324,-0.07640892267227173
1772649098196681700,6.294681640625,0.005203665234148502,0.007753662299364805,-0.10980816185474396
1772649098206725600,6.3047255859375,0.005542498081922531,0.005781957414001226,-0.14296561479568481
1772649098216770600,6.3147705078125,0.010757182724773884,-0.001261640340089798,-0.1659414917230606
1772649098226814700,6.324814697265625,0.01142270676791668,-0.010017847642302513,-0.17748841643333435
1772649098236858600,6.334858642578125,0.008262169547379017,-0.020572083070874214,-0.1730540245771408
1772649098246902800,6.34490283203125,0.001753403339534998,-0.010243277996778488,-0.15515998005867004
1772649098256946700,6.35494677734375,-0.003016448114067316,0.012917798012495041,-0.12168692797422409
1772649098266991600,6.36499169921875,-0.0019405309576541185,0.035686761140823364,-0.08455713093280792
1772649098277035800,6.375035888671875,-0.002738997805863619,0.06189832091331482,-0.050240155309438705
1772649098287079700,6.38507958984375,-0.006079400423914194,0.07647140324115753,-0.025553185492753983
1772649098297123600,6.39512353515625,-0.005172430537641048,0.09252773225307465,-0.014098363928496838
1772649098307167700,6.405167724609375,0.003779252991080284,0.11297442018985748,-0.006349897012114525
1772649098317211600,6.415211669921875,0.01147901825606823,0.13297951221466064,0.0032431534491479397
1772649098327256600,6.425256591796875,0.015322758816182613,0.13927601277828217,0.00955191534012556
1772649098337300700,6.43530078125,0.021844342350959778,0.13437922298908234,0.015757691115140915
1772649098347344600,6.4453447265625,0.030357668176293373,0.12050415575504303,0.017967581748962402
1772649098357388800,6.455388916015625,0.04579033702611923,0.09654179960489273,0.02201499417424202
1772649098367432700,6.4654326171875,0.06737232953310013,0.07240903377532959,0.020495660603046417
1772649098377477600,6.4754775390625,0.09373334795236588,0.05286657065153122,0.025007503107190132
1772649098387521800,6.485521728515625,0.09980189055204391,0.04221951961517334,0.03336743265390396
1772649098397565700,6.495565673828125,0.09331613779067993,0.044531285762786865,0.05705967918038368
1772649098407609600,6.505609619140625,0.07435362786054611,0.045260459184646606,0.07959454506635666
1772649098417653800,6.51565380859375,0.05239734426140785,0.021102406084537506,0.10118332505226135
1772649098427697700,6.52569775390625,0.030734660103917122,-0.016700632870197296,0.11669277399778366
1772649098437742600,6.53574267578125,0.005241765175014734,-0.06607543677091599,0.1216215044260025
1772649098447786500,6.545786376953125,-0.03156525269150734,-0.12381356954574585,0.10483719408512115
1772649098457830700,6.55583056640625,-0.06420540809631348,-0.15589524805545807,0.0892544835805893
1772649098467874800,6.565874755859375,-0.09540008008480072,-0.15474502742290497,0.07367686182260513
1772649098477918700,6.575918701171875,-0.12160538136959076,-0.12969878315925598,0.08028409630060196
1772649098487963600,6.585963623046875,-0.1420438140630722,-0.0677800178527832,0.1182892695069313
1772649098498007800,6.5960078125,-0.14066730439662933,0.03085758164525032,0.19471845030784607
1772649098508051700,6.6060517578125,-0.11809035390615463,0.12421388924121857,0.3004283607006073
1772649098518095600,6.616095703125,-0.07426223158836365,0.20667913556098938,0.40438517928123474
1772649098528139500,6.626139404296875,-0.017582176253199577,0.2568826377391815,0.5076806545257568
1772649098538183700,6.63618359375,0.03331194818019867,0.25115877389907837,0.5790949463844299
1772649098548228900,6.646228759765625,0.07402928173542023,0.19325262308120728,0.6192870736122131
1772649098558272500,6.6562724609375,0.1097773090004921,0.12605920433998108,0.6273688077926636
1772649098568316700,6.666316650390625,0.1376291662454605,0.02540077641606331,0.6079344153404236
1772649098578360800,6.67636083984375,0.14755673706531525,-0.07008618861436844,0.5726818442344666
1772649098588404700,6.68640478515625,0.15481199324131012,-0.14575140178203583,0.5309745669364929
1772649098598448600,6.69644873046875,0.13678669929504395,-0.1760217249393463,0.49064403772354126
1772649098608493600,6.70649365234375,0.09167859703302383,-0.16747404634952545,0.4527038335800171
1772649098618537700,6.716537841796875,0.031615763902664185,-0.11044719070196152,0.4143257439136505
1772649098628582000,6.726581787109375,-0.009722622111439705,-0.017453070729970932,0.37869688868522644
1772649098638625500,6.73662548828125,-0.02400297299027443,0.09001220762729645,0.34052741527557373
1772649098648669700,6.746669677734375,-0.009344401769340038,0.16552241146564484,0.30320242047309875
1772649098658715000,6.75671484375,0.023667842149734497,0.20983213186264038,0.26842355728149414
1772649098668758500,6.766758544921875,0.06273987889289856,0.22211302816867828,0.2358163595199585
1772649098678802700,6.776802734375,0.0949636772274971,0.20741645991802216,0.20835940539836884
1772649098688846600,6.7868466796875,0.13053259253501892,0.19083695113658905,0.18352250754833221
1772649098698890800,6.796890869140625,0.16872195899486542,0.17294254899024963,0.1562190055847168
1772649098708934700,6.8069345703125,0.19580817222595215,0.1581268459558487,0.12634845077991486
1772649098718979600,6.8169794921875,0.22766192257404327,0.1350940614938736,0.10621241480112076
1772649098729023700,6.827023681640625,0.24081234633922577,0.07812105119228363,0.07630511373281479
1772649098739068000,6.83706787109375,0.24116899073123932,-0.0026096776127815247,0.035255130380392075
1772649098749111600,6.847111572265625,0.2265133410692215,-0.07165292650461197,-0.0016866408986970782
1772649098759155700,6.85715576171875,0.21358148753643036,-0.13616643846035004,-0.04079708456993103
1772649098769201000,6.867200927734375,0.19055287539958954,-0.19016042351722717,-0.07775856554508209
1772649098779244500,6.87724462890625,0.16969400644302368,-0.2503952383995056,-0.1142672449350357
1772649098789288700,6.887288818359375,0.14051029086112976,-0.3099350035190582,-0.15081939101219177
1772649098799332600,6.89733251953125,0.09394990652799606,-0.38191908597946167,-0.17819498479366302
1772649098809376800,6.907376708984375,0.054915159940719604,-0.44144341349601746,-0.18580789864063263
1772649098819420700,6.917420654296875,0.026024989783763885,-0.4702620804309845,-0.16989508271217346
1772649098829465600,6.927465576171875,0.00365044130012393,-0.4686146676540375,-0.14162670075893402
1772649098839509800,6.937509765625,-0.009320818819105625,-0.4269355535507202,-0.11231344193220139
1772649098849553700,6.9475537109375,0.004532145336270332,-0.3982256352901459,-0.09203054010868073
1772649098859597600,6.95759765625,0.023693187162280083,-0.35237833857536316,-0.08414789289236069
1772649098869641700,6.967641845703125,0.04355238005518913,-0.3014152944087982,-0.08638228476047516
1772649098879686700,6.977686767578125,0.07147020101547241,-0.2708430290222168,-0.10697523504495621
1772649098889730800,6.987730712890625,0.09998920559883118,-0.2680794596672058,-0.13163317739963531
1772649098899774700,6.997774658203125,0.11492110043764114,-0.28187328577041626,-0.14721155166625977
1772649098909818600,7.007818603515625,0.12193427234888077,-0.2982708811759949,-0.1549389809370041
1772649098919862800,7.01786279296875,0.12466669082641602,-0.3079517185688019,-0.15533339977264404
1772649098929906700,7.02790673828125,0.11770705878734589,-0.3236182928085327,-0.13933072984218597
1772649098939951600,7.03795166015625,0.09607483446598053,-0.34363821148872375,-0.13106298446655273
1772649098949995800,7.047995849609375,0.07579486817121506,-0.37042561173439026,-0.12446073442697525
1772649098960039700,7.058039794921875,0.056789059191942215,-0.36885589361190796,-0.12406174838542938
1772649098970083800,7.068083740234375,0.05284039303660393,-0.3506377339363098,-0.10987242311239243
1772649098980127500,7.07812744140625,0.05612489953637123,-0.30519598722457886,-0.08974630385637283
1772649098990172700,7.088172607421875,0.06790752708911896,-0.25167709589004517,-0.06729692220687866
1772649099000216800,7.098216796875,0.09307682514190674,-0.20654208958148956,-0.051797863095998764
1772649099010260500,7.108260498046875,0.11876247823238373,-0.16497094929218292,-0.042958833277225494
1772649099020304600,7.1183046875,0.13479004800319672,-0.13095535337924957,-0.0532364621758461
1772649099030348800,7.128348876953125,0.1277822107076645,-0.10107521712779999,-0.07422483712434769
1772649099040392700,7.138392822265625,0.11272455006837845,-0.055851832032203674,-0.0780431404709816
1772649099050437600,7.148437744140625,0.08788152039051056,-0.02026374451816082,-0.07466837763786316
1772649099060481800,7.158481689453125,0.055329401046037674,-0.02155160717666149,-0.06716206669807434
1772649099070525700,7.168525634765625,0.018439559265971184,-0.055813971906900406,-0.057034336030483246
1772649099080569900,7.17856982421875,-0.023626409471035004,-0.10959804058074951,-0.04522410407662392
1772649099090613500,7.188613525390625,-0.06835020333528519,-0.15970008075237274,-0.05047053098678589
1772649099100657700,7.19865771484375,-0.10925984382629395,-0.1854614019393921,-0.06641566008329391
1772649099110702600,7.20870263671875,-0.13698682188987732,-0.19733723998069763,-0.09547048807144165
1772649099120746500,7.21874658203125,-0.15041516721248627,-0.2046034187078476,-0.1317567229270935
1772649099130790400,7.228790283203125,-0.16637389361858368,-0.21457882225513458,-0.1631186306476593
1772649099140834600,7.23883447265625,-0.17934273183345795,-0.20073232054710388,-0.18960535526275635
1772649099150878700,7.248878662109375,-0.18941666185855865,-0.16570083796977997,-0.19750002026557922
1772649099160923400,7.25892333984375,-0.18380744755268097,-0.0931522324681282,-0.16934990882873535
1772649099170967600,7.268967529296875,-0.17261870205402374,-0.0006454703398048878,-0.11666964739561081
1772649099181011700,7.27901171875,-0.15963754057884216,0.0754077360033989,-0.04375962167978287
1772649099191055600,7.2890556640625,-0.15139612555503845,0.10161111503839493,0.02470625564455986
1772649099201099500,7.299099609375,-0.13799665868282318,0.062063466757535934,0.07433078438043594
1772649099211143400,7.309143310546875,-0.13333027064800262,-0.027523141354322433,0.10249345004558563
1772649099221188600,7.319188720703125,-0.1475784331560135,-0.13455112278461456,0.10672983527183533
1772649099231232800,7.329232666015625,-0.17828841507434845,-0.20948795974254608,0.09719784557819366
1772649099241276400,7.3392763671875,-0.2093007117509842,-0.25613516569137573,0.07768754661083221
1772649099251320600,7.349320556640625,-0.24215027689933777,-0.29876357316970825,0.047954414039850235
1772649099261364500,7.359364501953125,-0.2808099687099457,-0.3297596275806427,-0.002331247553229332
1772649099271408600,7.36940869140625,-0.32589781284332275,-0.3104461133480072,-0.05003112554550171
1772649099281453600,7.37945361328125,-0.3605143129825592,-0.22532573342323303,-0.10097963362932205
1772649099291497500,7.38949755859375,-0.38319140672683716,-0.13722331821918488,-0.14722809195518494
1772649099301541600,7.399541748046875,-0.39657312631607056,-0.012238869443535805,-0.1919063776731491
1772649099311585800,7.409585693359375,-0.40109890699386597,0.1018003523349762,-0.21378983557224274
1772649099321629400,7.41962939453125,-0.3920126259326935,0.1558409333229065,-0.23350030183792114
1772649099331674600,7.429674560546875,-0.37144848704338074,0.1763661801815033,-0.22038023173809052
1772649099341718800,7.43971875,-0.3459763824939728,0.1989964246749878,-0.18013881146907806
1772649099351762400,7.449762451171875,-0.31366825103759766,0.22641660273075104,-0.11099915951490402
1772649099361806600,7.459806640625,-0.27524667978286743,0.26654118299484253,-0.014915721490979195
1772649099371850500,7.4698505859375,-0.23421058058738708,0.3056182861328125,0.09131963551044464
1772649099381894700,7.479894775390625,-0.19440443813800812,0.33273664116859436,0.19307151436805725
1772649099391939600,7.489939697265625,-0.15724270045757294,0.3401218354701996,0.2868715226650238
1772649099401983500,7.4999833984375,-0.122831329703331,0.34391552209854126,0.3663901686668396
1772649099412027600,7.510027587890625,-0.09409023821353912,0.3375503122806549,0.43613356351852417
1772649099422071600,7.520071533203125,-0.074622742831707,0.30263471603393555,0.4836060106754303
1772649099432115500,7.530115478515625,-0.047987401485443115,0.23143617808818817,0.511543869972229
1772649099442160600,7.54016064453125,-0.01838788576424122,0.14889319241046906,0.5129729509353638
1772649099452204500,7.55020458984375,-0.00828598253428936,0.05380529537796974,0.501013994216919
1772649099462248400,7.56024853515625,-0.014421425759792328,-0.030282750725746155,0.4612993597984314
1772649099472292600,7.570292724609375,-0.023564323782920837,-0.08985313773155212,0.40670135617256165
1772649099482336500,7.58033642578125,-0.033069875091314316,-0.1324576735496521,0.3287145793437958
1772649099492380700,7.590380615234375,-0.048541776835918427,-0.1591673046350479,0.231194406747818
1772649099502425600,7.600425537109375,-0.05909029021859169,-0.1819424033164978,0.1190209910273552
1772649099512469500,7.610469482421875,-0.07162020355463028,-0.22132734954357147,0.0003462778404355049
1772649099522513700,7.620513671875,-0.08583718538284302,-0.24893718957901,-0.1137077808380127
1772649099532557600,7.6305576171875,-0.10620743781328201,-0.22678421437740326,-0.1842711716890335
1772649099542601500,7.6406015625,-0.12799818813800812,-0.16752466559410095,-0.2194274663925171
1772649099552645400,7.650645263671875,-0.13704334199428558,-0.0852590873837471,-0.22418227791786194
1772649099562690600,7.660690673828125,-0.13307133316993713,-0.002420158125460148,-0.21073897182941437
1772649099572734700,7.670734619140625,-0.10192619264125824,0.04960549250245094,-0.18793219327926636
1772649099582778400,7.6807783203125,-0.06600823998451233,0.08102665841579437,-0.15078052878379822
1772649099592822500,7.690822509765625,-0.027150053530931473,0.1040523499250412,-0.10004837810993195
1772649099602866700,7.70086669921875,0.007509061601012945,0.13126534223556519,-0.03789638727903366
1772649099612911400,7.710911376953125,0.03221174329519272,0.14242717623710632,0.023225821554660797
1772649099622955500,7.72095556640625,0.04612617567181587,0.1257067173719406,0.06768731027841568
1772649099632999700,7.730999755859375,0.059619612991809845,0.0889766737818718,0.0891537219285965
1772649099643043600,7.741043701171875,0.06779187172651291,0.03217686712741852,0.08368329703807831
1772649099653087500,7.75108740234375,0.07618189603090286,-0.025064582005143166,0.06423689424991608
1772649099663131400,7.76113134765625,0.07674019783735275,-0.05595098435878754,0.04319442808628082
1772649099673176600,7.771176513671875,0.0713622123003006,-0.0626208707690239,0.030437352135777473
1772649099683220700,7.781220703125,0.06621620059013367,-0.057165008038282394,0.016069237142801285
1772649099693264400,7.791264404296875,0.06408193707466125,-0.06640590727329254,-0.009481662884354591
1772649099703308500,7.80130859375,0.07478338479995728,-0.07144123315811157,-0.06221635639667511
1772649099713352400,7.8113525390625,0.09246385097503662,-0.07108356803655624,-0.13271422684192657
1772649099723396600,7.821396728515625,0.11411721259355545,-0.06937222182750702,-0.19959473609924316
1772649099733441500,7.831441650390625,0.12719041109085083,-0.05005338788032532,-0.25831717252731323
1772649099743485400,7.8414853515625,0.1354382336139679,-0.015450024977326393,-0.2944291830062866
1772649099753529600,7.851529541015625,0.14043939113616943,0.022071251645684242,-0.3152969181537628
1772649099763573800,7.86157373046875,0.1413131058216095,0.05213267728686333,-0.33765172958374023
1772649099773617400,7.871617431640625,0.1499883532524109,0.07593042403459549,-0.3529997766017914
1772649099783662600,7.88166259765625,0.15503765642642975,0.08316338062286377,-0.3507019281387329
1772649099793706800,7.891706787109375,0.15920336544513702,0.09855778515338898,-0.31120485067367554
1772649099803750400,7.90175048828125,0.16103732585906982,0.1179790273308754,-0.24346737563610077
1772649099813794600,7.911794677734375,0.16457746922969818,0.10890377312898636,-0.16173629462718964
1772649099823838500,7.92183837890625,0.17765888571739197,0.09164930880069733,-0.0761033147573471
1772649099833882600,7.931882568359375,0.19443626701831818,0.0763276144862175,-0.0009664885001257062
1772649099843927600,7.941927490234375,0.2185160368680954,0.05352197587490082,0.052097443491220474
1772649099853971500,7.951971435546875,0.23593124747276306,0.03775766119360924,0.09181290119886398
1772649099864015600,7.962015625,0.24334029853343964,0.0215916745364666,0.1229662373661995
1772649099874059800,7.972059814453125,0.24033226072788239,0.018089085817337036,0.14114497601985931
1772649099884103400,7.982103515625,0.25103285908699036,0.03114960342645645,0.14947418868541718
1772649099894147600,7.992147705078125,0.2665513753890991,0.05315370857715607,0.15261618793010712
1772649099904192500,8.002192626953125,0.26656684279441833,0.0930270403623581,0.14629711210727692
1772649099914236700,8.012236572265625,0.2582892179489136,0.14657922089099884,0.1379385143518448
1772649099924280600,8.022280517578125,0.24052971601486206,0.2023361325263977,0.133247509598732
1772649099934324500,8.032324462890625,0.22677715122699738,0.25844815373420715,0.13114814460277557
1772649099944368600,8.04236865234375,0.21466894447803497,0.27858269214630127,0.13415977358818054
1772649099954413600,8.05241357421875,0.20344212651252747,0.220042422413826,0.1317775696516037
1772649099964457500,8.06245751953125,0.18043290078639984,0.10171597450971603,0.12321846187114716
1772649099974501600,8.072501708984374,0.16741085052490234,0.01154559850692749,0.12427973002195358
1772649099984545500,8.082545654296876,0.15488478541374207,-0.039790235459804535,0.1334141492843628
1772649099994589400,8.09258935546875,0.1489424705505371,-0.09502393007278442,0.14020414650440216
1772649100004633600,8.102633544921876,0.13998106122016907,-0.13930167257785797,0.15143564343452454
1772649100014678500,8.112678466796876,0.13637247681617737,-0.1565094143152237,0.15919849276542664
1772649100024722700,8.12272265625,0.13154272735118866,-0.12475188076496124,0.17698603868484497
1772649100034766600,8.1327666015625,0.1460351198911667,-0.05499783903360367,0.1926954984664917
1772649100044810500,8.142810546875,0.15826615691184998,0.009320094250142574,0.2018943428993225
1772649100054854700,8.152854736328125,0.16287128627300262,0.03713015466928482,0.21201781928539276
1772649100064898600,8.162898681640625,0.1531854122877121,0.05058687925338745,0.21850180625915527
1772649100074943500,8.172943603515625,0.1389942169189453,0.025738254189491272,0.23332469165325165
1772649100084987600,8.182987548828125,0.13001114130020142,-0.029391013085842133,0.2585056722164154
1772649100095031600,8.193031494140625,0.1275937855243683,-0.07949705421924591,0.3024859130382538
1772649100105075700,8.20307568359375,0.11001807451248169,-0.11350319534540176,0.3600938618183136
1772649100115119400,8.213119384765625,0.09930390864610672,-0.14182618260383606,0.4139091670513153
1772649100125164500,8.22316455078125,0.09820941835641861,-0.15463154017925262,0.4641250967979431
1772649100135208400,8.23320849609375,0.10864768177270889,-0.16399522125720978,0.4916720390319824
1772649100145252400,8.24325244140625,0.12268879264593124,-0.15344573557376862,0.49796903133392334
1772649100155296300,8.253296142578124,0.14482365548610687,-0.1016635000705719,0.48180150985717773
1772649100165340400,8.26334033203125,0.17520686984062195,-0.007832346484065056,0.44045302271842957
1772649100175384600,8.273384521484376,0.20678822696208954,0.1036776751279831,0.3769310414791107
1772649100185429200,8.28342919921875,0.23451921343803406,0.20143374800682068,0.3068667948246002
1772649100195473400,8.293473388671876,0.25566843152046204,0.2609982490539551,0.23227138817310333
1772649100205517600,8.303517578125,0.2727018892765045,0.2631658911705017,0.17590083181858063
1772649100215561500,8.3135615234375,0.2881500720977783,0.25441473722457886,0.15748055279254913
1772649100225605400,8.32360546875,0.29195436835289,0.24340838193893433,0.1638641506433487
1772649100235649300,8.333649169921875,0.2822263836860657,0.21023471653461456,0.1764899343252182
1772649100245694500,8.343694580078125,0.27473685145378113,0.15148842334747314,0.17474287748336792
1772649100255738600,8.353738525390625,0.269331157207489,0.07075762003660202,0.15827122330665588
1772649100265782300,8.3637822265625,0.26603883504867554,-0.0056499699130654335,0.11542527377605438
1772649100275826400,8.373826416015625,0.26650381088256836,-0.07632680237293243,0.0739169791340828
1772649100285870600,8.38387060546875,0.2669217884540558,-0.13025088608264923,0.03956935927271843
1772649100295914500,8.39391455078125,0.2599099576473236,-0.15376339852809906,0.011029859073460102
1772649100305959400,8.40395947265625,0.25729089975357056,-0.15310296416282654,-0.014215105213224888
1772649100316003300,8.41400341796875,0.2631882131099701,-0.1398790329694748,-0.06181271746754646
1772649100326047500,8.424047607421874,0.26518476009368896,-0.11785224825143814,-0.11818418651819229
1772649100336091400,8.43409130859375,0.26072102785110474,-0.10580038279294968,-0.16850435733795166
1772649100346135300,8.44413525390625,0.23978304862976074,-0.1058872863650322,-0.20943352580070496
1772649100356180500,8.454180419921874,0.20548179745674133,-0.10147149860858917,-0.23629151284694672
1772649100366224600,8.464224609375,0.17077526450157166,-0.08803658187389374,-0.23878024518489838
1772649100376268300,8.474268310546876,0.13834089040756226,-0.08090410381555557,-0.23442518711090088
1772649100386312400,8.4843125,0.11405011266469955,-0.08229582756757736,-0.2382754683494568
1772649100396356400,8.4943564453125,0.09277705103158951,-0.09130583703517914,-0.25982922315597534
1772649100406400500,8.504400390625,0.09171634912490845,-0.07908523082733154,-0.2886335253715515
1772649100416445400,8.514445556640625,0.08843134343624115,-0.046352319419384,-0.3213304877281189
1772649100426489300,8.5244892578125,0.09422572702169418,-0.012463049963116646,-0.35160836577415466
1772649100436533500,8.534533447265625,0.09490989148616791,0.01735902763903141,-0.3612799048423767
1772649100446577700,8.54457763671875,0.08932028710842133,0.039335839450359344,-0.3568955957889557
1772649100456621300,8.554621337890625,0.07954408973455429,0.03773501515388489,-0.33458229899406433
1772649100466665500,8.56466552734375,0.06634929031133652,0.030278638005256653,-0.2976299822330475
1772649100476710400,8.57471044921875,0.04979267716407776,0.011297491379082203,-0.26176705956459045
1772649100486754300,8.58475439453125,0.0373585969209671,-0.016256175935268402,-0.23434527218341827
1772649100496798500,8.594798583984375,0.02897176891565323,-0.06641415506601334,-0.21946726739406586
1772649100506842400,8.60484228515625,0.026072392240166664,-0.11626912653446198,-0.21202735602855682
1772649100516886500,8.614886474609374,0.029939835891127586,-0.139313206076622,-0.19149865210056305
1772649100526931500,8.624931396484374,0.027142906561493874,-0.13682244718074799,-0.1658255010843277
1772649100536975400,8.634975341796874,0.01905488781630993,-0.13066256046295166,-0.14506615698337555
1772649100547019500,8.64501953125,0.010446872562170029,-0.12109676748514175,-0.13897669315338135
1772649100557063400,8.6550634765625,0.001554311253130436,-0.10053317248821259,-0.14505615830421448
1772649100567107300,8.665107421875,-0.014505717903375626,-0.1025858074426651,-0.1711854636669159
1772649100577151500,8.6751513671875,-0.04479464516043663,-0.1279449611902237,-0.188008114695549
1772649100587196400,8.685196533203126,-0.07893453538417816,-0.13196636736392975,-0.18544694781303406
1772649100597240300,8.695240234375,-0.11571118980646133,-0.10139700025320053,-0.166453018784523
1772649100607284500,8.705284423828125,-0.1386718451976776,-0.05627891793847084,-0.13723184168338776
1772649100617328400,8.715328369140625,-0.14369270205497742,-0.0228812787681818,-0.10548298060894012
1772649100627372500,8.72537255859375,-0.14184342324733734,-0.01629999279975891,-0.06748853623867035
1772649100637416400,8.73541650390625,-0.13710299134254456,-0.02188703790307045,-0.029185358434915543
1772649100647461400,8.74546142578125,-0.13814732432365417,-0.041521333158016205,0.010640382766723633
1772649100657505500,8.755505615234375,-0.1371947079896927,-0.08400008082389832,0.036222439259290695
1772649100667549400,8.765549560546875,-0.13537128269672394,-0.12779146432876587,0.05280373990535736
1772649100677593300,8.77559326171875,-0.14279723167419434,-0.1668299436569214,0.05726480111479759
1772649100687637200,8.78563720703125,-0.15630938112735748,-0.2096318155527115,0.04935256391763687
1772649100697681400,8.795681396484374,-0.1748468428850174,-0.24898719787597656,0.03898115083575249
1772649100707726600,8.8057265625,-0.1896459460258484,-0.2570766508579254,0.02891322411596775
1772649100717770200,8.815770263671874,-0.19776193797588348,-0.2538805603981018,0.023628447204828262
1772649100727814400,8.825814453125,-0.20485493540763855,-0.2496182769536972,0.020427750423550606
1772649100737858600,8.835858642578126,-0.20155315101146698,-0.23367659747600555,0.03956442326307297
1772649100747902500,8.84590234375,-0.19460172951221466,-0.2037922441959381,0.08082246035337448
1772649100757946400,8.8559462890625,-0.17713458836078644,-0.1458703577518463,0.14327944815158844
1772649100767991600,8.865991455078126,-0.15657950937747955,-0.10781803727149963,0.2072373926639557
1772649100778035500,8.876035400390625,-0.1415092498064041,-0.11694490909576416,0.2575787603855133
1772649100788079600,8.88607958984375,-0.14272883534431458,-0.1657944619655609,0.284755676984787
1772649100798123300,8.896123291015625,-0.16044871509075165,-0.20652857422828674,0.29262664914131165
1772649100808167400,8.90616748046875,-0.18285977840423584,-0.23463234305381775,0.2828538417816162
1772649100818212600,8.916212646484375,-0.2049722671508789,-0.26112866401672363,0.2598017752170563
1772649100828256300,8.92625634765625,-0.22344554960727692,-0.27862226963043213,0.21936814486980438
1772649100838300400,8.936300537109375,-0.2420080453157425,-0.2722674310207367,0.17206187546253204
1772649100848344300,8.94634423828125,-0.26266586780548096,-0.24240268766880035,0.11798612028360367
1772649100858388500,8.956388427734375,-0.2749007046222687,-0.1945134550333023,0.060258910059928894
1772649100868432600,8.9664326171875,-0.3006875216960907,-0.1391526609659195,0.003808137495070696
1772649100878477300,8.976477294921875,-0.33646178245544434,-0.09378863871097565,-0.054397109895944595
1772649100888521500,8.986521484375,-0.3813677430152893,-0.07653695344924927,-0.09720209985971451
1772649100898565600,8.996565673828124,-0.4057694673538208,-0.07740248739719391,-0.12742631137371063
1772649100908608500,9.0066083984375,-0.4146444499492645,-0.08015672862529755,-0.13138270378112793
1772649100918652400,9.01665234375,-0.42215695977211,-0.0721355527639389,-0.12129039317369461
1772649100928696300,9.0266962890625,-0.4216325283050537,-0.053063251078128815,-0.10903454571962357
1772649100938741500,9.036741455078126,-0.40739715099334717,-0.01589883677661419,-0.08119119703769684
1772649100948785700,9.04678564453125,-0.38658758997917175,0.010448363609611988,-0.04002178832888603
1772649100958829300,9.056829345703125,-0.3757472038269043,0.03529352694749832,0.016038017347455025
1772649100968873500,9.06687353515625,-0.3414914309978485,0.08821950852870941,0.08813020586967468
1772649100978917400,9.07691748046875,-0.2813282012939453,0.1751815676689148,0.15669089555740356
1772649100988961500,9.08696142578125,-0.2032073438167572,0.2547867000102997,0.2107045203447342
1772649100999006500,9.09700634765625,-0.12194018065929413,0.2877614200115204,0.2655770778656006
1772649101009050400,9.10705029296875,-0.08670929819345474,0.3127923607826233,0.36841750144958496
1772649101019094500,9.117094482421875,-0.0915442705154419,0.2003300040960312,0.45967337489128113
1772649101029138400,9.127138427734375,-0.06634892523288727,0.06327437609434128,0.5341486930847168
1772649101039182300,9.137182373046874,-0.008736494928598404,-0.012068578973412514,0.5769041180610657
1772649101049226500,9.1472265625,0.014903559349477291,-0.10051991045475006,0.5707932710647583
1772649101059271400,9.157271484375,-0.0011875254567712545,-0.19687362015247345,0.50199955701828
1772649101069315300,9.1673154296875,-0.06188764050602913,-0.2945201098918915,0.4121147394180298
1772649101079359500,9.177359375,-0.12800753116607666,-0.3233179450035095,0.31670644879341125
1772649101089403400,9.1874033203125,-0.16274212300777435,-0.2574683427810669,0.24197781085968018
1772649101099447600,9.197447509765626,-0.1983634978532791,-0.21380871534347534,0.15698222815990448
