time,seconds_elapsed,z,y,x
1772650002994358800,0.07135888671875,-0.7040578126907349,-0.07156872749328613,0.20884618163108826
1772650003004402700,0.081402587890625,-0.7113727331161499,-0.1685730367898941,0.1458112895488739
1772650003014447400,0.091447265625,-0.7257099151611328,-0.24925963580608368,0.09281301498413086
1772650003024491500,0.101491455078125,-0.7314005494117737,-0.30411726236343384,0.05802201107144356
1772650003034535700,0.11153564453125,-0.7317439913749695,-0.35058367252349854,0.031984977424144745
1772650003044580400,0.121580322265625,-0.7335304021835327,-0.3877829909324646,0.04242243617773056
1772650003054624500,0.13162451171875,-0.7311549186706543,-0.41187581419944763,0.08249472826719284
1772650003064669700,0.141669677734375,-0.7266563177108765,-0.41851428151130676,0.15152786672115326
1772650003074713300,0.15171337890625,-0.6961231827735901,-0.38192230463027954,0.2554839253425598
1772650003084757500,0.161757568359375,-0.6398947834968567,-0.3234507143497467,0.3659968674182892
1772650003094802700,0.171802734375,-0.5623242855072021,-0.2550264000892639,0.47465693950653076
1772650003104846600,0.1818466796875,-0.47003084421157837,-0.18312744796276093,0.5655357241630554
1772650003114890500,0.191890380859375,-0.3851830065250397,-0.11060844361782074,0.6317235231399536
1772650003124935700,0.201935791015625,-0.3208785653114319,-0.022950494661927223,0.6632380485534668
1772650003134979600,0.2119794921875,-0.2811569571495056,0.06911227107048035,0.6460542678833008
1772650003145023500,0.2220234375,-0.26813623309135437,0.1509741097688675,0.5650342702865601
1772650003155068700,0.232068603515625,-0.26957881450653076,0.23061424493789673,0.43400290608406067
1772650003165112600,0.242112548828125,-0.2668837010860443,0.33355262875556946,0.29979103803634644
1772650003175156500,0.252156494140625,-0.25819748640060425,0.4347958266735077,0.17178545892238617
1772650003185201700,0.26220166015625,-0.24779173731803894,0.4981093108654022,0.0807194635272026
1772650003195245600,0.27224560546875,-0.23761223256587982,0.5060694217681885,0.018504120409488678
1772650003205290500,0.28229052734375,-0.23175060749053955,0.4569721817970276,-0.007897659204900265
1772650003215334700,0.292334716796875,-0.22885432839393616,0.35972610116004944,0.005998857319355011
1772650003225378600,0.302378662109375,-0.23551571369171143,0.2713794708251953,0.04512229189276695
1772650003235423500,0.312423583984375,-0.2569650411605835,0.18210375308990479,0.09596406668424606
1772650003245467600,0.322467529296875,-0.2706102728843689,0.1087629571557045,0.15046726167201996
1772650003255511600,0.332511474609375,-0.2870030701160431,0.06662808358669281,0.1877908855676651
1772650003265556500,0.342556396484375,-0.31255584955215454,0.04849488288164139,0.20181535184383392
1772650003275600600,0.3526005859375,-0.33909860253334045,0.062196969985961914,0.19755959510803223
1772650003285644500,0.36264453125,-0.3702237606048584,0.11935878545045853,0.20437142252922058
1772650003295689500,0.372689453125,-0.39668819308280945,0.19980555772781372,0.23490135371685028
1772650003305733600,0.382733642578125,-0.41458141803741455,0.2672730088233948,0.2686326801776886
1772650003315777500,0.392777587890625,-0.4311380386352539,0.31800729036331177,0.3098541498184204
1772650003325822500,0.402822509765625,-0.44574174284935,0.36316758394241333,0.3542940318584442
1772650003335866400,0.412866455078125,-0.45791032910346985,0.4390674829483032,0.4285566210746765
1772650003345911600,0.42291162109375,-0.48458561301231384,0.47769609093666077,0.5223233103752136
1772650003355955700,0.432955810546875,-0.5038200616836548,0.5699785947799683,0.6545932292938232
1772650003365999400,0.442999267578125,-0.5560294389724731,0.5545911192893982,0.8021813035011292
1772650003376044500,0.45304443359375,-0.512509286403656,0.7277771830558777,1.0196278095245361
1772650003386088700,0.463088623046875,-0.45441722869873047,0.7878197431564331,1.1992052793502808
1772650003396132400,0.47313232421875,-0.435667484998703,0.7631343603134155,1.2779977321624756
1772650003406177500,0.483177490234375,-0.43160057067871094,0.6193324327468872,1.2623975276947021
1772650003416221700,0.4932216796875,-0.44812947511672974,0.38523200154304504,1.1887762546539307
1772650003426265600,0.503265625,-0.4649830162525177,0.2359037846326828,1.0897103548049927
1772650003436310500,0.513310546875,-0.47563594579696655,0.16698960959911346,0.9777776002883911
1772650003446354700,0.523354736328125,-0.523642897605896,0.08975261449813843,0.866601824760437
1772650003456398600,0.533398681640625,-0.5759276151657104,0.09132377803325653,0.7510234117507935
1772650003466443500,0.543443603515625,-0.5862369537353516,0.18049466609954834,0.6341151595115662
1772650003476487700,0.55348779296875,-0.5666986107826233,0.24111467599868774,0.510338306427002
1772650003486532400,0.563532470703125,-0.5716249346733093,0.218926802277565,0.40274661779403687
1772650003496576500,0.573576416015625,-0.6407476663589478,0.10504768043756485,0.32801181077957153
1772650003506620700,0.58362060546875,-0.6743205189704895,0.1359906792640686,0.2816711962223053
1772650003516665300,0.593665283203125,-0.6428825259208679,0.10795499384403229,0.23504915833473206
1772650003526709500,0.60370947265625,-0.619194746017456,-0.07765054702758789,0.17610009014606476
1772650003536753700,0.613753662109375,-0.6235976815223694,-0.3100503385066986,0.1366414874792099
1772650003546798600,0.623798583984375,-0.6086488366127014,-0.39187222719192505,0.16358336806297302
1772650003556842500,0.633842529296875,-0.5772932171821594,-0.35015758872032166,0.24124522507190704
1772650003566886700,0.64388671875,-0.6048864722251892,-0.41176876425743103,0.3025253415107727
1772650003576931600,0.653931640625,-0.6725523471832275,-0.47335076332092285,0.35102754831314087
1772650003586975500,0.6639755859375,-0.7213917970657349,-0.3647875487804413,0.39535826444625854
1772650003597019600,0.67401953125,-0.7183299660682678,-0.3612612187862396,0.404380202293396
1772650003607064600,0.684064697265625,-0.7514676451683044,-0.40427765250205994,0.35753706097602844
1772650003617108500,0.6941083984375,-0.7594234347343445,-0.3608543872833252,0.29750147461891174
1772650003627153700,0.704153564453125,-0.7602415680885315,-0.32698962092399597,0.24938827753067017
1772650003637197600,0.714197509765625,-0.7724027633666992,-0.6081328392028809,0.16664253175258636
1772650003647241500,0.724241455078125,-0.8211492896080017,-0.8128185868263245,0.06297552585601807
1772650003657286700,0.73428662109375,-0.8185160756111145,-0.7580184936523438,0.01636943221092224
1772650003667330600,0.74433056640625,-0.8524926900863647,-0.7852168083190918,-0.041738878935575485
1772650003677374700,0.754374755859375,-0.9118466377258301,-0.8582788109779358,-0.0979781448841095
1772650003687419600,0.764419677734375,-0.9633316397666931,-0.9187402725219727,-0.14214348793029785
1772650003697463600,0.774463623046875,-1.0063072443008423,-0.9750332236289978,-0.1865793764591217
1772650003707507700,0.7845078125,-1.0429209470748901,-1.093369483947754,-0.24589383602142334
1772650003717552600,0.794552734375,-1.0716099739074707,-1.2643436193466187,-0.3049689531326294
1772650003727596500,0.804596435546875,-1.0556981563568115,-1.277830958366394,-0.3162010908126831
1772650003737640700,0.814640625,-1.0109225511550903,-1.1172356605529785,-0.28039103746414185
1772650003747685600,0.824685546875,-0.945933997631073,-0.9411345720291138,-0.2323518693447113
1772650003757729500,0.8347294921875,-0.8750370740890503,-0.8309563994407654,-0.18553146719932556
1772650003767774500,0.8447744140625,-0.8001604080200195,-0.7951374053955078,-0.15357698500156403
1772650003777818600,0.854818603515625,-0.7459796667098999,-0.8225110769271851,-0.1393171101808548
1772650003787862500,0.864862548828125,-0.7147538065910339,-0.8854191899299622,-0.1641835868358612
1772650003797907700,0.87490771484375,-0.6774107217788696,-0.9108052849769592,-0.2120012491941452
1772650003807951400,0.884951416015625,-0.6254817843437195,-0.8863369226455688,-0.28433215618133545
1772650003817995500,0.89499560546875,-0.565473735332489,-0.8415593504905701,-0.3635815382003784
1772650003828040700,0.905040771484375,-0.4979194700717926,-0.7499064207077026,-0.4158572554588318
1772650003838084400,0.91508447265625,-0.43348777294158936,-0.6151882410049438,-0.41641321778297424
1772650003848128500,0.92512841796875,-0.40099719166755676,-0.46029242873191833,-0.3733333945274353
1772650003858173700,0.935173583984375,-0.40014931559562683,-0.3273169696331024,-0.3044404685497284
1772650003868217300,0.94521728515625,-0.42787253856658936,-0.2582268714904785,-0.2498166412115097
1772650003878262500,0.955262451171875,-0.4735381305217743,-0.26734352111816406,-0.22450855374336243
1772650003888306700,0.965306640625,-0.5019152164459229,-0.3281075358390808,-0.2205369770526886
1772650003898350600,0.9753505859375,-0.5187878012657166,-0.3718242645263672,-0.23278118669986725
1772650003908395500,0.9853955078125,-0.5164415836334229,-0.3900514841079712,-0.2565203607082367
1772650003918439700,0.995439697265625,-0.4976840913295746,-0.3927769958972931,-0.29923978447914124
1772650003928483600,1.005483642578125,-0.4706119894981384,-0.41908904910087585,-0.3514920473098755
1772650003938528500,1.015528564453125,-0.40647122263908386,-0.38796088099479675,-0.3685763478279114
1772650003948572700,1.02557275390625,-0.34249356389045715,-0.28273195028305054,-0.3520469069480896
1772650003958616600,1.035616455078125,-0.3109227418899536,-0.1957080066204071,-0.3382912874221802
1772650003968661500,1.04566162109375,-0.3051585853099823,-0.18873079121112823,-0.3376542627811432
1772650003978705700,1.05570556640625,-0.32472673058509827,-0.2593027651309967,-0.3557193875312805
1772650003988749600,1.06574951171875,-0.35758188366889954,-0.34753650426864624,-0.3684135973453522
1772650003998795000,1.075794921875,-0.40410926938056946,-0.4389309883117676,-0.37035468220710754
1772650004008839200,1.085839111328125,-0.45798152685165405,-0.5381336808204651,-0.37413665652275085
1772650004018884000,1.095884033203125,-0.5140635967254639,-0.636799693107605,-0.3994031846523285
1772650004028928000,1.105927978515625,-0.5700573325157166,-0.7634367346763611,-0.4445270001888275
1772650004038972200,1.11597216796875,-0.604735791683197,-0.9609279632568359,-0.5103089809417725
1772650004049016800,1.126016845703125,-0.6077494621276855,-1.114691972732544,-0.5636166930198669
1772650004059061000,1.13606103515625,-0.5788156390190125,-1.0851114988327026,-0.5772241353988647
1772650004069105200,1.146105224609375,-0.5533140301704407,-1.0745797157287598,-0.6185917854309082
1772650004079150000,1.156150146484375,-0.5359654426574707,-1.063245415687561,-0.6895180344581604
1772650004089194000,1.166194091796875,-0.5031816959381104,-1.0321497917175293,-0.7827387452125549
1772650004099238100,1.176238037109375,-0.4550227224826813,-0.9651493430137634,-0.8621991276741028
1772650004109283000,1.186282958984375,-0.41967830061912537,-0.9054420590400696,-0.9307401180267334
1772650004119327000,1.196326904296875,-0.41621583700180054,-0.8576391339302063,-0.9968425035476685
1772650004129371100,1.20637109375,-0.42258426547050476,-0.8536955118179321,-1.0345768928527832
1772650004139416000,1.216416015625,-0.41212326288223267,-0.8368878960609436,-0.9976021647453308
1772650004149460000,1.2264599609375,-0.4241567552089691,-0.7479944825172424,-0.9336037039756775
1772650004159505200,1.236505126953125,-0.4359670877456665,-0.6626582741737366,-0.8506750464439392
1772650004169549000,1.246549072265625,-0.40750083327293396,-0.5777580738067627,-0.7291933298110962
1772650004179593000,1.256593017578125,-0.37652289867401123,-0.5010038614273071,-0.5989831686019897
1772650004189638100,1.26663818359375,-0.3547443747520447,-0.4478873312473297,-0.4876241683959961
1772650004199682000,1.27668212890625,-0.357015997171402,-0.3992273211479187,-0.40607741475105286
1772650004209726200,1.286726318359375,-0.3674643635749817,-0.3692425489425659,-0.3652575612068176
1772650004219771100,1.296771240234375,-0.35754144191741943,-0.3542294204235077,-0.3402060866355896
1772650004229815000,1.30681494140625,-0.30046457052230835,-0.3089812397956848,-0.33681002259254456
1772650004239859200,1.316859130859375,-0.21188850700855255,-0.24161021411418915,-0.3382725417613983
1772650004249904000,1.326904052734375,-0.12357434630393982,-0.19013157486915588,-0.3345329463481903
1772650004259948000,1.336947998046875,-0.06323602795600891,-0.09803290665149689,-0.3034251630306244
1772650004269993000,1.346992919921875,-0.048103947192430496,-0.010534483939409256,-0.2577759325504303
1772650004280037000,1.357037109375,-0.051080118864774704,0.04027598723769188,-0.21466752886772156
1772650004290081000,1.3670810546875,-0.058492228388786316,0.07324884831905365,-0.16215665638446808
1772650004300126000,1.3771259765625,-0.06943557411432266,0.06514507532119751,-0.1284787505865097
1772650004310170000,1.387170166015625,-0.07893426716327667,0.05047185346484184,-0.11680453270673752
1772650004320214000,1.397214111328125,-0.08358794450759888,0.02586914226412773,-0.12544289231300354
1772650004330259200,1.40725927734375,-0.08864209055900574,0.004907400347292423,-0.13890889286994934
1772650004340303000,1.41730322265625,-0.09757239371538162,-0.00536144757643342,-0.16046251356601715
1772650004350347000,1.427346923828125,-0.10575921833515167,-0.01647934690117836,-0.1889444887638092
1772650004360392200,1.43739208984375,-0.11463045328855515,-0.04414122551679611,-0.2152739316225052
1772650004370435800,1.447435791015625,-0.12446843832731247,-0.0684305876493454,-0.240672767162323
1772650004380480000,1.45747998046875,-0.12771350145339966,-0.06570407003164291,-0.255215585231781
1772650004390525200,1.467525146484375,-0.1329500675201416,-0.037122227251529694,-0.2484160214662552
1772650004400569000,1.477569091796875,-0.1416526883840561,0.017680762335658073,-0.22257272899150848
1772650004410614000,1.487614013671875,-0.15735521912574768,0.06834714114665985,-0.1917080283164978
1772650004420658200,1.497658203125,-0.17986370623111725,0.07151318341493607,-0.16820956766605377
1772650004430702000,1.5077021484375,-0.20030160248279572,0.050149038434028625,-0.16555173695087433
1772650004440747000,1.5177470703125,-0.20868511497974396,0.03647235780954361,-0.16480185091495514
1772650004450791200,1.527791259765625,-0.21286627650260925,0.03118491917848587,-0.1560371220111847
1772650004460835000,1.5378349609375,-0.20666180551052094,0.040722720324993134,-0.1353309452533722
1772650004470880000,1.5478798828125,-0.19706830382347107,0.05342227220535278,-0.0909499004483223
1772650004480924200,1.557924072265625,-0.17233401536941528,0.07516500353813171,-0.022934559732675552
1772650004490968000,1.567968017578125,-0.13338741660118103,0.12398793548345566,0.06222774088382721
1772650004501013000,1.578012939453125,-0.08588611334562302,0.19276244938373566,0.14983423054218292
1772650004511057200,1.58805712890625,-0.04659969359636307,0.2753680944442749,0.21992729604244232
1772650004521101000,1.59810107421875,-0.016017954796552658,0.3528323769569397,0.2558722496032715
1772650004531146000,1.60814599609375,0.006232756190001965,0.3931587338447571,0.26239538192749023
1772650004541190100,1.618190185546875,0.019355423748493195,0.3873286247253418,0.24279241263866425
1772650004551235000,1.628235107421875,0.0018038606503978372,0.3291715681552887,0.20612308382987976
1772650004561279000,1.638279052734375,-0.03527543321251869,0.232489675283432,0.16229243576526642
1772650004571323100,1.6483232421875,-0.08708349615335464,0.1403363049030304,0.11988691240549088
1772650004581368000,1.6583681640625,-0.14746907353401184,0.10443903505802155,0.0966005027294159
1772650004591412000,1.668411865234375,-0.20773081481456757,0.1028725653886795,0.08658195286989212
1772650004601456000,1.6784560546875,-0.2593853771686554,0.10626554489135742,0.08264573663473129
1772650004611501000,1.6885009765625,-0.3035448491573334,0.12604723870754242,0.08725593239068985
1772650004621545000,1.698544921875,-0.32797953486442566,0.17798033356666565,0.10362791270017624
1772650004631589000,1.708589111328125,-0.3244290053844452,0.24111244082450867,0.1343698501586914
1772650004641634000,1.718634033203125,-0.29464060068130493,0.3107262849807739,0.17996224761009216
1772650004651678200,1.72867822265625,-0.23839280009269714,0.3730067014694214,0.23423588275909424
1772650004661723100,1.73872314453125,-0.1741737723350525,0.40573301911354065,0.28508082032203674
1772650004671767000,1.74876708984375,-0.1117255911231041,0.40345361828804016,0.31019842624664307
1772650004681811200,1.758811279296875,-0.051662418991327286,0.3512161076068878,0.3050003945827484
1772650004691856100,1.768856201171875,0.00004551431629806757,0.26687219738960266,0.2682221531867981
1772650004701900000,1.778900146484375,0.036325614899396896,0.18409323692321777,0.23529626429080963
1772650004711944200,1.788944091796875,0.05565643310546875,0.1356937438249588,0.21168974041938782
1772650004721989000,1.798989013671875,0.06170952320098877,0.0961986631155014,0.20160886645317078
1772650004732033000,1.809032958984375,0.06819672137498856,0.0704224556684494,0.19637681543827057
1772650004742077200,1.8190771484375,0.07126317173242569,0.047153230756521225,0.20356020331382751
1772650004752122000,1.8291220703125,0.0767359659075737,0.024433273822069168,0.2140946090221405
1772650004762166000,1.839166015625,0.0776580199599266,0.009082978591322899,0.21974143385887146
1772650004772210200,1.849210205078125,0.07513120770454407,0.012946691364049911,0.23231342434883118
1772650004782255000,1.859255126953125,0.07647276669740677,0.022350672632455826,0.2513636350631714
1772650004792299000,1.869299072265625,0.07309454679489136,0.037694476544857025,0.27736833691596985
1772650004802344200,1.87934423828125,0.06044907495379448,0.03965813294053078,0.3009454905986786
1772650004812388000,1.88938818359375,0.055663906037807465,0.0028551104478538036,0.3216307759284973
1772650004822432000,1.899431884765625,0.0550670325756073,-0.05047568306326866,0.32723888754844666
1772650004832477200,1.909477294921875,0.06205463781952858,-0.10571443289518356,0.32159939408302307
1772650004842520800,1.919520751953125,0.06853000819683075,-0.15296635031700134,0.29999133944511414
1772650004852565000,1.92956494140625,0.0647248849272728,-0.1749797761440277,0.27292269468307495
1772650004862610200,1.939610107421875,0.0361868180334568,-0.19486987590789795,0.2310657501220703
1772650004872654000,1.949654052734375,-0.011007590219378471,-0.22168417274951935,0.1671176701784134
1772650004882698000,1.959697998046875,-0.06885641813278198,-0.24600854516029358,0.0775793045759201
1772650004892743200,1.9697431640625,-0.12886357307434082,-0.2715488076210022,-0.028022492304444313
1772650004902787000,1.979787109375,-0.1880839318037033,-0.3092849850654602,-0.14004352688789368
1772650004912831000,1.9898310546875,-0.24522924423217773,-0.36007946729660034,-0.23814426362514496
1772650004922876200,1.999876220703125,-0.28727269172668457,-0.4124896228313446,-0.30445414781570435
1772650004932920000,2.009920166015625,-0.31334662437438965,-0.4687776565551758,-0.3341127038002014
1772650004942965000,2.019965087890625,-0.3197668492794037,-0.49590787291526794,-0.3241958022117615
1772650004953009200,2.030009033203125,-0.3089781105518341,-0.48447278141975403,-0.287991464138031
1772650004963053000,2.040052978515625,-0.2978534698486328,-0.4404906630516052,-0.2535381317138672
1772650004973098000,2.050097900390625,-0.3245798945426941,-0.3745329678058624,-0.2699599862098694
1772650004983142100,2.06014208984375,-0.2660956084728241,-0.2896769940853119,-0.2461768388748169
1772650004993186000,2.07018603515625,-0.20341092348098755,-0.09606676548719406,-0.2149965465068817
1772650005003231000,2.08023095703125,-0.1902044415473938,0.07394617050886154,-0.2236877679824829
1772650005013275100,2.090275146484375,-0.20247255265712738,0.20589008927345276,-0.24374988675117493
1772650005023319000,2.100319091796875,-0.2128746062517166,0.2842108905315399,-0.2717638313770294
1772650005033364000,2.110364013671875,-0.2195788472890854,0.31238502264022827,-0.29155752062797546
1772650005043408100,2.120408203125,-0.22063031792640686,0.32272228598594666,-0.30104100704193115
1772650005053452000,2.1304521484375,-0.22658514976501465,0.32397717237472534,-0.3026101291179657
1772650005063497000,2.1404970703125,-0.22923952341079712,0.3105355203151703,-0.2813662886619568
1772650005073541000,2.150541015625,-0.2365024983882904,0.27806735038757324,-0.2469547688961029
1772650005083586300,2.16058642578125,-0.2428067922592163,0.23622488975524902,-0.19251121580600739
1772650005093630000,2.1706298828125,-0.2582360804080963,0.18961504101753235,-0.1405172497034073
1772650005103674000,2.180674072265625,-0.27773410081863403,0.11148392409086227,-0.10861244797706604
1772650005113719300,2.19071923828125,-0.30056777596473694,0.02378656342625618,-0.09131921827793121
1772650005123763200,2.20076318359375,-0.32789191603660583,-0.06747911870479584,-0.08497991412878036
1772650005133807000,2.21080712890625,-0.3516465127468109,-0.14995348453521729,-0.08708248287439346
1772650005143852000,2.22085205078125,-0.37108153104782104,-0.21389402449131012,-0.0801946148276329
1772650005153896200,2.230896240234375,-0.3894672095775604,-0.2385128140449524,-0.06204863637685776
1772650005163940000,2.240940185546875,-0.4073363244533539,-0.2501150965690613,-0.04734426364302635
1772650005173985000,2.250985107421875,-0.41626402735710144,-0.234299898147583,-0.03145318105816841
1772650005184029200,2.261029296875,-0.4083002209663391,-0.20402976870536804,-0.01577768102288246
1772650005194073000,2.271072998046875,-0.39615511894226074,-0.17469798028469086,-0.009014582261443138
1772650005204118000,2.281117919921875,-0.38214412331581116,-0.14740994572639465,-0.0032889582216739655
1772650005214162200,2.291162109375,-0.3632729649543762,-0.12405882030725479,-0.002640744671225548
1772650005224207000,2.30120703125,-0.33735233545303345,-0.11044995486736298,-0.009509108029305935
1772650005234251000,2.3112509765625,-0.31193459033966064,-0.08686047047376633,-0.022190282121300697
1772650005244295200,2.321295166015625,-0.28105616569519043,-0.04602719470858574,-0.031182605773210526
1772650005254340000,2.331340087890625,-0.2597753703594208,-0.021280836313962936,-0.043817441910505295
1772650005264384000,2.341384033203125,-0.2401999980211258,-0.029574044048786163,-0.05164336413145065
1772650005274428200,2.35142822265625,-0.2167135775089264,-0.0521312840282917,-0.04908992722630501
1772650005284473000,2.36147314453125,-0.19943347573280334,-0.0889112800359726,-0.04096146672964096
1772650005294517000,2.37151708984375,-0.18817175924777985,-0.14599986374378204,-0.03427772969007492
1772650005304561200,2.38156103515625,-0.16729475557804108,-0.19858643412590027,-0.02401973307132721
1772650005314606000,2.391606201171875,-0.15056557953357697,-0.23945610225200653,-0.006683618761599064
1772650005324650000,2.40164990234375,-0.13780690729618073,-0.27467480301856995,0.019690196961164474
1772650005334695200,2.411695068359375,-0.126203253865242,-0.30351418256759644,0.05745621770620346
1772650005344739000,2.421739013671875,-0.11142351478338242,-0.3373098075389862,0.10947185009717941
1772650005354783000,2.431782958984375,-0.09121039509773254,-0.3460391163825989,0.16463416814804077
1772650005364828200,2.441828125,-0.0564756914973259,-0.3162151575088501,0.21848095953464508
1772650005374872300,2.451872314453125,-0.02025723271071911,-0.25708845257759094,0.23568497598171234
1772650005384916000,2.461916015625,0.009736021980643272,-0.18234887719154358,0.20285499095916748
1772650005394961200,2.471961181640625,0.030437838286161423,-0.12308473885059357,0.11938406527042389
1772650005405005300,2.48200537109375,0.056562915444374084,-0.07303409278392792,0.02004256285727024
1772650005415049000,2.492049072265625,0.09080930054187775,-0.03666650131344795,-0.07468793541193008
1772650005425094100,2.50209423828125,0.1375269591808319,-0.044579874724149704,-0.1398988664150238
1772650005435138300,2.51213818359375,0.1830691397190094,-0.08004651963710785,-0.16572833061218262
1772650005445182200,2.52218212890625,0.2122148722410202,-0.14450232684612274,-0.15623944997787476
1772650005455227100,2.53222705078125,0.21531344950199127,-0.2027169018983841,-0.1153830885887146
1772650005465271000,2.54227099609375,0.1830197423696518,-0.25782978534698486,-0.059401899576187134
1772650005475316000,2.55231591796875,0.13062125444412231,-0.3198545277118683,-0.003422785084694624
1772650005485360000,2.562360107421875,0.06859224289655685,-0.36769571900367737,0.06826753914356232
1772650005495404000,2.572404052734375,0.004675312899053097,-0.3927331566810608,0.14340144395828247
1772650005505449000,2.582448974609375,-0.043261196464300156,-0.3845347762107849,0.22518722712993622
1772650005515493000,2.5924931640625,-0.070344477891922,-0.3483371138572693,0.306849867105484
1772650005525537000,2.602537109375,-0.06753644347190857,-0.26882684230804443,0.39025795459747314
1772650005535582000,2.61258203125,-0.046536885201931,-0.14568385481834412,0.4484967589378357
1772650005545626000,2.622626220703125,0.0013581863604485989,0.027908332645893097,0.46239855885505676
1772650005555670000,2.632669921875,0.07900211215019226,0.21846096217632294,0.437798410654068
1772650005565715200,2.642715087890625,0.1700713336467743,0.41286981105804443,0.37402212619781494
1772650005575759000,2.652759033203125,0.2578571140766144,0.5797956585884094,0.2756127417087555
1772650005585803000,2.662802978515625,0.318840891122818,0.6790628433227539,0.16704054176807404
1772650005595848200,2.67284814453125,0.34250015020370483,0.7058268189430237,0.06339935958385468
1772650005605892000,2.68289208984375,0.3431912660598755,0.6850022673606873,-0.03599000349640846
1772650005615937000,2.69293701171875,0.3224297761917114,0.6058667302131653,-0.1229371502995491
1772650005625981200,2.702981201171875,0.29094406962394714,0.47935929894447327,-0.1867031306028366
1772650005636025000,2.713025146484375,0.2473776936531067,0.33448120951652527,-0.21794892847537994
1772650005646070000,2.723070068359375,0.1924634426832199,0.17502012848854065,-0.22844231128692627
1772650005656114200,2.7331142578125,0.12700293958187103,-0.012559624388813972,-0.22117960453033447
1772650005666158000,2.743157958984375,0.04999225214123726,-0.2150638997554779,-0.19413720071315765
1772650005676203000,2.753203125,-0.03544861078262329,-0.3837663531303406,-0.15720555186271667
1772650005686247200,2.7632470703125,-0.11991449445486069,-0.5028016567230225,-0.12862077355384827
1772650005696291300,2.773291259765625,-0.19161690771579742,-0.579418957233429,-0.12717626988887787
1772650005706336000,2.7833359375,-0.2431885004043579,-0.614058792591095,-0.16807912290096283
1772650005716380200,2.793380126953125,-0.27104172110557556,-0.6249639391899109,-0.218907430768013
1772650005726424300,2.80342431640625,-0.2733158469200134,-0.5958212018013,-0.2564314901828766
1772650005736469000,2.813468994140625,-0.2558005154132843,-0.5230335593223572,-0.2750973403453827
1772650005746513200,2.82351318359375,-0.2190154790878296,-0.42580705881118774,-0.2709525525569916
1772650005756558000,2.83355810546875,-0.15252061188220978,-0.30802372097969055,-0.23412609100341797
1772650005766602000,2.84360205078125,-0.057488489896059036,-0.17496562004089355,-0.16910777986049652
1772650005776646100,2.853646240234375,0.06203524023294449,-0.028914673253893852,-0.07600101828575134
1772650005786691000,2.863691162109375,0.1783054769039154,0.11065924167633057,0.02161276899278164
1772650005796735000,2.87373486328125,0.28094369173049927,0.20237237215042114,0.10588717460632324
1772650005806779100,2.883779052734375,0.36697864532470703,0.2534862160682678,0.16128040850162506
1772650005816824300,2.89382421875,0.437478631734848,0.2742713987827301,0.16834604740142822
1772650005826868000,2.903867919921875,0.5030107498168945,0.2791062295436859,0.15099941194057465
1772650005836912000,2.913912109375,0.5648813247680664,0.2908363938331604,0.11514314264059067
1772650005846957300,2.923957275390625,0.6156728267669678,0.29930850863456726,0.06732998788356781
1772650005857001000,2.9340009765625,0.6549227833747864,0.2926487624645233,0.003631964325904846
1772650005867045000,2.944045166015625,0.6779691576957703,0.2767261862754822,-0.07733131945133209
1772650005877090300,2.95409033203125,0.6898617148399353,0.26558563113212585,-0.15918651223182678
1772650005887134000,2.964134033203125,0.6883795857429504,0.27867820858955383,-0.23214779794216156
1772650005897179100,2.97417919921875,0.6797011494636536,0.28789222240448,-0.2844879627227783
1772650005907223300,2.984223388671875,0.6687984466552734,0.2844806909561157,-0.30137762427330017
1772650005917267200,2.99426708984375,0.6604326963424683,0.27041786909103394,-0.28794065117836
1772650005927312100,3.00431201171875,0.6456955671310425,0.23514017462730408,-0.25016361474990845
1772650005937356000,3.01435595703125,0.6350559592247009,0.19317807257175446,-0.19914889335632324
1772650005947400200,3.024400146484375,0.6234741806983948,0.16726692020893097,-0.15311299264431
1772650005957445000,3.034445068359375,0.6194725036621094,0.14086885750293732,-0.11795448511838913
1772650005967489000,3.044489013671875,0.629428505897522,0.12675917148590088,-0.08639948815107346
1772650005977533200,3.054533203125,0.6527602076530457,0.13624322414398193,-0.0510215237736702
1772650005987578000,3.064578125,0.6702699661254883,0.14329950511455536,-0.01503191888332367
1772650005997622000,3.0746220703125,0.6935321092605591,0.13882885873317719,0.012530200183391571
1772650006007666000,3.084666015625,0.7169451117515564,0.12333793938159943,0.036522749811410904
1772650006017710800,3.0947109375,0.7348610162734985,0.1072884052991867,0.05667249113321304
1772650006027755000,3.104755126953125,0.737043023109436,0.10794232785701752,0.07704560458660126
1772650006037800200,3.11480029296875,0.7267003655433655,0.10992185771465302,0.0896705910563469
1772650006047843800,3.12484375,0.7153561115264893,0.11332862824201584,0.0872446745634079
1772650006057888000,3.134887939453125,0.7086263298988342,0.11826852709054947,0.0804019495844841
1772650006067933200,3.14493310546875,0.7061057090759277,0.131991446018219,0.07562783360481262
1772650006077976800,3.154976806640625,0.7044402360916138,0.15236914157867432,0.08207960426807404
1772650006088021000,3.16502099609375,0.7027866840362549,0.1733197569847107,0.09233808517456055
1772650006098066200,3.175066162109375,0.6938997507095337,0.20141316950321198,0.11468040943145752
1772650006108109800,3.18510986328125,0.6796150207519531,0.18661510944366455,0.128158837556839
1772650006118154000,3.195154052734375,0.6580064296722412,0.10155506432056427,0.13659147918224335
1772650006128199200,3.20519921875,0.6248610019683838,-0.02500387653708458,0.14979833364486694
1772650006138243000,3.2152431640625,0.5761488676071167,-0.15694406628608704,0.1801019012928009
1772650006148288000,3.2252880859375,0.5140760540962219,-0.26635271310806274,0.21924538910388947
1772650006158332000,3.235331787109375,0.4501594007015228,-0.3417065739631653,0.26417744159698486
1772650006168376000,3.2453759765625,0.3816925287246704,-0.37140142917633057,0.3067402243614197
1772650006178421000,3.2554208984375,0.32614031434059143,-0.3394821286201477,0.34945598244667053
1772650006188465000,3.26546484375,0.2884085774421692,-0.2739059627056122,0.35862138867378235
1772650006198509000,3.275509033203125,0.27763158082962036,-0.20100778341293335,0.33987513184547424
1772650006208554000,3.285553955078125,0.27997562289237976,-0.1342165619134903,0.29369381070137024
1772650006218598000,3.295597900390625,0.30171048641204834,-0.08002336323261261,0.2428913712501526
1772650006228642000,3.30564208984375,0.33330270648002625,-0.02207423560321331,0.20201824605464935
1772650006238687000,3.31568701171875,0.38916704058647156,0.04933496564626694,0.1819840967655182
1772650006248731000,3.32573095703125,0.46243739128112793,0.1492316722869873,0.18841882050037384
1772650006258775000,3.335775146484375,0.5490490198135376,0.25282251834869385,0.21366159617900848
1772650006268820000,3.345820068359375,0.6433373093605042,0.35000017285346985,0.2564798593521118
1772650006278864000,3.35586376953125,0.7346571087837219,0.42605873942375183,0.2967276871204376
1772650006288909000,3.365908935546875,0.8141241669654846,0.4460505545139313,0.32145336270332336
1772650006298953000,3.375952880859375,0.8749262690544128,0.4052157700061798,0.3149011731147766
1772650006308996900,3.385996826171875,0.9294748306274414,0.31020548939704895,0.2899722158908844
1772650006319042000,3.3960419921875,0.9808596968650818,0.2159292995929718,0.2554214298725128
1772650006329086000,3.4060859375,1.007545828819275,0.13511189818382263,0.21578218042850494
1772650006339129900,3.4161298828125,1.0200741291046143,0.07256676256656647,0.17455057799816132
1772650006349175000,3.426175048828125,1.0199272632598877,0.020590655505657196,0.13657474517822266
1772650006359219200,3.43621923828125,1.0132038593292236,-0.03506408631801605,0.09559481590986252
1772650006369262800,3.446262939453125,0.997500479221344,-0.07309877127408981,0.05499006435275078
1772650006379308000,3.45630810546875,0.9861530065536499,-0.08440468460321426,0.00900606345385313
1772650006389352200,3.466352294921875,0.989891529083252,-0.06020822003483772,-0.040688056498765945
1772650006399395800,3.476395751953125,1.0055266618728638,-0.013075328432023525,-0.10138841718435287
1772650006409441000,3.48644091796875,1.0211575031280518,0.03782713785767555,-0.16472238302230835
1772650006419485200,3.496485107421875,1.0261144638061523,0.06740739941596985,-0.23907144367694855
1772650006429529900,3.50652978515625,1.0236504077911377,0.1082523837685585,-0.3142412304878235
1772650006439574000,3.516573974609375,1.0166246891021729,0.1304607391357422,-0.39483433961868286
1772650006449618200,3.5266181640625,1.0137242078781128,0.14162573218345642,-0.45729580521583557
1772650006459662800,3.536662841796875,1.0083906650543213,0.13963527977466583,-0.4881109893321991
1772650006469707000,3.54670703125,0.9982380867004395,0.13106755912303925,-0.47554829716682434
1772650006479751000,3.5567509765625,0.9880086183547974,0.12937699258327484,-0.43386343121528625
1772650006489795800,3.5667958984375,0.9769490957260132,0.13124829530715942,-0.37000203132629395
1772650006499840000,3.576840087890625,0.9686400294303894,0.1461057960987091,-0.28911757469177246
1772650006509884000,3.5868837890625,0.9509125351905823,0.15774200856685638,-0.2069322019815445
1772650006519928800,3.5969287109375,0.9244646430015564,0.13504016399383545,-0.14300008118152618
1772650006529973000,3.606972900390625,0.8971245288848877,0.08498023450374603,-0.09964178502559662
1772650006540017000,3.617016845703125,0.8550606966018677,0.03422917053103447,-0.08582716435194016
1772650006550061800,3.627061767578125,0.8182556629180908,-0.01780530996620655,-0.09064339846372604
1772650006560106000,3.63710595703125,0.7759151458740234,-0.033602114766836166,-0.09910798817873001
1772650006570151200,3.647151123046875,0.7336024045944214,-0.021271508187055588,-0.10577292740345001
1772650006580195000,3.657195068359375,0.6921396851539612,0.0001770583912730217,-0.1264512985944748
1772650006590239000,3.667239013671875,0.6564107537269592,0.018278174102306366,-0.1482795923948288
1772650006600284200,3.6772841796875,0.6340239644050598,0.02918355166912079,-0.16422580182552338
1772650006610328000,3.687328125,0.6180567741394043,0.03870569169521332,-0.16221030056476593
1772650006620372000,3.6973720703125,0.5880992412567139,0.05690813064575195,-0.13469451665878296
1772650006630417000,3.7074169921875,0.5488759279251099,0.057845089584589005,-0.08785460144281387
1772650006640461000,3.7174609375,0.4993310272693634,0.06131519004702568,-0.041420530527830124
1772650006650505000,3.7275048828125,0.4383487403392792,0.06785030663013458,-0.0003469226649031043
1772650006660550000,3.7375498046875,0.381841778755188,0.06621991097927094,0.027741968631744385
1772650006670594000,3.747593994140625,0.3372062146663666,0.0651710107922554,0.04920005053281784
1772650006680638000,3.757637939453125,0.31518054008483887,0.057616692036390305,0.07802371680736542
1772650006690683000,3.767682861328125,0.30453288555145264,0.05233089253306389,0.11248572170734406
1772650006700727000,3.77772705078125,0.3060426115989685,0.04590708017349243,0.14328090846538544
1772650006710772000,3.78777197265625,0.31658482551574707,0.029266010969877243,0.1669522523880005
1772650006720815900,3.79781591796875,0.33438432216644287,0.0156394150108099,0.18298715353012085
1772650006730860000,3.807860107421875,0.3478512167930603,0.005897046998143196,0.18846796452999115
1772650006740905000,3.817905029296875,0.3458349406719208,0.015999216586351395,0.1919202208518982
1772650006750948900,3.827948974609375,0.3200799226760864,0.030951734632253647,0.1800217479467392
1772650006760993000,3.837992919921875,0.27305516600608826,0.026109572499990463,0.16119559109210968
1772650006771038000,3.848037841796875,0.23204979300498962,-0.005193953402340412,0.1447279304265976
1772650006781081900,3.858081787109375,0.1959194839000702,-0.051165707409381866,0.13796722888946533
1772650006791126000,3.8681259765625,0.1810852736234665,-0.07277822494506836,0.1542413830757141
1772650006801171000,3.8781708984375,0.20606732368469238,-0.0414019338786602,0.19551745057106018
1772650006811214800,3.88821484375,0.26322367787361145,-0.0027031577192246914,0.22298654913902283
1772650006821260000,3.898260009765625,0.3181558847427368,0.022850139066576958,0.2015387862920761
1772650006831304200,3.90830419921875,0.35996919870376587,0.055733371526002884,0.13445502519607544
1772650006841347800,3.918347900390625,0.40060290694236755,0.09458516538143158,0.02902207337319851
1772650006851393000,3.92839306640625,0.41724589467048645,0.09820879995822906,-0.09887992590665817
1772650006861437200,3.938437255859375,0.3931054174900055,0.054467447102069855,-0.2435513585805893
1772650006871480800,3.948480712890625,0.32192644476890564,0.006193564739078283,-0.36452367901802063
1772650006881526000,3.958526123046875,0.22219425439834595,-0.016818011179566383,-0.4322132468223572
1772650006891570200,3.968570068359375,0.12380683422088623,0.013769393786787987,-0.40980592370033264
1772650006901613800,3.97861376953125,0.0478883720934391,0.07220660895109177,-0.29930925369262695
1772650006911659000,3.988658935546875,-0.00027441116981208324,0.14869572222232819,-0.12715741991996765
1772650006921703200,3.998703125,-0.031238185241818428,0.19834664463996887,0.059997543692588806
1772650006931747000,4.0087470703125,-0.04179895296692848,0.2061891108751297,0.23089338839054108
1772650006941792000,4.0187919921875,-0.033266983926296234,0.1589137464761734,0.3732742369174957
1772650006951836000,4.0288359375,-0.00794726051390171,0.0760595053434372,0.485750287771225
1772650006961880800,4.038880859375,0.04736845940351486,0.001091781072318554,0.5722780227661133
1772650006971925000,4.048925048828125,0.1152002364397049,-0.05823441967368126,0.649441123008728
1772650006981969000,4.058968994140625,0.17902609705924988,-0.1022532731294632,0.6983689665794373
1772650006992013800,4.069013916015625,0.235945925116539,-0.13904178142547607,0.7263659834861755
1772650007002058000,4.07905810546875,0.2885422706604004,-0.15455682575702667,0.7363557815551758
1772650007012102100,4.08910205078125,0.34471595287323,-0.13643714785575867,0.7349032759666443
1772650007022147000,4.09914697265625,0.3900136649608612,-0.08180877566337585,0.7112728357315063
1772650007032191000,4.10919091796875,0.41682207584381104,-0.025207502767443657,0.6666341423988342
1772650007042235100,4.119235107421875,0.4300342798233032,0.01358836330473423,0.5862980484962463
1772650007052280000,4.129280029296875,0.43612316250801086,0.05578533932566643,0.47300469875335693
1772650007062324000,4.139323974609375,0.44091230630874634,0.08440099656581879,0.3400895297527313
1772650007072368000,4.1493681640625,0.4341455399990082,0.07945477217435837,0.20757755637168884
1772650007082413000,4.1594130859375,0.41727760434150696,0.05811086297035217,0.09708059579133987
1772650007092457000,4.16945703125,0.40949374437332153,0.03983423113822937,0.022934094071388245
1772650007102502100,4.179502197265625,0.41349220275878906,0.028748556971549988,-0.01506255567073822
1772650007112546000,4.189546142578125,0.4314951002597809,0.02649163082242012,-0.028221633285284042
1772650007122590000,4.19958984375,0.4462873637676239,0.035478465259075165,-0.013978247530758381
1772650007132635100,4.20963525390625,0.4588916599750519,0.07154326885938644,0.030319739133119583
1772650007142679000,4.219678955078125,0.4656233489513397,0.12156995385885239,0.07754264026880264
1772650007152723200,4.22972314453125,0.4705151617527008,0.1524287462234497,0.10821196436882019
1772650007162768100,4.23976806640625,0.4722890853881836,0.15015999972820282,0.1013663113117218
1772650007172812000,4.24981201171875,0.4730095863342285,0.13781927525997162,0.06269891560077667
1772650007182856200,4.259856201171875,0.47818970680236816,0.1353723704814911,0.0016579347429797053
1772650007192901000,4.269901123046875,0.4781993329524994,0.136511892080307,-0.07594731450080872
1772650007202945000,4.279945068359375,0.48458850383758545,0.14039689302444458,-0.15355049073696136
1772650007212989200,4.2899892578125,0.49185463786125183,0.15696793794631958,-0.22268328070640564
1772650007223034000,4.3000341796875,0.49635592103004456,0.1946500688791275,-0.27167055010795593
1772650007233078000,4.310078125,0.5064602494239807,0.23818039894104004,-0.30437272787094116
1772650007243123000,4.320123046875,0.5084573030471802,0.2598787546157837,-0.33690935373306274
1772650007253167000,4.3301669921875,0.5111278891563416,0.24501313269138336,-0.3777894377708435
1772650007263211000,4.3402109375,0.5191519856452942,0.2010033279657364,-0.4118400812149048
1772650007273256000,4.350255859375,0.5266923308372498,0.1603887677192688,-0.42172420024871826
1772650007283300000,4.360300048828125,0.5418015122413635,0.140947163105011,-0.41161563992500305
1772650007293344000,4.370343994140625,0.5546870231628418,0.1363237053155899,-0.3934374749660492
1772650007303389200,4.38038916015625,0.5743411183357239,0.14417365193367004,-0.38989466428756714
1772650007313433000,4.39043310546875,0.6007471680641174,0.1570242941379547,-0.4054849147796631
1772650007323477000,4.40047705078125,0.6268578767776489,0.16212451457977295,-0.440540611743927
1772650007333522200,4.410522216796875,0.6427096724510193,0.15879343450069427,-0.48112645745277405
1772650007343566000,4.420566162109375,0.6534102559089661,0.1588459014892578,-0.5143706798553467
1772650007353611000,4.430611083984375,0.6515210866928101,0.17055821418762207,-0.5188027024269104
1772650007363655200,4.4406552734375,0.6365588903427124,0.1718442589044571,-0.4881393313407898
1772650007373699000,4.450698974609375,0.6167579889297485,0.18674415349960327,-0.41909560561180115
1772650007383744000,4.460743896484375,0.593925952911377,0.2032669484615326,-0.31901586055755615
1772650007393788200,4.4707880859375,0.5797752141952515,0.21533307433128357,-0.20763519406318665
1772650007403832000,4.48083203125,0.5811456441879272,0.23231126368045807,-0.09561784565448761
1772650007413877000,4.490876953125,0.5876171588897705,0.2478911280632019,0.0017211168305948377
1772650007423921200,4.500921142578125,0.6095576286315918,0.2740961015224457,0.08759421110153198
1772650007433965000,4.510965087890625,0.6443642377853394,0.3150483965873718,0.16340534389019012
1772650007444010000,4.521010009765625,0.6829720735549927,0.3308262825012207,0.2279563844203949
1772650007454054100,4.53105419921875,0.7076888084411621,0.32031092047691345,0.2823558449745178
1772650007464099000,4.54109912109375,0.7185265421867371,0.31778302788734436,0.3168909251689911
1772650007474143000,4.55114306640625,0.7104575634002686,0.30709314346313477,0.32544782757759094
1772650007484187100,4.561187255859375,0.6969228386878967,0.300915390253067,0.30993011593818665
1772650007494232000,4.571232177734375,0.6877914071083069,0.2960145175457001,0.2783622145652771
1772650007504276000,4.58127587890625,0.6849913597106934,0.32253745198249817,0.24563652276992798
1772650007514320100,4.591320068359375,0.6863239407539368,0.36387038230895996,0.21350295841693878
1772650007524365000,4.601364990234375,0.6967078447341919,0.39100027084350586,0.18105100095272064
1772650007534409000,4.611408935546875,0.7083097696304321,0.3732708692550659,0.13549655675888062
1772650007544453000,4.621453125,0.710566520690918,0.297204852104187,0.07277511805295944
1772650007554498000,4.631498046875,0.7066282629966736,0.21305960416793823,0.004505782853811979
1772650007564542000,4.6415419921875,0.6867498755455017,0.15223939716815948,-0.05196521803736687
1772650007574586000,4.651586181640625,0.6478590965270996,0.09542078524827957,-0.0938575342297554
1772650007584631000,4.661631103515625,0.6041310429573059,0.03649595379829407,-0.1176970824599266
1772650007594675000,4.671675048828125,0.54966801404953,-0.007699988316744566,-0.12500953674316406
1772650007604720000,4.68172021484375,0.5034419298171997,-0.030399974435567856,-0.10340916365385056
1772650007614764000,4.691763916015625,0.4691336154937744,-0.014967763796448708,-0.05337905138731003
1772650007624808200,4.70180810546875,0.4512576758861542,0.0020626182667911053,0.0059223538264632225
1772650007634853000,4.71185302734375,0.44166386127471924,0.004292742349207401,0.06123670935630798
1772650007644897000,4.72189697265625,0.4507465660572052,0.007758048363029957,0.1117803156375885
1772650007654941200,4.731941162109375,0.4699389338493347,0.00006876140832901001,0.16161760687828064
1772650007664986000,4.741986083984375,0.5056410431861877,0.008720573037862778,0.20129097998142242
1772650007675030000,4.752030029296875,0.562033474445343,0.060508403927087784,0.2430189847946167
1772650007685074200,4.76207421875,0.6322615742683411,0.14309702813625336,0.2826026380062103
1772650007695119000,4.772119140625,0.692414402961731,0.2501171827316284,0.3188895881175995
1772650007705163000,4.7821630859375,0.7472086548805237,0.3648291230201721,0.34671348333358765
1772650007715207200,4.792207275390625,0.7878269553184509,0.47973400354385376,0.3698924481868744
1772650007725251000,4.8022509765625,0.8166067004203796,0.5632009506225586,0.3786204159259796
1772650007735296000,4.8122958984375,0.8301014304161072,0.6029374599456787,0.3729470670223236
1772650007745340200,4.822340087890625,0.8330769538879395,0.5851296186447144,0.3490060269832611
1772650007755384000,4.832384033203125,0.832717776298523,0.5276533961296082,0.32014578580856323
1772650007765429000,4.842428955078125,0.8268420696258545,0.4544270634651184,0.29060468077659607
1772650007775473200,4.85247314453125,0.8152170777320862,0.36556288599967957,0.25906670093536377
1772650007785517000,4.86251708984375,0.8094907402992249,0.27625882625579834,0.22133158147335052
1772650007795562000,4.87256201171875,0.7974932193756104,0.18141022324562073,0.1885085105895996
1772650007805606100,4.882606201171875,0.7760885953903198,0.0995132327079773,0.16126330196857452
1772650007815651000,4.892651123046875,0.7309888601303101,0.03981952741742134,0.12809117138385773
1772650007825695000,4.902695068359375,0.67188560962677,-0.025334175676107407,0.08616769313812256
1772650007835739100,4.9127392578125,0.6114652752876282,-0.09219487011432648,0.03374107554554939
1772650007845784000,4.9227841796875,0.5592414736747742,-0.138011634349823,-0.028339071199297905
1772650007855828000,4.932827880859375,0.5117745399475098,-0.1423220932483673,-0.08944561332464218
1772650007865872100,4.9428720703125,0.46979355812072754,-0.10430999845266342,-0.14752328395843506
1772650007875917000,4.9529169921875,0.4441955089569092,-0.062087446451187134,-0.1956615149974823
1772650007885961000,4.9629609375,0.4312879741191864,-0.027064215391874313,-0.22623567283153534
1772650007896005000,4.973005126953125,0.438980370759964,0.022345636039972305,-0.23623895645141602
1772650007906050000,4.983050048828125,0.45278167724609375,0.07821236550807953,-0.23144499957561493
1772650007916094000,4.993093994140625,0.4719133675098419,0.12344203889369965,-0.22071480751037598
1772650007926138000,5.00313818359375,0.498244047164917,0.14039172232151031,-0.21146777272224426
1772650007936183000,5.01318310546875,0.5206609964370728,0.14095531404018402,-0.19990092515945435
1772650007946227200,5.023227294921875,0.5315421223640442,0.13817283511161804,-0.18256986141204834
1772650007956272000,5.033272216796875,0.524867594242096,0.11370109021663666,-0.1545359194278717
1772650007966316000,5.04331591796875,0.5085349678993225,0.08976167440414429,-0.13645757734775543
1772650007976360200,5.053360107421875,0.4909179210662842,0.07498118281364441,-0.11247266083955765
1772650007986405000,5.063405029296875,0.4646809995174408,0.04867660999298096,-0.09537409991025925
1772650007996449000,5.073448974609375,0.43289420008659363,-0.0072052315808832645,-0.07575859129428864
1772650008006493400,5.083493408203125,0.403089702129364,-0.06313320994377136,-0.0439537949860096
1772650008016538000,5.0935380859375,0.38404586911201477,-0.10909298807382584,0.008341338485479355
1772650008026582300,5.103582275390625,0.3737841844558716,-0.13713526725769043,0.07682958245277405
1772650008036626400,5.11362646484375,0.36079591512680054,-0.1626293957233429,0.14836789667606354
1772650008046671000,5.123671142578125,0.3404536247253418,-0.1750173568725586,0.2143234759569168
1772650008056716300,5.13371630859375,0.32637524604797363,-0.14149588346481323,0.26011624932289124
1772650008066760200,5.14376025390625,0.32238292694091797,-0.06482508778572083,0.2919476628303528
1772650008076804000,5.15380419921875,0.31883737444877625,0.04738626629114151,0.3011581599712372
1772650008086849300,5.163849365234375,0.3159528970718384,0.17351996898651123,0.282938152551651
1772650008096893200,5.17389306640625,0.31904396414756775,0.2890392243862152,0.254547655582428
1772650008106937000,5.18393701171875,0.326575368642807,0.3646301031112671,0.2090531289577484
1772650008116982300,5.193982177734375,0.3221990168094635,0.3933674693107605,0.15187878906726837
1772650008127026400,5.2040263671875,0.3101942837238312,0.3611794412136078,0.09365490078926086
1772650008137071000,5.214071044921875,0.2897733449935913,0.3010352849960327,0.06295831501483917
1772650008147115300,5.224115234375,0.2620655298233032,0.2515689432621002,0.06529098004102707
1772650008157159400,5.234159423828125,0.2178352177143097,0.21333950757980347,0.09433422982692719
1772650008167204000,5.2442041015625,0.14983247220516205,0.16975288093090057,0.13469816744327545
1772650008177248300,5.254248291015625,0.0679890364408493,0.11118112504482269,0.16892410814762115
1772650008187292400,5.26429248046875,-0.03361401706933975,0.05510694533586502,0.18377016484737396
1772650008197337000,5.274337158203125,-0.12313472479581833,0.02404232881963253,0.18765583634376526
1772650008207381200,5.28438134765625,-0.18169844150543213,0.0376790426671505,0.19832099974155426
1772650008217425400,5.29442529296875,-0.1923954337835312,0.08551003783941269,0.208604097366333
1772650008227470000,5.304469970703125,-0.16139064729213715,0.0987938866019249,0.20759396255016327
1772650008237514200,5.31451416015625,-0.1312437802553177,0.04479421302676201,0.15135960280895233
1772650008247559400,5.324559326171875,-0.11760067194700241,-0.03824661299586296,0.042674675583839417
1772650008257603000,5.33460302734375,-0.10699789971113205,-0.08744867891073227,-0.11965497583150864
1772650008267647200,5.344647216796875,-0.1019647940993309,-0.10446388274431229,-0.3176756501197815
1772650008277692400,5.3546923828125,-0.12307607382535934,-0.13728486001491547,-0.5259600281715393
1772650008287736000,5.364736083984375,-0.17667965590953827,-0.15401722490787506,-0.687824010848999
1772650008297780200,5.3747802734375,-0.2601486146450043,-0.1621212214231491,-0.7885578274726868
1772650008307825400,5.384825439453125,-0.3296736478805542,-0.17805145680904388,-0.8237453699111938
1772650008317869300,5.394869384765625,-0.35914716124534607,-0.2072053998708725,-0.7911948561668396
1772650008327913200,5.404913330078125,-0.36864933371543884,-0.24706172943115234,-0.7151291370391846
1772650008337958400,5.41495849609375,-0.3521820306777954,-0.29018139839172363,-0.6001495718955994
1772650008348002300,5.425002197265625,-0.31476327776908875,-0.29190686345100403,-0.44675466418266296
1772650008358047200,5.435047119140625,-0.24650107324123383,-0.23452778160572052,-0.27219247817993164
1772650008368091400,5.44509130859375,-0.2105955332517624,-0.14194992184638977,-0.15049080550670624
1772650008378135300,5.45513525390625,-0.11602814495563507,-0.12647223472595215,-0.0498303547501564
1772650008388180200,5.46518017578125,0.053770747035741806,-0.029485777020454407,0.09471404552459717
1772650008398224100,5.47522412109375,0.14902855455875397,0.053016822785139084,0.21435388922691345
1772650008408268300,5.485268310546875,0.18698659539222717,0.07747369259595871,0.30575811862945557
1772650008418313200,5.495313232421875,0.21669703722000122,0.0856838971376419,0.3678915500640869
1772650008428357000,5.505357177734375,0.24151423573493958,0.06883807480335236,0.386148065328598
1772650008438401300,5.5154013671875,0.24551106989383698,0.022062361240386963,0.3691365122795105
1772650008448446200,5.5254462890625,0.23174358904361725,-0.023123227059841156,0.3327196538448334
1772650008458490000,5.535489990234375,0.20270264148712158,-0.0727028101682663,0.2926252782344818
1772650008468534300,5.5455341796875,0.14577332139015198,-0.14106535911560059,0.2499614655971527
1772650008478579200,5.5555791015625,0.06436901539564133,-0.22899441421031952,0.20194466412067413
1772650008488623000,5.565623046875,-0.03700372949242592,-0.3133586347103119,0.1504916399717331
1772650008498668300,5.575668212890625,-0.13837482035160065,-0.3933807611465454,0.09547540545463562
1772650008508712200,5.585712158203125,-0.22230088710784912,-0.45565879344940186,0.02301131933927536
1772650008518756000,5.595756103515625,-0.28363683819770813,-0.48728448152542114,-0.03230675309896469
1772650008528801300,5.60580126953125,-0.3312211334705353,-0.4864770174026489,-0.06604234874248505
1772650008538845200,5.61584521484375,-0.3679492473602295,-0.45166924595832825,-0.07348398864269257
1772650008548889000,5.62588916015625,-0.3796314597129822,-0.380820095539093,-0.05511057376861572
1772650008558934300,5.635934326171875,-0.37285804748535156,-0.2680507302284241,-0.027472786605358124
1772650008568978400,5.645978515625,-0.33339157700538635,-0.12444695830345154,0.01482140738517046
1772650008579022000,5.65602197265625,-0.27691009640693665,0.016135279089212418,0.059916552156209946
1772650008589067300,5.6660673828125,-0.20853395760059357,0.1309095323085785,0.08912104368209839
1772650008599111400,5.676111328125,-0.14328952133655548,0.17759446799755096,0.08835349231958389
1772650008609156000,5.686156005859375,-0.07969243079423904,0.17732281982898712,0.06171362102031708
1772650008619200300,5.6962001953125,-0.03332177922129631,0.15975306928157806,0.026125727221369743
1772650008629244400,5.706244384765625,-0.005619844421744347,0.13462162017822266,-0.015577777288854122
1772650008639289000,5.7162890625,0.002540725516155362,0.10662270337343216,-0.04845360666513443
1772650008649333200,5.726333251953125,0.0004466820973902941,0.09107623249292374,-0.07620986551046371
1772650008659377400,5.73637744140625,-0.016448449343442917,0.06374668329954147,-0.1030598133802414
1772650008669422000,5.746422119140625,-0.03770313784480095,0.025676261633634567,-0.12425298243761063
1772650008679466200,5.75646630859375,-0.05917559564113617,-0.015940947458148003,-0.1399911642074585
1772650008689510400,5.766510498046875,-0.0756126195192337,-0.039386086165905,-0.15262120962142944
1772650008699555000,5.77655517578125,-0.09487050026655197,-0.04319757968187332,-0.15356068313121796
1772650008709599200,5.78659912109375,-0.11254163831472397,-0.02875126153230667,-0.14844395220279694
1772650008719644400,5.79664453125,-0.12303370237350464,-0.0021824752911925316,-0.1508990079164505
1772650008729688000,5.80668798828125,-0.13019387423992157,0.018888454884290695,-0.16261346638202667
1772650008739732200,5.816732177734375,-0.13014967739582062,0.053764279931783676,-0.17441341280937195
1772650008749777400,5.82677734375,-0.12439244985580444,0.1107197105884552,-0.19179771840572357
1772650008759821000,5.836821044921875,-0.10967310518026352,0.17250841856002808,-0.19508755207061768
1772650008769865200,5.846865234375,-0.09445633739233017,0.23288734257221222,-0.18974870443344116
1772650008779910400,5.856910400390625,-0.07655655592679977,0.27308955788612366,-0.17344734072685242
1772650008789954300,5.866954345703125,-0.04998619854450226,0.29565316438674927,-0.14974094927310944
1772650008799998200,5.876998291015625,-0.019813427701592445,0.2979618012905121,-0.1394807994365692
1772650008810043400,5.88704345703125,0.005262897349894047,0.2804701626300812,-0.14100892841815948
1772650008820087300,5.89708740234375,0.027927229180932045,0.2490120530128479,-0.14252100884914398
1772650008830132200,5.90713232421875,0.04048456624150276,0.1887199580669403,-0.1511499285697937
1772650008840176400,5.91717626953125,0.057643044739961624,0.11630594730377197,-0.15056642889976501
1772650008850220300,5.92722021484375,0.07827188819646835,0.029079962521791458,-0.13935132324695587
1772650008860265200,5.93726513671875,0.08619849383831024,-0.052944280207157135,-0.1260046809911728
1772650008870309000,5.94730908203125,0.09284574538469315,-0.11376555263996124,-0.09876321256160736
1772650008880353300,5.957353271484375,0.10162698477506638,-0.15096218883991241,-0.04528214409947395
1772650008890398200,5.967398193359375,0.12000492960214615,-0.12406932562589645,0.025361664593219757
1772650008900442000,5.977442138671875,0.16666167974472046,-0.043622203171253204,0.09912490099668503
1772650008910486300,5.987486328125,0.23900671303272247,0.014860281720757484,0.15332342684268951
1772650008920531200,5.99753125,0.30422234535217285,0.03293319791555405,0.16991694271564484
1772650008930575000,6.0075751953125,0.3537302613258362,0.036902107298374176,0.15348124504089355
1772650008940620300,6.017620361328125,0.4015142619609833,0.05054209753870964,0.11722075194120407
1772650008950664200,6.027664306640625,0.43941396474838257,0.04826163128018379,0.06102991849184036
1772650008960708000,6.0377080078125,0.451495885848999,0.021661872044205666,-0.0033814588095992804
1772650008970753300,6.047753173828125,0.43513450026512146,-0.025454508140683174,-0.07282710820436478
1772650008980797200,6.057797119140625,0.36668169498443604,-0.06570035219192505,-0.13445940613746643
1772650008990841000,6.067841064453125,0.252363920211792,-0.10531461238861084,-0.1965819001197815
1772650009000886300,6.07788623046875,0.1017039492726326,-0.16180525720119476,-0.2522542476654053
1772650009010930200,6.08793017578125,-0.046769414097070694,-0.20312392711639404,-0.28097590804100037
1772650009020974000,6.09797412109375,-0.14575646817684174,-0.19376152753829956,-0.25018101930618286
1772650009031019300,6.108019287109375,-0.20766085386276245,-0.14601212739944458,-0.15917308628559113
1772650009041063400,6.1180634765625,-0.24004101753234863,-0.056932806968688965,-0.022057674825191498
1772650009051107000,6.128107177734375,-0.213692769408226,0.07863593846559525,0.14284658432006836
1772650009061152300,6.13815234375,-0.11996229737997055,0.2475685477256775,0.30186164379119873
1772650009071196400,6.148196533203125,0.02828974835574627,0.41619083285331726,0.4156672954559326
1772650009081241000,6.158240966796875,0.19055558741092682,0.5413370728492737,0.4593079090118408
1772650009091285200,6.16828515625,0.31218427419662476,0.5992786884307861,0.448902428150177
1772650009101329400,6.178329345703125,0.3618912100791931,0.5978545546531677,0.40074318647384644
1772650009111374000,6.1883740234375,0.37194064259529114,0.5615298748016357,0.3362019956111908
1772650009121418200,6.198418212890625,0.34912610054016113,0.48244917392730713,0.2597697675228119
1772650009131462400,6.20846240234375,0.316821426153183,0.35508376359939575,0.1835324913263321
1772650009141507000,6.218507080078125,0.2775322198867798,0.22697141766548157,0.12386810034513474
1772650009151551200,6.22855126953125,0.2307703047990799,0.12207695841789246,0.07438018172979355
1772650009161595400,6.238595458984375,0.18493753671646118,0.038579314947128296,0.01863960549235344
1772650009171640000,6.24864013671875,0.15969662368297577,-0.027262547984719276,-0.04548505321145058
1772650009181684200,6.258684326171875,0.15174920856952667,-0.08708377927541733,-0.12686315178871155
1772650009191729400,6.2687294921875,0.1517995446920395,-0.15570971369743347,-0.21388113498687744
1772650009201773000,6.27877294921875,0.15395522117614746,-0.22002987563610077,-0.3039800524711609
1772650009211817200,6.288817138671875,0.15122494101524353,-0.2689385712146759,-0.3910534381866455
1772650009221862400,6.2988623046875,0.13232660293579102,-0.31780290603637695,-0.46048086881637573
1772650009231906000,6.308906005859375,0.10493279993534088,-0.3339539170265198,-0.5030461549758911
1772650009241950200,6.3189501953125,0.08006240427494049,-0.3064403533935547,-0.5144428014755249
1772650009251995400,6.328995361328125,0.06514177471399307,-0.22816604375839233,-0.46998316049575806
1772650009262039300,6.339039306640625,0.06297529488801956,-0.1107611283659935,-0.3803696632385254
1772650009272083200,6.349083251953125,0.08203180879354477,0.02584252506494522,-0.25276777148246765
1772650009282128400,6.35912841796875,0.1138351708650589,0.14663636684417725,-0.11041896790266037
1772650009292172300,6.36917236328125,0.15790994465351105,0.219972625374794,0.011237692087888718
1772650009302217200,6.37921728515625,0.20214301347732544,0.25679680705070496,0.08835887908935547
1772650009312261400,6.389261474609375,0.2368605136871338,0.26395273208618164,0.125658318400383
1772650009322305300,6.39930517578125,0.2584453225135803,0.25342297554016113,0.12874753773212433
1772650009332350200,6.40935009765625,0.2679155170917511,0.2412707358598709,0.11284847557544708
1772650009342394000,6.41939404296875,0.27572667598724365,0.23378129303455353,0.07945549488067627
1772650009352438300,6.429438232421875,0.28304529190063477,0.22127747535705566,0.03899142146110535
1772650009362483200,6.439483154296875,0.2808022201061249,0.18755090236663818,0.0018188485410064459
1772650009372527000,6.449527099609375,0.26450419425964355,0.13569170236587524,-0.02957848832011223
1772650009382571300,6.4595712890625,0.24230654537677765,0.08331459015607834,-0.0515873096883297
1772650009392616200,6.4696162109375,0.21421019732952118,0.03819292038679123,-0.061021290719509125
1772650009402660000,6.47966015625,0.1786464899778366,0.0028346776962280273,-0.05970562994480133
1772650009412705300,6.489705322265625,0.13522684574127197,-0.036886900663375854,-0.05736204609274864
1772650009422749200,6.499749267578125,0.08015869557857513,-0.09188512712717056,-0.06163465231657028
1772650009432793000,6.50979296875,0.02297050505876541,-0.15130451321601868,-0.05760155990719795
1772650009442838300,6.51983837890625,-0.03721217066049576,-0.19506366550922394,-0.055860452353954315
1772650009452882200,6.529882080078125,-0.09476654976606369,-0.2278844714164734,-0.04770611599087715
1772650009462926000,6.539926025390625,-0.14736923575401306,-0.22344081103801727,-0.01150776818394661
1772650009472971300,6.54997119140625,-0.19185654819011688,-0.16929155588150024,0.049653057008981705
1772650009483015400,6.560015380859375,-0.22956597805023193,-0.11528991162776947,0.12461039423942566
1772650009493059000,6.57005908203125,-0.26026129722595215,-0.06238913908600807,0.198217511177063
1772650009503104300,6.580104248046875,-0.28375792503356934,-0.03841444104909897,0.2561816871166229
1772650009513148400,6.5901484375,-0.3049289882183075,-0.04521162807941437,0.28246816992759705
1772650009523192000,6.600192138671875,-0.32701393961906433,-0.04751759395003319,0.27417293190956116
1772650009533237200,6.6102373046875,-0.34990113973617554,-0.032391902059316635,0.23958858847618103
1772650009543281400,6.620281494140625,-0.3816361427307129,-0.03955700248479843,0.1813783049583435
1772650009553326000,6.630326171875,-0.411518394947052,-0.06899425387382507,0.11261255294084549
1772650009563370200,6.640370361328125,-0.44185248017311096,-0.10261645913124084,0.04665884003043175
1772650009573414400,6.650414306640625,-0.47611886262893677,-0.09845367819070816,0.009871264919638634
1772650009583459000,6.660458984375,-0.5054471492767334,-0.05922875180840492,0.010091864503920078
1772650009593503200,6.670503173828125,-0.5248637795448303,-0.012947007082402706,0.0397871732711792
1772650009603547400,6.68054736328125,-0.5241873264312744,0.034682512283325195,0.10176512598991394
1772650009613592000,6.690592041015625,-0.500085711479187,0.052196260541677475,0.16161727905273438
1772650009623636200,6.70063623046875,-0.46772217750549316,0.031613804399967194,0.21078582108020782
1772650009633681400,6.710681396484375,-0.44043222069740295,-0.019461099058389664,0.2217891961336136
1772650009643725000,6.72072509765625,-0.43492433428764343,-0.0600135363638401,0.1826539933681488
1772650009653769200,6.730769287109375,-0.433647096157074,-0.09573371708393097,0.09290359169244766
1772650009663814400,6.740814453125,-0.4299302101135254,-0.14792577922344208,-0.04003005474805832
1772650009673858000,6.750858154296875,-0.41933614015579224,-0.19054727256298065,-0.1876208484172821
1772650009683902200,6.760902099609375,-0.4066624045372009,-0.18245716392993927,-0.31504398584365845
1772650009693947400,6.770947509765625,-0.3928658962249756,-0.14266447722911835,-0.3956213593482971
1772650009703991300,6.7809912109375,-0.36543962359428406,-0.07612207531929016,-0.41362833976745605
1772650009714035200,6.79103515625,-0.3328912556171417,-0.00451792823150754,-0.3669588565826416
1772650009724080400,6.801080322265625,-0.29181620478630066,0.04682667925953865,-0.2700429856777191
1772650009734124300,6.811124267578125,-0.24635043740272522,0.0756165161728859,-0.14732985198497772
1772650009744168200,6.821168212890625,-0.19737914204597473,0.11196834594011307,-0.013369318097829819
1772650009754213400,6.83121337890625,-0.14999325573444366,0.1502041518688202,0.12328307330608368
1772650009764257300,6.84125732421875,-0.10243164002895355,0.18821007013320923,0.2572060227394104
1772650009774302200,6.85130224609375,-0.0628671869635582,0.21313032507896423,0.3735952079296112
1772650009784346400,6.861346435546875,-0.03358954191207886,0.20343801379203796,0.46669185161590576
1772650009794390300,6.871390380859375,-0.012697839178144932,0.1802847534418106,0.5208230018615723
1772650009804435200,6.881435302734375,0.004868562798947096,0.15563103556632996,0.5448168516159058
1772650009814479400,6.891479248046875,0.024301650002598763,0.12259452790021896,0.5475887060165405
1772650009824523300,6.901523193359375,0.040569037199020386,0.09394876658916473,0.5187644958496094
1772650009834568200,6.911568115234375,0.05017532408237457,0.07123706489801407,0.4709378182888031
1772650009844612000,6.921612060546875,0.03912870213389397,0.06245783343911171,0.3957939147949219
1772650009854656300,6.93165625,0.009108485653996468,0.05231571942567825,0.2879404127597809
1772650009864701200,6.941701171875,-0.030288316309452057,-0.0046102125197649,0.15649448335170746
1772650009874745000,6.9517451171875,-0.08740593492984772,-0.07006166130304337,0.023156940937042236
1772650009884790300,6.961790283203125,-0.15923358500003815,-0.11987905204296112,-0.09980879724025726
1772650009894834200,6.971834228515625,-0.23897555470466614,-0.1763436496257782,-0.20289310812950134
1772650009904878000,6.981878173828125,-0.3228611350059509,-0.2612564265727997,-0.293281614780426
1772650009914923300,6.99192333984375,-0.41395533084869385,-0.3893224895000458,-0.38029745221138
1772650009924967200,7.00196728515625,-0.5073022842407227,-0.5196594595909119,-0.4500004053115845
1772650009935011000,7.012010986328125,-0.5885827541351318,-0.6271520853042603,-0.5041680335998535
1772650009945056300,7.02205615234375,-0.650287926197052,-0.6628513932228088,-0.5221652984619141
1772650009955100400,7.032100341796875,-0.6779951453208923,-0.5844167470932007,-0.4738055467605591
1772650009965144000,7.04214404296875,-0.6787751317024231,-0.3810235261917114,-0.3631078898906708
1772650009975189200,7.052189208984375,-0.6648254990577698,-0.16189409792423248,-0.23761415481567383
1772650009985233400,7.0622333984375,-0.6332941651344299,0.020415527746081352,-0.12937873601913452
1772650009995278000,7.072278076171875,-0.5941630005836487,0.12475737929344177,-0.07769131660461426
1772650010005321500,7.082321533203125,-0.5358342528343201,0.14499951899051666,-0.05862044915556908
1772650010015365600,7.09236572265625,-0.4567441940307617,0.1358821988105774,-0.0651976615190506
1772650010025410600,7.10241064453125,-0.36377865076065063,0.15776346623897552,-0.08273107558488846
1772650010035454500,7.112454345703125,-0.27392545342445374,0.19160158932209015,-0.10158199071884155
1772650010045498600,7.12249853515625,-0.18584075570106506,0.18647831678390503,-0.12617848813533783
1772650010055543600,7.13254345703125,-0.11164748668670654,0.1558527648448944,-0.16227178275585175
1772650010065587500,7.14258740234375,-0.03075413405895233,0.10823889076709747,-0.20578256249427795
1772650010075631600,7.152631591796875,0.03218860924243927,0.027692649513483047,-0.2480892688035965
1772650010085676500,7.162676513671875,0.07870887219905853,-0.04655120521783829,-0.2768252491950989
1772650010095720400,7.172720458984375,0.11146654933691025,-0.0703263059258461,-0.265794962644577
1772650010105764600,7.1827646484375,0.1215897724032402,-0.053018584847450256,-0.2183665633201599
1772650010115809800,7.192809814453125,0.11353131383657455,-0.04579582437872887,-0.16384047269821167
1772650010125853400,7.202853515625,0.09225588291883469,-0.07984358817338943,-0.11644547432661057
1772650010135898600,7.212898681640625,0.074020154774189,-0.12614823877811432,-0.060716163367033005
1772650010145942800,7.22294287109375,0.06826290488243103,-0.1423143744468689,0.0012736405478790402
1772650010155986400,7.232986328125,0.06478774547576904,-0.1397995501756668,0.061691440641880035
1772650010166031600,7.243031494140625,0.06642314046621323,-0.13677586615085602,0.11834996938705444
1772650010176075800,7.25307568359375,0.07821748405694962,-0.12028822302818298,0.16719846427440643
1772650010186119700,7.26311962890625,0.09910549223423004,-0.11608713865280151,0.21100565791130066
1772650010196164600,7.27316455078125,0.13395188748836517,-0.13106556236743927,0.25190597772598267
1772650010206208800,7.283208740234375,0.16979128122329712,-0.1387796849012375,0.28237995505332947
1772650010216252700,7.293252685546875,0.20982739329338074,-0.15650701522827148,0.30057522654533386
1772650010226297600,7.303297607421875,0.2613997757434845,-0.1525823175907135,0.3262467682361603
1772650010236341800,7.313341796875,0.3138374388217926,-0.16681930422782898,0.3553745448589325
1772650010246386400,7.323386474609375,0.3920992910861969,-0.17995496094226837,0.37450259923934937
1772650010256430600,7.3334306640625,0.4259464740753174,-0.06299904733896255,0.41832438111305237
1772650010266474800,7.343474853515625,0.4340096116065979,0.13573262095451355,0.4618564248085022
1772650010276519400,7.35351953125,0.44365742802619934,0.3310736119747162,0.5023967027664185
1772650010286563600,7.3635634765625,0.4733082056045532,0.4249040484428406,0.5050020813941956
1772650010296607500,7.373607421875,0.48102977871894836,0.3780137598514557,0.47956061363220215
1772650010306652700,7.383652587890625,0.4745200574398041,0.2987196147441864,0.4330725371837616
1772650010316696600,7.393696533203125,0.472211092710495,0.2533921003341675,0.38713833689689636
1772650010326740500,7.403740478515625,0.46430402994155884,0.18947531282901764,0.3438394069671631
1772650010336785700,7.41378564453125,0.4330047070980072,0.08133500069379807,0.287958025932312
1772650010346829600,7.42382958984375,0.3695716857910156,-0.023617494851350784,0.2245202660560608
1772650010356874800,7.433874755859375,0.2936899662017822,-0.08651123940944672,0.15354250371456146
1772650010366918700,7.443918701171875,0.22162312269210815,-0.08670791983604431,0.08173564821481705
1772650010376962600,7.453962646484375,0.1564939171075821,-0.0484129972755909,0.017648009583353996
1772650010387007700,7.4640078125,0.09094158560037613,-0.010503880679607391,-0.03158097714185715
1772650010397051600,7.4740517578125,0.03582000732421875,0.0188598670065403,-0.056598979979753494
1772650010407095600,7.484095458984375,-0.0043252501636743546,0.06792989373207092,-0.039423923939466476
1772650010417140700,7.494140625,-0.006952990777790546,0.1412845253944397,0.02427249774336815
1772650010427184600,7.5041845703125,0.020325880497694016,0.2138151377439499,0.11062133312225342
1772650010437228800,7.514228759765625,0.08548970520496368,0.2849247455596924,0.21020464599132538
1772650010447273500,7.5242734375,0.16662389039993286,0.36284139752388,0.30748721957206726
1772650010457317600,7.534317626953125,0.24970680475234985,0.4052615463733673,0.37694647908210754
1772650010467362600,7.544362548828125,0.3422442078590393,0.38628607988357544,0.4316711127758026
1772650010477406500,7.554406494140625,0.41108959913253784,0.33937424421310425,0.45115718245506287
1772650010487450600,7.56445068359375,0.4450838267803192,0.2657976746559143,0.4442358911037445
1772650010497495600,7.57449560546875,0.4542730748653412,0.1945842206478119,0.4073479175567627
1772650010507539500,7.58453955078125,0.4620220959186554,0.10976660251617432,0.3397587239742279
1772650010517583600,7.59458349609375,0.47391897439956665,0.009710302576422691,0.24688975512981415
1772650010527628500,7.604628662109375,0.4906885027885437,-0.05841691046953201,0.14918947219848633
1772650010537672400,7.61467236328125,0.508453369140625,-0.09592300653457642,0.05401181802153587
1772650010547716600,7.624716552734375,0.5219662189483643,-0.11561223864555359,-0.0322301909327507
1772650010557761800,7.63476171875,0.5354495048522949,-0.11891189962625504,-0.10987038910388947
1772650010567805400,7.644805419921875,0.5373380184173584,-0.0966634452342987,-0.18727248907089233
1772650010577849600,7.654849609375,0.5325357913970947,-0.06919614225625992,-0.2597101926803589
1772650010587894800,7.664894775390625,0.5250362157821655,-0.0484684519469738,-0.31630250811576843
1772650010597938400,7.6749384765625,0.519989013671875,-0.017395753413438797,-0.3510538339614868
1772650010607983600,7.684983642578125,0.5168015956878662,0.030155614018440247,-0.3649420738220215
1772650010618027800,7.69502783203125,0.5199363231658936,0.06211860477924347,-0.36378413438796997
1772650010628071400,7.705071533203125,0.5253571271896362,0.07299215346574783,-0.346798300743103
1772650010638116600,7.71511669921875,0.5447809100151062,0.07751154154539108,-0.3102496266365051
1772650010648160800,7.725160888671875,0.5597926378250122,0.08447008579969406,-0.26958081126213074
1772650010658204700,7.73520458984375,0.5654435753822327,0.0902094617486,-0.2230284959077835
1772650010668249600,7.74524951171875,0.5744325518608093,0.10133511573076248,-0.18243198096752167
1772650010678293800,7.755293701171875,0.5770605206489563,0.10769074410200119,-0.16108781099319458
1772650010688337700,7.765337646484375,0.5726906657218933,0.09913436323404312,-0.1548956334590912
1772650010698382600,7.775382568359375,0.5732837319374084,0.07104706764221191,-0.166438028216362
1772650010708426800,7.7854267578125,0.5664174556732178,0.018424799665808678,-0.18634942173957825
1772650010718471400,7.795471435546875,0.544579803943634,-0.04829297959804535,-0.20913942158222198
1772650010728515600,7.805515625,0.5224820971488953,-0.10796119272708893,-0.22567960619926453
1772650010738559700,7.815559814453125,0.4936530888080597,-0.17067250609397888,-0.2281038761138916
1772650010748604400,7.8256044921875,0.46524909138679504,-0.2166137993335724,-0.22574737668037415
1772650010758648600,7.835648681640625,0.4357588291168213,-0.24351678788661957,-0.21403293311595917
1772650010768692500,7.8456923828125,0.4009208083152771,-0.26687249541282654,-0.19550976157188416
1772650010778737700,7.855737548828125,0.37013545632362366,-0.26805493235588074,-0.16275182366371155
1772650010788781600,7.865781494140625,0.3329452872276306,-0.2612144649028778,-0.11641135066747665
1772650010798825500,7.875825439453125,0.27770811319351196,-0.2604919373989105,-0.06628426909446716
1772650010808870700,7.88587060546875,0.2144273817539215,-0.2556723356246948,-0.022498127073049545
1772650010818914600,7.89591455078125,0.14630398154258728,-0.2236134558916092,0.009620927274227142
1772650010828959700,7.905959716796875,0.08066757768392563,-0.19993363320827484,0.018281787633895874
1772650010839003600,7.916003662109375,0.025929495692253113,-0.1918804943561554,0.023685075342655182
1772650010849047600,7.926047607421875,-0.030349597334861755,-0.20247799158096313,0.02792488783597946
1772650010859092700,7.9360927734375,-0.07683213800191879,-0.21174126863479614,0.04475366696715355
1772650010869136600,7.94613671875,-0.11102721095085144,-0.21147416532039642,0.07215437293052673
1772650010879180500,7.9561806640625,-0.12847810983657837,-0.21019186079502106,0.10372455418109894
1772650010889225700,7.966225830078125,-0.13482776284217834,-0.1897866427898407,0.13937655091285706
1772650010899269600,7.97626953125,-0.1327718049287796,-0.12989561259746552,0.17586824297904968
1772650010909313800,7.986313720703125,-0.11402793228626251,-0.03800084441900253,0.21921785175800323
1772650010919358500,7.9963583984375,-0.09026560932397842,0.04631217196583748,0.2545076608657837
1772650010929402600,8.006402587890625,-0.05102730542421341,0.08277205377817154,0.28641477227211
1772650010939446800,8.01644677734375,-0.0002035391516983509,0.07897865027189255,0.31961026787757874
1772650010949491500,8.026491455078125,0.05705702304840088,0.037742894142866135,0.33607596158981323
1772650010959535600,8.03653564453125,0.09312794357538223,-0.034407466650009155,0.31583085656166077
1772650010969580500,8.04658056640625,0.11773831397294998,-0.0894804522395134,0.25452721118927
1772650010979624400,8.05662451171875,0.15142783522605896,-0.0973125472664833,0.17921940982341766
1772650010989668600,8.066668701171874,0.1918942779302597,-0.11406126618385315,0.11099757999181747
1772650010999713500,8.076713623046874,0.22405514121055603,-0.1457291841506958,0.059720005840063095
1772650011009758700,8.0867587890625,0.22407682240009308,-0.17825813591480255,0.033301807940006256
1772650011019803000,8.096802978515624,0.1933777630329132,-0.17475688457489014,0.021872321143746376
1772650011029847600,8.10684765625,0.14801566302776337,-0.13274426758289337,0.004166271537542343
1772650011039891700,8.1168916015625,0.10268308222293854,-0.06264693289995193,-0.013639090582728386
1772650011049935600,8.126935546875,0.07763402163982391,0.024827104061841965,-0.022039039060473442
1772650011059980500,8.13698046875,0.09191442281007767,0.14218676090240479,0.009274676442146301
1772650011070024700,8.147024658203126,0.13105635344982147,0.290621817111969,0.0723726823925972
1772650011080070000,8.15706982421875,0.1250338852405548,0.4312953054904938,0.12357807904481888
1772650011090113500,8.167113525390626,0.22377081215381622,0.5130661725997925,0.22023196518421173
1772650011100157700,8.17715771484375,0.35956698656082153,0.606564462184906,0.3554894030094147
1772650011110203000,8.187202880859376,0.47530442476272583,0.655301570892334,0.4773605465888977
1772650011120246500,8.19724658203125,0.5415945053100586,0.6475105285644531,0.5487217903137207
1772650011130290700,8.207290771484375,0.5848771929740906,0.5729734897613525,0.5844331979751587
1772650011140335900,8.2173359375,0.6134718656539917,0.4468379020690918,0.5939587950706482
1772650011150379800,8.2273798828125,0.6409554481506348,0.3334102928638458,0.5911045670509338
1772650011160423700,8.237423583984375,0.6702970862388611,0.24095575511455536,0.5871628522872925
1772650011170468900,8.24746875,0.6933030486106873,0.15636758506298065,0.5726105570793152
1772650011180512800,8.2575126953125,0.7055327892303467,0.07059568166732788,0.5290082097053528
1772650011190556700,8.267556640625,0.7042068243026733,-0.02073705568909645,0.4549996852874756
1772650011200601600,8.2776015625,0.682252824306488,-0.11321532726287842,0.3516155183315277
1772650011210645800,8.287645751953125,0.6566854119300842,-0.1919819563627243,0.23519842326641083
1772650011220690700,8.297690673828125,0.6327688694000244,-0.22451487183570862,0.11678122729063034
1772650011230734600,8.307734619140625,0.6009609699249268,-0.23777015507221222,0.009050467051565647
1772650011240778800,8.31777880859375,0.5747461318969727,-0.20738960802555084,-0.07854436337947845
1772650011250823700,8.32782373046875,0.5592531561851501,-0.1451435536146164,-0.13303479552268982
1772650011260867600,8.33786767578125,0.5499879717826843,-0.041899196803569794,-0.16262172162532806
1772650011270911700,8.347911865234375,0.548370361328125,0.05955280736088753,-0.1762964427471161
1772650011280956700,8.357956787109375,0.5665081143379211,0.14644163846969604,-0.17704986035823822
1772650011291000600,8.36800048828125,0.5930541753768921,0.20849035680294037,-0.18240469694137573
1772650011301045800,8.378045654296875,0.6138548254966736,0.22473323345184326,-0.18734219670295715
1772650011311089700,8.388089599609375,0.630120038986206,0.20283620059490204,-0.18209443986415863
1772650011321133600,8.398133544921874,0.656338095664978,0.17568713426589966,-0.1565224975347519
1772650011331178800,8.4081787109375,0.6896362900733948,0.1516488492488861,-0.12671610713005066
1772650011341222700,8.41822265625,0.7186203002929688,0.12602603435516357,-0.10966042429208755
1772650011351266600,8.4282666015625,0.7371611595153809,0.09729161858558655,-0.12004350125789642
1772650011361311700,8.438311767578124,0.7497584223747253,0.07701191306114197,-0.15189917385578156
1772650011371355600,8.448355712890624,0.7572667002677917,0.07602600753307343,-0.19141222536563873
1772650011381399600,8.458399658203126,0.7699928283691406,0.09045794606208801,-0.21809576451778412
1772650011391444700,8.46844482421875,0.7821188569068909,0.08649884909391403,-0.22409683465957642
1772650011401489000,8.478489013671876,0.7883690595626831,0.06514056026935577,-0.21140341460704803
1772650011411532500,8.488532470703126,0.7881610989570618,0.046140432357788086,-0.1805560439825058
1772650011421577700,8.49857763671875,0.7948306798934937,0.04004179313778877,-0.15466691553592682
1772650011431622000,8.508621826171876,0.802035927772522,0.05189265310764313,-0.12997092306613922
1772650011441666600,8.51866650390625,0.8077444434165955,0.055133186280727386,-0.13012193143367767
1772650011451710700,8.528710693359375,0.8101061582565308,0.04686415567994118,-0.14280623197555542
1772650011461755000,8.5387548828125,0.8173955082893372,0.04862956702709198,-0.15058346092700958
1772650011471799600,8.548799560546875,0.8321605920791626,0.06069652736186981,-0.13612762093544006
1772650011481843700,8.55884375,0.8485110402107239,0.06771822273731232,-0.10278165340423584
1772650011491887900,8.568887939453125,0.8690376281738281,0.05872349813580513,-0.04230429604649544
1772650011501932500,8.5789326171875,0.8887388706207275,0.06312970072031021,0.06873247772455215
1772650011511976700,8.588976806640625,0.8954905867576599,0.09073344618082047,0.21370650827884674
1772650011522020600,8.5990205078125,0.891610860824585,0.11131968349218369,0.38068750500679016
1772650011532065500,8.6090654296875,0.8802934288978577,0.16376331448554993,0.5281105041503906
1772650011542109700,8.619109619140625,0.8759356737136841,0.24303975701332092,0.6397454142570496
1772650011552155000,8.62915478515625,0.8731059432029724,0.30552998185157776,0.6840578317642212
1772650011562198500,8.639198486328125,0.8709213137626648,0.330580472946167,0.674284040927887
1772650011572242700,8.64924267578125,0.8639722466468811,0.3279394209384918,0.6055328845977783
1772650011582288000,8.659287841796875,0.8628299832344055,0.3131287693977356,0.5053762197494507
1772650011592331500,8.66933154296875,0.8679181933403015,0.3110616207122803,0.38643398880958557
1772650011602375700,8.679375732421875,0.892612099647522,0.32769545912742615,0.2640151083469391
1772650011612420900,8.6894208984375,0.9299400448799133,0.3577699661254883,0.1611994355916977
1772650011622464800,8.69946484375,0.9812328219413757,0.3810579776763916,0.08810604363679886
1772650011632508700,8.7095087890625,1.0264039039611816,0.38104018568992615,0.03297114372253418
1772650011642553900,8.719553955078124,1.053627848625183,0.3400946259498596,-0.0037597045302391052
1772650011652597800,8.72959765625,1.0572022199630737,0.28246867656707764,-0.01935950294137001
1772650011662641700,8.7396416015625,1.0424752235412598,0.20188860595226288,-0.023067422211170197
1772650011672686600,8.7496865234375,0.999722957611084,0.08356235176324844,-0.009833363816142082
1772650011682730800,8.759730712890626,0.9339567422866821,-0.019975487142801285,0.024511827155947685
1772650011692775700,8.769775634765624,0.8481313586235046,-0.10948355495929718,0.07613975554704666
1772650011702818600,8.779818603515626,0.7643221616744995,-0.18145015835762024,0.1353554129600525
1772650011712863700,8.78986376953125,0.7059487700462341,-0.21521954238414764,0.19376057386398315
1772650011722908000,8.799907958984376,0.6797899007797241,-0.16707544028759003,0.23229438066482544
1772650011732951600,8.80995166015625,0.6946679353713989,-0.04347146674990654,0.24549250304698944
1772650011742996700,8.819996826171876,0.735445499420166,0.17310398817062378,0.30660566687583923
1772650011753041000,8.830041015625,0.7622352838516235,0.3010113835334778,0.39220303297042847
1772650011763085600,8.84008544921875,0.8294135332107544,0.3416033089160919,0.4430188238620758
1772650011773129700,8.850129638671875,0.9595751166343689,0.35521331429481506,0.4435266852378845
1772650011783174000,8.860173828125,1.0848119258880615,0.35494327545166016,0.42953309416770935
1772650011793218600,8.870218505859375,1.1865389347076416,0.37585487961769104,0.40254342555999756
1772650011803262700,8.8802626953125,1.2568175792694092,0.3910559415817261,0.3291139304637909
1772650011813307000,8.890306884765625,1.3057841062545776,0.4079524278640747,0.20060864090919495
1772650011823351600,8.9003515625,1.339554786682129,0.4584238529205322,0.06764847040176392
1772650011833395700,8.910395751953125,1.3299168348312378,0.5328819751739502,-0.02726086415350437
1772650011843439600,8.920439697265625,1.3036316633224487,0.5732171535491943,-0.05172039940953255
1772650011853484500,8.930484619140625,1.2859731912612915,0.5558316111564636,-0.020566074177622795
