time,seconds_elapsed,z,y,x
1772649302188717600,0.069717529296875,-0.013614683854579925,0.04070643319133669,0.002192760803923011
1772649302198761700,0.07976171875,-0.0023217209458351136,0.04632376161646098,0.02330682397056371
1772649302208805600,0.0898056640625,0.10354746823608875,0.04087356991916895,0.015701792326942084
1772649302218849500,0.099849609375,0.11091010595858096,0.020254414130002257,-0.029673290262557564
1772649302228894700,0.109894775390625,-0.022366730108857154,0.05332808742057532,-0.03747110453192144
1772649302238938600,0.119938720703125,-0.025777415335178373,0.05000438635796308,-0.04556592898648232
1772649302248982800,0.129982666015625,0.0030897827088832855,0.06675071930177509,-0.04066372656077146
1772649302259026400,0.1400263671875,0.027628011637926102,0.028503771559149026,-0.026863785799778998
1772649302269070600,0.150070556640625,-0.01547755511701107,0.03150496266912669,-0.0038723113887012004
1772649302279114500,0.160114501953125,0.0024584990680217743,0.04859338704887777,-0.023050474589318037
1772649302289159400,0.170159423828125,0.0317804551422596,0.040109892070293425,-0.007538798006996512
1772649302299203600,0.18020361328125,0.030726562175154685,0.03801931299921125,0.00012753536980599165
1772649302309247500,0.19024755859375,0.011111176601052283,0.0466688852597028,-0.015398754259757697
1772649302319292200,0.200292236328125,0.012609890726208686,0.05173895506560802,-0.0064370473101735114
1772649302329336000,0.210336181640625,0.0001999064862728119,0.039252544588595624,-0.01491528159175068
1772649302339381000,0.220381103515625,0.010813070437312125,0.034788039460405706,-0.022604557452723384
1772649302349425200,0.230425048828125,0.03415945923328399,0.037824849873036144,-0.018996632621251047
1772649302359469000,0.240468994140625,0.003800561326742172,0.043059279927797615,-0.035909883097186686
1772649302369513000,0.250512939453125,0.016980945417284964,0.026210911381617186,-0.09252422564681619
1772649302379557000,0.26055712890625,0.031520927423238754,0.03476951742302626,-0.12090806062072515
1772649302389602300,0.270602294921875,0.01355564714372158,-0.025814094083756206,-0.1576624317180365
1772649302399646000,0.28064599609375,-0.04244973319470882,0.012273352248221635,-0.16611739472188056
1772649302409690000,0.290690185546875,0.010603227078914642,-0.02475315032135695,-0.16998685656636953
1772649302419734000,0.300734130859375,0.05380290185809135,0.04504617942869663,-0.11700064138602465
1772649302429778200,0.310778076171875,-0.012726795104146003,-0.003738857734762132,-0.048936355267651374
1772649302439822000,0.320822021484375,0.031498131069540976,0.04255593351554125,-0.006999686161614954
1772649302449867000,0.330866943359375,0.007052841120958328,-0.00003280629105865955,0.003655928691662848
1772649302459911200,0.3409111328125,0.028256957191228865,0.0941802857581526,0.032184104039706285
1772649302469955300,0.350955322265625,-0.025082418808341025,0.17283187073394654,0.1289960534757003
1772649302479999000,0.3609990234375,0.02933072390258312,0.03351663128510117,0.14267678830381483
1772649302490043100,0.371043212890625,0.021332710886001586,0.04121127744093537,0.031029454111866653
1772649302500088000,0.381088134765625,-0.005063713130354881,-0.005653020793013275,-0.09043068743366747
1772649302510132000,0.391132080078125,0.014924012887477875,0.05405450199898332,-0.1015306850535795
1772649302520176000,0.401176025390625,0.018766075268387795,0.04875818568915129,-0.058309565627574916
1772649302530220000,0.411219970703125,0.027505846562981603,0.0006046513622626661,-0.05093626038059592
1772649302540264200,0.42126416015625,0.023080431336164473,0.001377571963518858,-0.04128810553681105
1772649302550308000,0.43130810546875,-0.060851651325821876,0.05978120908271521,-0.09305405820719898
1772649302560353000,0.44135302734375,-0.027028292179107665,0.03257383400965482,-0.05824702178537845
1772649302570397200,0.451397216796875,0.002433364626765251,0.05684442497845739,-0.011699315219931304
1772649302580441000,0.461441162109375,0.05765197850167751,0.05272946394030004,0.038541035318374633
1772649302590485000,0.471485107421875,0.016499883902072906,0.06553652120642364,0.08931063389517366
1772649302600529200,0.481529052734375,-0.010277063864469528,0.14951021452043203,0.1918804527381435
1772649302610574000,0.491573974609375,-0.0026788638204336165,0.08862462439239024,0.21475463917879387
1772649302620618000,0.501617919921875,0.09921616103351115,0.06709518535789102,0.1681630569390021
1772649302630662100,0.511662109375,0.010986088916659354,0.057375645778328176,0.06484868507273495
1772649302640706000,0.5217060546875,0.07989128283858299,0.04734506748821586,-0.025219580523017794
1772649302650750200,0.531750244140625,0.16204408086836336,0.023020371711999176,-0.007366144853830337
1772649302660794000,0.541794189453125,0.017961188626289367,0.03910612185522914,-0.014131145476736127
1772649302670839000,0.551839111328125,0.029537060129642485,0.02947093609087169,0.027870149830728767
1772649302680883200,0.56188330078125,0.08901917666792869,0.046791306062974033,0.00959045157348737
1772649302690927000,0.571927001953125,0.030461189237236976,0.042579058662801976,-0.0007054448556154966
1772649302700971000,0.581970947265625,-0.01926759504973888,0.040821218677423894,0.023795045878924427
1772649302711015000,0.592014892578125,0.026341478958725927,0.04574055490102619,0.05024382113702595
1772649302721060000,0.60206005859375,0.06628361324667931,0.04298826051820069,0.014774813675135372
1772649302731104300,0.612104248046875,0.16374854669868946,0.02253810462038964,-0.025776757748052475
1772649302741148000,0.62214794921875,-0.026518589091300962,0.04059950221814215,-0.005689589943736791
1772649302751192000,0.632192138671875,-0.09415069433748721,0.03938515799231827,0.011051518835686147
1772649302761236200,0.642236328125,-0.07270633977055549,0.06604531097877771,-0.007790580810979008
1772649302771281000,0.652281005859375,-0.007795768442749976,0.0520290605859831,-0.017501462160050867
1772649302781325000,0.662324951171875,0.0032546178817749022,0.026970753305591642,-0.01186144697908312
1772649302791369200,0.672369140625,0.03680675887167453,0.03347797977514565,-0.0221510049989447
1772649302801413000,0.6824130859375,0.10408405933082103,0.03646992813274264,-0.005105981369502842
1772649302811457300,0.692457275390625,0.05753858125507831,0.03405928679443895,-0.0024130890237167475
1772649302821501000,0.7025009765625,-0.02706687062382698,0.04914879244193435,-0.016536781846359372
1772649302831546000,0.712546142578125,0.00828968943953514,0.04073606114462018,-0.004702880461327732
1772649302841590300,0.72259033203125,0.033915129083395,0.028023623359389602,-0.013209317924082278
1772649302851634000,0.732634033203125,-0.0031517420291900635,0.04772307048775255,-0.007117832648567855
1772649302861678000,0.742677978515625,0.037630350214242936,0.038579284969530996,0.009761552090384066
1772649302871722000,0.752721923828125,0.0067272624284029,0.041249307896383106,-0.024645561761036515
1772649302881767000,0.762766845703125,-0.027945407024025915,0.04014489031843841,-0.016304251732118427
1772649302891811000,0.77281103515625,-0.01610591614842415,0.03560998683515936,-0.027354491926170885
1772649302901855000,0.78285498046875,0.008155833926796913,0.03722012544553727,-0.011182086412794888
1772649302911899100,0.792899169921875,0.061439680346846576,0.04315411860439926,-0.024135566412284967
1772649302921943300,0.802943359375,-0.0015595044016838073,0.037951910318806764,-0.009316730932332574
1772649302931987000,0.812987060546875,-0.011440846946835517,0.02539250767081976,-0.016039645979180932
1772649302942032100,0.8230322265625,0.049903556331992144,0.019236980715766547,-0.02667235488090664
1772649302952076300,0.833076171875,0.009651625442504882,0.03505783284511417,-0.016159034575149417
1772649302962120000,0.843119873046875,-0.017276713493466378,0.03204747204799205,-0.0013342077458277344
1772649302972164000,0.8531640625,0.04109831858575344,0.03811163092516363,-0.0037428032575175163
1772649302982208000,0.8632080078125,0.037981063348054886,0.04324318512734025,-0.015946012878976762
1772649302992253200,0.873253173828125,0.02737842079102993,0.03801759596616029,-0.003035422173142433
1772649303002297000,0.883297119140625,0.09171382257938385,0.01079527905229479,-0.010657916408218443
1772649303012341000,0.893341064453125,-0.0498924504160881,0.0637060909088701,0.0018001812897622583
1772649303022385200,0.90338525390625,-0.21074936732649802,0.0498472230348736,0.008085654767416416
1772649303032429000,0.913428955078125,0.12940087141692638,-0.002191116836108267,-0.023173808708041903
1772649303042473000,0.923472900390625,0.1800549538552761,0.048819012498296795,-0.013468736045248805
1772649303052518100,0.93351806640625,0.16191840866208076,0.03828139800149947,-0.004989844176545739
1772649303062562000,0.94356201171875,-0.1513853242099285,0.0331063699837774,0.0015737155901268123
1772649303072606200,0.953606201171875,-0.06375380250811577,0.028122188363038002,0.0009182473560795187
1772649303082650000,0.963650146484375,0.05683657046556472,0.0257249179629609,-0.01583886271007359
1772649303092694000,0.973694091796875,0.07587912458777427,0.025728607757389544,-0.01150357345212251
1772649303102739200,0.9837392578125,0.008436404433846472,0.03259816473331302,-0.010384981218352914
1772649303112783000,0.993783203125,-0.029121465066075325,0.050844673107005654,-0.011119506037980318
1772649303122827000,1.003826904296875,0.04733458262681961,0.0340676892966032,-0.009742664726823568
1772649303132871200,1.01387109375,0.048988195052742954,0.03794643042609095,-0.010665478660166263
1772649303142915000,1.0239150390625,0.036440848168730736,0.04250822191629559,-0.006772161016054451
1772649303152959200,1.033959228515625,0.008771919998526573,0.0414788423359394,-0.02606971281263977
1772649303163004200,1.044004150390625,-0.00021510405540466307,0.02491224987320602,-0.019751250380836426
1772649303173048000,1.054048095703125,0.03465104214251041,0.03076630966365337,-0.002953406445495784
1772649303183092200,1.06409228515625,0.033004443979263304,0.03543758941031992,-0.0029162527728825807
1772649303193135900,1.074135986328125,-0.02161269687116146,0.026409356563165783,-0.006427548829466104
1772649303203180000,1.084179931640625,-0.005446574968099594,0.023616584039479492,-0.004027867276594043
1772649303213225200,1.09422509765625,0.05038227975964546,0.03484367863778025,-0.015442155010066926
1772649303223268900,1.104268798828125,0.02540332132577896,0.044763343899324536,-0.016116145281493664
1772649303233313000,1.11431298828125,0.01253565644621849,0.048554699006304144,-0.0028333237297832963
1772649303243357200,1.124357177734375,-0.0010813654959201812,0.027450280450843273,0.0014247721061110496
1772649303253401000,1.134401123046875,0.024216741889715194,0.03773023039214313,-0.006674217066913843
1772649303263446000,1.144446044921875,0.0354576823502779,0.027224545403569934,-0.010902063895016908
1772649303273490200,1.154490234375,0.015129180070757866,0.0465824490852654,-0.01412522719260305
1772649303283534000,1.1645341796875,-0.004619476494193077,0.04074585188627243,-0.017613726895488797
1772649303293578200,1.174578125,0.03117079881131649,0.021829664090089497,-0.004196538374386728
1772649303303622000,1.184621826171875,0.028368600872159002,0.031126338615082204,0.008642850258760154
1772649303313666600,1.19466650390625,0.020796119791269302,0.023866065288521348,-0.004476159033365548
1772649303323711500,1.20471142578125,-0.007317045015096664,0.037074616027623415,-0.013671893934532999
1772649303333755400,1.21475537109375,0.028937340670824048,0.02214852078091353,0.002666771523840725
1772649303343799300,1.22479931640625,0.01310030459165573,0.037467926194146274,-0.008105163185484706
1772649303353843500,1.234843505859375,0.02515139239132404,0.030282215941138564,-0.017198899016901848
1772649303363887600,1.2448876953125,0.03601356266736984,0.023143011710979045,-0.00004738280568271875
1772649303373932300,1.254932373046875,0.020782675787806508,0.029376608870923516,0.0001479936359450221
1772649303383976400,1.2649765625,-0.00012684125006198882,0.03030921354591846,0.0008600874280557036
1772649303394020600,1.2750205078125,0.011885668104887007,0.020949775983020662,-0.012835479643009602
1772649303404064500,1.285064453125,0.04579729005694389,0.024042115975171325,-0.007420140063390136
1772649303414108400,1.2951083984375,0.04581774832308292,0.028712957330420612,-0.0006129077339544892
1772649303424152300,1.30515234375,-0.004726444000005722,0.016018420528061687,-0.0022004691863432525
1772649303434197500,1.315197509765625,-0.00021627309918403624,0.027643026543967424,0.003083718294277787
1772649303444241400,1.325241455078125,0.05875847843885421,0.02080678731575608,-0.009417195632122457
1772649303454285300,1.335285400390625,0.03110533235967159,0.02316452942304313,-0.015299458603747188
1772649303464329500,1.34532958984375,-0.004494973331689835,0.023692973743937907,-0.02106945683993399
1772649303474373600,1.35537353515625,0.004632335975766182,0.019625687772408126,0.006187273800186813
1772649303484418300,1.365418212890625,0.04549392319619655,0.025215872462280093,-0.02012724408637732
1772649303494462500,1.37546240234375,0.02142097369134426,0.02204677743948996,-0.0041994975164532655
1772649303504506400,1.38550634765625,-0.008646832314133643,0.007864267101697624,0.0017433000033721326
1772649303514550500,1.395550537109375,0.007969371443986892,0.013718509555235504,-0.005207870841398835
1772649303524594400,1.405594482421875,0.04031622829735279,0.00878277018610388,-0.011701141850836575
1772649303534638300,1.415638427734375,0.015339607951045036,0.023004954947158693,0.0028301819246262312
1772649303544683500,1.42568359375,0.008475567400455474,0.02588460203669965,0.0004085077356547117
1772649303554727700,1.435727783203125,0.018211363995075225,0.027504640986584124,-0.0030190555602312087
1772649303564771300,1.445771240234375,0.0315536606490612,0.0025410627849400042,-0.008299370583333075
1772649303574815500,1.4558154296875,0.029929274317622184,0.010309650959819555,-0.02045296890940517
1772649303584859400,1.465859375,0.02261047573685646,0.012906316389515995,0.001860240913927555
1772649303594904300,1.475904296875,0.0377408248513937,0.022623517881520092,-0.0027096608174964785
1772649303604948500,1.485948486328125,0.026995558953285214,0.015361819782853125,-0.005410590339265764
1772649303614992400,1.495992431640625,0.008474982878565789,0.020275237722322342,-0.009704816934466362
1772649303625036500,1.50603662109375,0.019000468546152113,0.015572905250266193,0.00596292699240148
1772649303635080400,1.51608056640625,0.019339491242170333,0.016242000150866805,-0.0022302067374810573
1772649303645124400,1.526124267578125,0.016205869391560553,0.017531747700460253,0.007227357437647879
1772649303655169500,1.53616943359375,0.033307226318120955,0.009828662509843707,-0.005726597485877573
1772649303665213700,1.546213623046875,0.02480067925751209,0.022367753022164105,-0.02489080522637814
1772649303675257300,1.55625732421875,0.026035774010419843,0.01836030747909099,-0.00953683995641768
1772649303685301500,1.566301513671875,0.006440262180566788,0.013139394493028521,-0.014771708402596413
1772649303695345400,1.576345458984375,0.010958031865954398,0.01568400094192475,0.012531418662518262
1772649303705390300,1.586390380859375,0.0196545485407114,0.01799172989502549,0.004102576480619609
1772649303715434500,1.5964345703125,0.011446692165732382,0.021951646501943468,-0.015094145289994775
1772649303725478400,1.606478515625,0.014153613036870955,0.012309665670618414,-0.007590235933288931
1772649303735522600,1.6165224609375,0.04200666560232639,0.020989085080102086,-0.00501786469463259
1772649303745566500,1.62656640625,0.030076573833823204,0.01896126904692501,-0.019824680943228302
1772649303755610400,1.6366103515625,0.020230887123942373,0.01849485711157322,0.0019534356227144598
1772649303765655600,1.646655517578125,0.011730185282230377,0.022523893431946634,0.007008563587814569
1772649303775699500,1.656699462890625,0.007400631645321846,0.013868220224231481,-0.0006641264645382761
1772649303785743400,1.666743408203125,0.03390811482071876,-0.005468458006344735,0.0006316489670425653
1772649303795787500,1.67678759765625,0.021224574336409566,0.019405651813559233,-0.009592077274993062
1772649303805831400,1.68683154296875,0.0260246680945158,0.016422800077870486,-0.012128427352197468
1772649303815876600,1.696876708984375,0.015423194581270217,0.003111154290474951,-0.0026605244461447
1772649303825920500,1.70692041015625,0.026520927178859708,-0.008400456337630749,-0.02284399223178625
1772649303835964400,1.71696435546875,0.051530865272879596,0.015683708680979905,-0.001488813785649836
1772649303846008600,1.727008544921875,0.009355272844433785,0.0031434125922620293,0.001108509231172502
1772649303856052500,1.737052490234375,-0.0058913961261510845,0.011653503316827117,-0.005910173891857266
1772649303866096400,1.747096435546875,0.029114450803399083,0.018593385582603515,-0.0014589301040396094
1772649303876141600,1.7571416015625,0.02885492308437824,0.0009244579011574387,-0.00009724982939660549
1772649303886185500,1.767185546875,0.021398177337646485,0.012957900446280837,-0.018608802347443998
1772649303896229600,1.777229736328125,0.02454582771360874,0.01879873542897403,-0.01125116959363222
1772649303906273300,1.787273193359375,0.02633797182738781,0.012727452691271901,0.00592383709102869
1772649303916317400,1.7973173828125,0.03577741582393646,0.003980557536147534,-0.007784187602810562
1772649303926362600,1.807362548828125,0.039375732576847074,-0.0018650632195174692,-0.001968815854936838
1772649303936406300,1.81740625,0.030262451794743538,0.005375044101849198,-0.00022810966745018957
1772649303946450400,1.827450439453125,0.016967501413822174,0.013885500152595341,0.0012762304808944464
1772649303956494600,1.83749462890625,0.018005612289905548,0.0031130539866164324,0.003971314783766866
1772649303966538500,1.84753857421875,0.0313403101593256,-0.0022167992666363716,-0.02002374717928469
1772649303976582400,1.85758251953125,0.01191430967748165,0.0024010332597419618,-0.01151979393456131
1772649303986627600,1.867627685546875,0.01970072576999664,0.00025766455549746753,-0.012686755354702471
1772649303996671500,1.87767138671875,0.02463701312839985,0.00935983942169696,-0.007019998297281563
1772649304006715600,1.887715576171875,0.02314414422214031,0.013997728355415165,-0.022041005285829304
1772649304016759300,1.89775927734375,0.015959201154112816,0.005642097540199756,-0.01099153227675706
1772649304026803500,1.907803466796875,0.014916998624801635,0.02039605109039694,-0.019006021504104135
1772649304036848600,1.9178486328125,0.015364157870411873,-0.005662153947539627,-0.016405008692853152
1772649304046892300,1.927892333984375,0.021647183662652968,0.0025668548133224245,-0.002250518873147666
1772649304056936400,1.9379365234375,0.011926000115275382,0.01863576341960579,0.008926343375258147
1772649304066980400,1.94798046875,0.02360299390554428,0.01196439589690417,-0.004739632275141775
1772649304077024500,1.9580244140625,0.0038519992530345916,0.0008896423161029815,-0.004119418017566204
1772649304087068700,1.968068603515625,0.009707155022025108,0.006503719338215887,0.003932444078102708
1772649304097113300,1.97811328125,0.027817396730184553,0.0036735739462077617,-0.0023505086489021775
1772649304107157500,1.988157470703125,0.0179641112357378,0.0002726794615387916,-0.0005410115415230393
1772649304117201700,1.99820166015625,0.013033084574341772,-0.0010689444057643412,-0.004657360819168389
1772649304127245300,2.008245361328125,0.01587970617711544,0.004823291970603168,0.004149119036085903
1772649304137289500,2.01828955078125,0.008398995032906531,0.0068058075573295355,-0.009445289215445518
1772649304147334700,2.028334716796875,0.02053133137524128,-0.0015048516049981117,-0.004799107377417385
1772649304157378600,2.038378662109375,0.02426175007522106,-0.0023809768524020907,0.005759148048609494
1772649304167422500,2.04842236328125,0.03547814061641693,0.00718881552554667,-0.0017009952316060662
1772649304177466400,2.05846630859375,0.024105682730674743,0.00905212517939508,0.004976107912138104
1772649304187510500,2.068510498046875,0.019610709398984908,0.006636953796446323,0.0015536591827869414
1772649304197554400,2.078554443359375,0.02005728412270546,-0.004684321891330182,-0.0027172961346805095
1772649304207599400,2.088599365234375,0.013616437420248985,0.008689173618517815,-0.010170717413164675
1772649304217643500,2.0986435546875,0.025437808117270467,0.009752820794656872,-0.001682692389935255
1772649304227687400,2.1086875,0.02483867318034172,0.002046849527209997,0.0045392508648335935
1772649304237731600,2.118731689453125,0.009711246675252914,0.013923384477570652,0.011002418996952474
1772649304247775500,2.128775390625,0.0346995574593544,0.004236979982629418,-0.0060377457942813635
1772649304257820400,2.1388203125,0.03350537923872471,0.0037090105857700106,-0.008169716321676969
1772649304267864600,2.148864501953125,0.012563713496923446,0.009162344088219105,0.0012175590962171553
1772649304277908500,2.158908447265625,0.022727964636683463,0.009394545408897101,-0.0022205621263012287
1772649304287952400,2.168952392578125,0.006121697750687599,0.00013933540545403957,0.011091741248220205
1772649304297996500,2.17899658203125,0.017635609933733937,0.011898600651696324,0.00759717713072896
1772649304308040400,2.18904052734375,0.022568974682688713,0.01109272762890905,0.0032589287307113407
1772649304318084400,2.19908447265625,0.017033552387356758,0.00882416164241731,0.007141542317718267
1772649304328128500,2.20912841796875,0.02151683528125286,0.011021854349784553,-0.004702076743729413
1772649304338172400,2.21917236328125,0.014783143112063407,0.002746303033456206,-0.012994067738205193
1772649304348216600,2.229216552734375,0.019421908828616143,0.00042385143525898455,0.004240633244439959
1772649304358260500,2.239260498046875,0.022563129463791846,0.005537248926237226,0.0005097761530429124
1772649304368305400,2.249305419921875,0.01627133584320545,-0.0010002630837261676,0.0031911607241258025
1772649304378349600,2.259349609375,0.008192658805847167,0.0035587884601205586,-0.0013510127501562238
1772649304388393500,2.2693935546875,0.027796938464045524,-0.0022602000169456003,0.0000636763533577323
1772649304398437400,2.279437255859375,0.026451369073987006,0.012582162469066679,0.009571144084818661
1772649304408481300,2.289481201171875,0.01972352212369442,0.0037886151606217025,-0.008509542735293507
1772649304418525400,2.299525390625,0.025114567512273787,-0.004173011368326843,0.011018968272954226
1772649304428570600,2.309570556640625,0.044270518881082535,-0.003441920614801347,0.007618658310174942
1772649304438614300,2.3196142578125,0.03200140441656112,0.0007098653024062514,0.006102298930473625
1772649304448658400,2.329658447265625,0.010600304469466209,0.0001647986402735114,-0.0045282180141657585
1772649304458702600,2.33970263671875,0.016882161217927932,0.01277626026906073,-0.006509381894022226
1772649304468746500,2.34974658203125,0.011343816313147544,-0.004800568682141602,-0.005535422295331955
1772649304478791400,2.35979150390625,0.014482114338874816,-0.0019155147651210426,-0.003366371160559356
1772649304488835600,2.369835693359375,0.020020459243655205,-0.0057717518018558615,-0.0070019511839374896
1772649304498879500,2.37987939453125,0.021514497193694113,-0.004015336588583886,-0.0018857406813651322
1772649304508923600,2.389923583984375,0.011930091768503188,0.010978855458274484,0.006158851423300802
1772649304518967300,2.39996728515625,0.015056699356436729,0.004966061442159116,0.0018039806820452212
1772649304529011500,2.410011474609375,0.018351064726710317,0.013606464015506208,0.0025820158498361706
1772649304539056600,2.420056640625,0.0008440496087074279,0.014646109261550008,0.0015298033831641078
1772649304549100300,2.430100341796875,0.0054845688909292215,0.011211641300842165,0.0068410980664193625
1772649304559144400,2.44014453125,0.024344752183556556,0.004694112632982432,0.0067394643228501075
1772649304569188400,2.450188232421875,0.028982933378219604,0.0006051262862980365,0.002544241122715175
1772649304579232500,2.460232421875,0.01969721863865852,0.0029680194927379487,0.008298457267880439
1772649304589277400,2.47027734375,0.011617372557520865,0.0053082259433344,-0.003741378485411405
1772649304599321300,2.4803212890625,0.012663082218170165,-0.0038406376088038086,0.0026147856082767247
1772649304609365500,2.490365478515625,0.0024871406406164168,-0.005467836951836944,0.0066657414995133875
1772649304619409700,2.50040966796875,0.025684476354718207,0.0035102000780403613,-0.020310710894502697
1772649304629453300,2.510453369140625,0.016707389172911643,0.01251169104874134,0.008785108273662627
1772649304639497500,2.52049755859375,0.0023415946900844573,0.015108648739382623,0.009224193810671567
1772649304649542700,2.530542724609375,0.03631459144055843,0.0110620036970824,-0.0014636793443933128
1772649304659586300,2.54058642578125,0.02913081741631031,0.031916100753284986,0.014368717092275619
1772649304669630500,2.55063037109375,0.018955460360646246,0.0031506460506469007,0.01879891809206456
1772649304679674400,2.56067431640625,0.028674890342354774,0.0027711086811497807,0.012542634176276624
1772649304689718500,2.570718505859375,0.02643207985162735,0.001995886524952948,-0.016307283939421175
1772649304699762700,2.5807626953125,0.015963877329230308,0.0199994895208627,0.013284538584761321
1772649304709807400,2.590807373046875,0.027778233763575553,0.011113405090756714,-0.001018675523251295
1772649304719851500,2.6008515625,0.031073768177628514,0.016973748491518198,0.0010063640309497714
1772649304729895400,2.6108955078125,0.010282324561476706,-0.00560918165128678,-0.0005989157412201165
1772649304739939300,2.620939208984375,0.016880992174148558,0.0017777867948636412,-0.001338080203346908
1772649304749983500,2.6309833984375,0.01912964788377285,0.011174524160847066,-0.012549063917063176
1772649304760028400,2.6410283203125,0.024665070179104805,0.0013512684784829617,0.0050770475359633565
1772649304770072600,2.651072509765625,0.030645898154377935,0.005308189410716295,-0.0035719767352566122
1772649304780116500,2.661116455078125,0.0201730194568634,0.005663286458700895,0.0017277736406773327
1772649304790160400,2.671160400390625,0.020322657060623167,0.005415924101509153,-0.005820668977499008
1772649304800204500,2.68120458984375,0.011949965512752533,0.004557005717232823,-0.0008397752923890948
1772649304810248400,2.69124853515625,0.014350596913695335,-0.007337174487672746,-0.005083733005076647
1772649304820293400,2.70129345703125,0.014507833302021026,0.007541647551208734,-0.012600319180265069
1772649304830337500,2.711337646484375,0.01064297456741333,0.0025705446077510714,0.004374196496233344
1772649304840381400,2.72138134765625,0.02741933732330799,-0.0008463876962661743,0.010401932353153825
1772649304850425600,2.731425537109375,0.027735563665628432,0.010502141324616968,0.002818454954214394
1772649304860469500,2.741469482421875,0.02353109771311283,0.013591924033500253,-0.007296586748957634
1772649304870514400,2.751514404296875,0.019931027394533157,-0.002738448520563543,-0.011252338637411593
1772649304880558600,2.76155859375,0.03654080141186714,-0.0076672101596370335,0.009261493613757192
1772649304890602200,2.771602294921875,0.02620411631464958,-0.0007878989746794104,0.011510916508361696
1772649304900646400,2.781646484375,-0.004768529576063156,-0.009138853614777327,0.005337123244255781
1772649304910690600,2.791690673828125,0.023212533283233642,-0.0098954441357404,-0.008770568291656672
1772649304920734500,2.801734375,0.04191606470942497,-0.004330065093562006,0.0031242329677566884
1772649304930779400,2.811779296875,0.02681143455803394,0.006853373026102781,0.01015833285562694
1772649304940823600,2.821823486328125,-0.015683306822180748,-0.0013309928754344582,0.006846943285316228
1772649304950867500,2.831867431640625,0.02081657805740833,-0.0012472966473549604,-0.0006447276443243027
1772649304960911600,2.84191162109375,0.04654547807574272,-0.00013454963248223065,-0.009351948376186192
1772649304970955300,2.851955322265625,0.017518705555796623,0.000643960459344089,0.002075856425985694
1772649304981000400,2.86200048828125,0.0025438392639160153,0.00020830898843705653,0.004679316922649741
1772649304991044600,2.872044677734375,0.021242694514989852,0.018771883954666554,-0.00708809509743005
1772649305001088300,2.882088134765625,0.04429156166911125,0.010891286772675812,0.004271576371975243
1772649305011132400,2.89213232421875,0.012721534407138824,0.0024071342069655654,0.012162914143688976
1772649305021176600,2.902176513671875,-0.001650105294585228,0.005083842602930963,-0.0007133724337443709
1772649305031220500,2.912220458984375,0.028422961407899856,0.013318331256508827,-0.0028531244087964293
1772649305041265400,2.922265380859375,0.04129997863769531,0.01745597905050963,-0.00940824514068663
1772649305051309600,2.9323095703125,0.001945288848876953,-0.005030651110969483,0.0005476970106363296
1772649305061353500,2.942353515625,0.025721885755658147,-0.0006430106112733483,0.007102233220636844
1772649305071397600,2.952397705078125,0.022730887246131894,0.010062544330954552,-0.006128565882891416
1772649305081441300,2.962441162109375,0.016751812836527824,0.004390891902707517,-0.009554777471907437
1772649305091485400,2.9724853515625,0.012114216163754462,0.009343107482604682,-0.0029302812982350585
1772649305101530600,2.982530517578125,0.022587094861268996,0.008638283681496977,-0.009951448639295995
1772649305111574500,2.992574462890625,0.019298574709892272,0.0008931129148229956,0.0037698739275336263
1772649305121618400,3.002618408203125,0.021262568259239195,0.004938333185017109,0.0009053513418883084
1772649305131662300,3.012662353515625,0.03068739920854568,0.0053324105365201825,0.009506517883390188
1772649305141706500,3.02270654296875,0.013474398601055145,-0.0009610635844990611,0.006875877118855714
1772649305151751400,3.03275146484375,0.018708207601308823,0.004458915637619793,0.0008340396713465452
1772649305161795300,3.04279541015625,0.035167759492993354,0.002694901639781892,-0.015006101680360734
1772649305171839500,3.052839599609375,0.023650340178608894,0.011807342171669006,-0.003508409979753196
1772649305181883600,3.062883544921875,0.007939560827612876,-0.0021401903664693234,0.01294186262693256
1772649305191927600,3.072927490234375,0.024837504136562345,0.00424509022384882,-0.00834112736582756
1772649305201971500,3.082971435546875,0.03112929775714874,0.011109167307056486,-0.004635989237576723
1772649305212016600,3.0930166015625,0.025140286475419996,-0.0013901757167652249,0.006424553154781461
1772649305222060500,3.103060546875,0.017801029628515243,0.01788162058405578,-0.002596628897078335
1772649305232104400,3.1131044921875,0.01914309188723564,0.016018420528061687,0.022381708482280372
1772649305242148400,3.1231484375,0.005818915411829948,0.01758552371431142,0.016974004219844935
1772649305252192500,3.133192626953125,0.021986790880560873,-0.007925057378225029,0.0004693345448002219
1772649305262237400,3.143237548828125,0.032762451916933055,-0.005036459797248244,0.0005133198169991373
1772649305272281300,3.15328125,0.018103227445483205,0.008040719647146762,0.003977123470045626
1772649305282325500,3.163325439453125,0.014961422288417816,-0.005946377716399729,0.01303556879237294
1772649305292369400,3.173369384765625,0.024376316365599632,0.00821501676812768,-0.004055632066354156
1772649305302413600,3.18341357421875,0.01525660584270954,0.0006077931674197315,0.017413674278743563
1772649305312457500,3.19345751953125,0.0055383449047803875,0.017388576370105147,0.0037919761614874
1772649305322503200,3.203503173828125,0.030685061120986935,0.003382335914671421,-0.004701053830422461
1772649305332547000,3.213547119140625,0.03352525298297405,-0.004621193527244031,-0.013817074558883905
1772649305342591000,3.223591064453125,0.008683072671294211,0.005926759700477123,0.0010458557911217211
1772649305352635000,3.233634765625,0.006887421426177025,0.0001026566568762064,-0.0037348391467705365
1772649305362679000,3.243678955078125,0.016458382847905156,-0.012298304026387631,-0.008822846468165516
1772649305372724000,3.253723876953125,0.033515900632739064,0.004858765142783522,0.005273045032098889
1772649305382767900,3.263767822265625,0.025725977408885953,0.006495243770815432,0.0008834683036431669
1772649305392812000,3.27381201171875,0.006868132203817367,0.00020074673648923634,-0.00028557547573000193
1772649305402856200,3.283856201171875,0.03470774076581001,-0.005368249034881592,0.006982187037542462
1772649305412900000,3.293900146484375,0.012712182056903838,-0.0030949703406542538,-0.011332308538444339
1772649305422944000,3.303944091796875,0.0257283154964447,0.0033924554498866197,0.014860153871029614
1772649305432989200,3.3139892578125,0.028427053061127663,0.012170403330400585,0.01508607158139348
1772649305443033000,3.324033203125,0.03082651541829109,-0.005065941620059311,0.0036855566449463363
1772649305453077000,3.334076904296875,-0.0017874679386615752,0.0007566270535811782,-0.0008337108777835964
1772649305463121000,3.344120849609375,0.013030746486783026,-0.0038404914783313868,-0.008257723398692905
1772649305473165000,3.3541650390625,0.03922609497308731,0.007536386854201555,-0.017709223159216345
1772649305483209000,3.364208984375,0.015433715975284576,0.004485803644545376,0.00930346959196031
1772649305493254000,3.37425390625,0.00824701934158802,0.003265175808407366,0.00875347102638334
1772649305503298000,3.384298095703125,0.03412906409502029,0.00431610963344574,0.0008129968833178281
1772649305513342000,3.394342041015625,0.03682663261592388,0.000522526036761701,-0.007731105708703398
1772649305523386000,3.40438623046875,0.01676934849321842,0.006298661752790213,0.00030665479637682436
1772649305533430000,3.414429931640625,0.009878419935703276,0.012104535019956529,-0.0003579831248149276
1772649305543475000,3.424474853515625,0.010920622465014457,0.015254048559442162,-0.0008032061416655778
1772649305553519000,3.43451904296875,0.014226093751192092,0.005523877988010645,0.0049138197982683774
1772649305563563000,3.44456298828125,0.01063596030473709,-0.007419774737209082,0.0049983562765643
1772649305573607000,3.45460693359375,0.02290624381303787,0.0015902283335104584,0.0021938933150842783
1772649305583651000,3.464651123046875,0.015872107392549514,0.0029438348995521665,0.018186448749527333
1772649305593695000,3.474695068359375,0.02679623698890209,0.00803929487504065,-0.0025963366361334917
1772649305603740000,3.484739990234375,0.015126841983199118,0.0038126536233350633,-0.007652012590505183
1772649305613784000,3.4947841796875,0.011991466566920279,0.0023551117587834597,0.0052586877131834625
1772649305623828000,3.504827880859375,0.0250181214004755,-0.0065341875417158,-0.00789016872793436
1772649305633872100,3.5148720703125,0.010507950010895729,0.0014049714270979166,-0.009086429307796061
1772649305643915800,3.524915771484375,0.019340660285949707,0.007962393713928758,-0.005712349764816463
1772649305653960000,3.5349599609375,0.031013562422990797,-0.002845964015647769,0.011331322157755494
1772649305664005000,3.545005126953125,0.04178980798125267,-0.005439706835895776,0.0015366349827498197
1772649305674049000,3.555049072265625,0.017261515924334524,0.007338306998834014,-0.003365567442961037
1772649305684093000,3.565093017578125,0.00993453403711319,-0.00018781418967992066,-0.01060260602440685
1772649305694137000,3.57513720703125,0.020706687942147254,-0.002868066249601543,-0.010344356947019696
1772649305704181000,3.585180908203125,0.0245955120742321,0.008427453942410647,-0.0023642814459279176
1772649305714226000,3.595225830078125,0.026385318100452422,0.004532711526192725,-0.00860251824837178
1772649305724270000,3.60527001953125,0.023695932886004446,0.00043433629665523766,-0.0021318243969231845
1772649305734314000,3.61531396484375,0.03178630036115646,0.004719429737329483,0.0040124139791354535
1772649305744358100,3.625358154296875,0.026705051574110985,-0.0040795609312132,0.009254808144643903
1772649305754402000,3.635402099609375,0.013090367719531058,-0.005714249460957944,-0.008373495265468954
1772649305764446000,3.645446044921875,0.029099837756156918,-0.000059730830602347846,-0.010802329847589134
1772649305774491100,3.6554912109375,0.010243746116757392,-0.007850530837289989,0.0008764540409669279
1772649305784535000,3.66553515625,0.03164133893251419,-0.0074621160415932536,0.003911291692219675
1772649305794579000,3.675578857421875,0.032684710505604744,0.0008179653193801641,0.012692637106217442
1772649305804623000,3.685623046875,0.024159458744525908,0.011152494992129504,0.001457286136224866
1772649305814667000,3.6956669921875,0.008447510349750519,0.013489815365895629,-0.003859598037600517
1772649305824712000,3.7057119140625,0.01562485463321209,-0.002696764803305268,0.005066526141948998
1772649305834755800,3.715755859375,0.03088964378237724,0.0024679244834929703,0.012032346566580235
1772649305844800000,3.725800048828125,0.012337503525614737,0.0046376697380095715,0.0002031578892841935
1772649305854844200,3.73584423828125,0.006344400590658187,0.002919504175893962,-0.0018001082245260476
1772649305864888000,3.74588818359375,0.022056933507323264,0.0015956716936081647,0.005443908086977899
1772649305874932000,3.755931884765625,0.037325229787826535,0.0008786459980532526,0.009014167789183557
1772649305884977200,3.76597705078125,0.028058804270625112,0.007097812773846089,-0.002334178568609059
1772649305895021000,3.77602099609375,-0.0005178863942623138,-0.0011715645300224423,-0.011989457272924482
1772649305905065000,3.78606494140625,0.03434767528176307,0.0018183745335787534,-0.00585146597456187
1772649305915108900,3.79610888671875,0.023118425258994102,-0.01044646561462432,-0.003658157181367278
1772649305925153000,3.806153076171875,0.0063590136379003525,-0.007175663783028721,0.005141491074301302
1772649305935197200,3.816197265625,0.033602994394302366,0.002056165344826877,-0.005913936751522124
1772649305945241900,3.826241943359375,0.023724574458599088,-0.0033349165763705965,0.006134593764878809
1772649305955286000,3.8362861328125,0.03629588674008846,-0.0056462622586637735,0.0003955386562272906
1772649305965330200,3.846330078125,0.034651626664400095,-0.012876834566704928,-0.019818360800296066
1772649305975374000,3.8563740234375,0.016243278792500496,-0.0006520707005634904,-0.018699110979400572
1772649305985418000,3.86641796875,0.024624153646826744,-0.0003264920080080628,0.0012745865130797027
1772649305995463000,3.876462890625,0.0331529125392437,0.003712663847580552,0.004846672846190631
1772649306005507000,3.886507080078125,0.01549275268614292,0.013633936544321476,-0.005361161706969142
1772649306015551000,3.896551025390625,0.013835633128881454,0.011549604550935327,-0.001113733395561576
1772649306025595000,3.906594970703125,0.022061609682440756,0.007135441370494663,-0.018496391481533647
1772649306035639000,3.91663916015625,0.028788872110843657,0.010110950049944221,-0.007573321331106126
1772649306045683000,3.926682861328125,0.021163784059882163,0.004542611865699291,-0.0159577398493886
1772649306055727900,3.936727783203125,0.008747370079159737,0.003413425172679126,-0.004887589378468692
1772649306065772000,3.94677197265625,0.03942483241558075,0.0075820891594514245,-0.0020353782851248977
1772649306075816000,3.95681591796875,0.03194879744648933,-0.004581519103981554,-0.0034135347705334424
1772649306085860000,3.966860107421875,0.011309914043545722,0.0009368424586951732,0.003424969480000436
1772649306095904000,3.976904052734375,0.018946108010411262,0.00023662176746875045,0.01389123577363789
1772649306105949000,3.986948974609375,0.030772154882550237,0.0008916516100987791,-0.00569963641371578
1772649306115993000,3.9969931640625,0.01656242774426937,-0.0002043634656816721,0.002342617603391409
1772649306126037200,4.007037353515625,0.01746083788871765,-0.003574972409941256,0.011289053918607532
1772649306136081000,4.017080810546875,0.034973698225617404,-0.0030540172757580874,0.004456504484824836
1772649306146125000,4.027125,0.0292968216329813,0.006488594834320247,-0.001211677344702184
1772649306156169000,4.0371689453125,0.022106033346056937,0.002172813994437456,0.0017001915140077472
1772649306166214000,4.0472138671875,0.0189618901014328,-0.0068779960107058285,0.00908810980822891
1772649306176258000,4.057258056640625,0.02957914570569992,0.004971979726292193,0.018638905224762855
1772649306186302000,4.067302001953125,0.014617138895392416,-0.003508957969024777,0.008070384133048355
1772649306196346000,4.07734619140625,0.009534721064567566,-0.002939012593962252,-0.0020491876147687433
1772649306206390000,4.08739013671875,0.012661328652501105,-0.0012019962009042501,0.00006400514692068099
1772649306216434000,4.097433837890625,0.031360768425464626,-0.0019073314586654305,0.012686280430667102
1772649306226479000,4.10747900390625,0.023429390904307363,-0.010089651533588767,-0.00014346359129995107
1772649306236523000,4.11752294921875,0.01804769786596298,-0.0077354896228760475,-0.004968984051607549
1772649306246567000,4.12756689453125,0.0021855273455381394,0.005356923923268914,-0.004725274956226349
1772649306256611000,4.137611083984375,0.019985972452163697,-0.0031063685175031423,0.009676248427107929
1772649306266655000,4.147655029296875,0.03524082472920417,0.004761844106949866,-0.022320370216481387
1772649306276700000,4.157699951171875,0.02086801598370075,-0.0020707418594509363,-0.015896291985735295
1772649306286744000,4.167744140625,0.00859948604106903,-0.008252645364776254,-0.005426591625995934
1772649306296788000,4.1777880859375,0.023408348116278645,-0.009663388945534824,-0.0102586514249444
1772649306306832100,4.18783203125,0.021305238357186316,0.004398965611308813,0.005570858934894203
1772649306316876000,4.1978759765625,0.020412088909745215,0.015667561263777316,-0.0037171208269894123
1772649306326920000,4.207919921875,0.03777297355532646,0.004826835634559393,-0.008658193958364426
1772649306336965000,4.217965087890625,0.024902386066317558,0.007085793542489409,0.013304229665920137
1772649306347009000,4.228009033203125,0.010237900897860527,-0.0024590835899114608,0.003328632966056466
1772649306357053000,4.238052978515625,0.026395254972577095,-0.008944682749547064,0.005148103478178382
1772649306367096800,4.248096923828125,0.018459201276302337,-0.0035351518562063574,-0.0010293430477380753
1772649306377141000,4.25814111328125,0.010524316623806953,0.007331365801393985,-0.0007237111646682024
1772649306387185000,4.268184814453125,0.003339373555779457,-0.0017577669201418757,-0.0005936550442129374
1772649306397229800,4.278229736328125,0.017559037566184998,-0.003318623028695583,0.0013850976828485727
1772649306407274000,4.28827392578125,0.015025135174393653,-0.004524418621882796,-0.0012436068529263137
1772649306417318000,4.29831787109375,0.013530512702465056,0.004477072348818183,-0.002791640012525022
1772649306427362000,4.308362060546875,0.019219664254784583,-0.001068469481728971,0.003557400220632553
1772649306437406000,4.318406005859375,0.02790039883852005,-0.0035239728750661014,-0.011591982387937605
1772649306447451000,4.328450927734375,0.03642681964337825,0.0014761004345491527,-0.0008117547743022441
1772649306457495000,4.3384951171875,0.016979191851615904,0.008050473856180906,-0.00484437129124999
1772649306467539200,4.348539306640625,0.004854454293847084,-0.006105111942067742,-0.004887991237267852
1772649306477582800,4.358582763671875,0.016520926690101623,0.004861505089141428,-0.004532090471684932
1772649306487627000,4.368626953125,0.025949849292635916,0.008390519465506075,-0.004574285645596683
1772649306497671000,4.3786708984375,0.018620529317855832,0.006000519056431949,-0.0064225803934037685
1772649306507715800,4.3887158203125,0.02969020486474037,0.007599478685669601,0.0005063420869410038
1772649306517760000,4.398760009765625,0.033574937343597414,0.007127732988074421,0.002762012059241533
1772649306527804000,4.408803955078125,0.027734394621849057,0.0030037483932450412,0.001959682700410485
1772649306537848000,4.41884814453125,0.006637246057391166,-0.006479534745030105,-0.0030942396882921454
1772649306547892000,4.42889208984375,0.0015483984857797622,0.010439670547656715,-0.015535495849326252
1772649306557937000,4.43893701171875,0.01981236945092678,0.007764058130234479,0.008314422021992503
1772649306567981000,4.44898095703125,0.015926467928290368,0.005118731253221631,0.008015219879709184
1772649306578025000,4.45902490234375,0.01697334663271904,0.011359086947515607,0.001711114766821265
1772649306588068900,4.46906884765625,0.03478139052391052,-0.004017565078288317,-0.012253515036590397
1772649306598113000,4.479113037109375,0.03747019121646881,-0.0019240999303758142,-0.007020546286553144
1772649306608157000,4.489156982421875,0.02295592817366123,-0.005750380220264196,-0.0014462532855570316
1772649306618201900,4.499201904296875,0.02220306397974491,0.0053892918229103085,0.0010533449778333305
1772649306628246000,4.50924609375,0.014718261182308196,0.002745133989676833,0.000004055120609700679
1772649306638290000,4.5192900390625,0.03178103966414928,0.014183094859682022,-0.006142192549444735
1772649306648334000,4.529333984375,0.016668226206302643,0.006258585470728576,0.0018274711554870009
1772649306658378000,4.5393779296875,0.02131166809797287,0.02445014878679067,0.009807729319669306
1772649306668422000,4.549421875,0.027445640808343885,0.0040112449353560805,-0.009151420835405587
1772649306678467000,4.559467041015625,0.014429507368803024,0.007138510110415518,-0.007301372521929443
1772649306688511000,4.569510986328125,0.017120646148920057,0.011136018781363964,-0.0061793096894398325
1772649306698555000,4.579554931640625,0.019963760620355604,0.01715637504942715,-0.003122662065178156
1772649306708598800,4.589598876953125,0.022055179941654204,-0.0094397727901116,0.0025119828209280966
1772649306718643000,4.599642822265625,0.017123568758368492,0.0115440150603652,-0.0034444413654506206
1772649306728688000,4.609688232421875,0.00036766426861286163,0.009742518596351146,0.0155034202106297
1772649306738731800,4.619731689453125,0.027453824114799498,0.012965901089645921,0.004237710634991526
1772649306748776000,4.62977587890625,0.02057049434185028,0.014113865548372267,0.002296221178397536
1772649306758820000,4.639820068359375,0.010993103179335594,0.017868870700336992,0.00857679928522557
1772649306768864000,4.649864013671875,0.006498129847645759,-0.007870806440338492,0.0020244184996932742
1772649306778908000,4.659907958984375,0.030292262411117554,0.000507072739303112,-0.00740863228868693
1772649306788953000,4.669953125,0.037467853128910066,0.0021227643076330424,0.008397752923890948
1772649306798997000,4.6799970703125,0.03971417075097561,0.01658884082715958,0.0018760230049490927
1772649306809041000,4.690041015625,0.017718612042069433,0.005640161311440169,-0.023709413422085344
1772649306819084800,4.700084716796875,0.016231588354706762,0.0030492315027862787,-0.012038776307366788
1772649306829129000,4.71012890625,0.02701017200052738,-0.0026878143118694423,0.0019418547827750442
1772649306839174100,4.720174072265625,0.03779635443091392,-0.013407543909922241,-0.004478898979723454
1772649306849217800,4.7302177734375,0.0342073900282383,0.002746376098692417,-0.0017233897265046833
1772649306859262000,4.740261962890625,0.024191022926568984,0.01669887707289308,0.010963475226052104
1772649306869305900,4.750305908203125,0.020157237365841865,-0.001165061723999679,0.0038320889761671423
1772649306879350000,4.76035009765625,0.02435118192434311,0.009044197601266206,0.0007977262489497661
1772649306889394000,4.770393798828125,0.01881985128223896,-0.006402450920827686,-0.014365538754500447
1772649306899438800,4.78043896484375,0.018224807998538015,-0.00043221740480512376,-0.002828318761102855
1772649306909483000,4.79048291015625,0.036029929280281064,0.001379362061806023,0.011967062778025865
1772649306919527200,4.800527099609375,-0.00019289222359657285,-0.005791333285160362,0.010675890456326305
1772649306929570800,4.81057080078125,0.018964812710881233,-0.01058748152051121,0.001903020609728992
1772649306939615000,4.820614990234375,0.02420680501759052,0.0076609630819410085,-0.003875928117893636
1772649306949659000,4.830658935546875,0.01672317126393318,-0.007412797007150948,0.010187778145819901
1772649306959703800,4.840703857421875,0.009981880310177802,0.005276807891763747,0.012524952389113605
1772649306969748000,4.850748046875,0.011924246549606322,-0.006815671364217997,0.006112345400452614
1772649306979792000,4.8607919921875,0.018359832555055616,-0.0006431932743638754,0.0008240297339856624
1772649306989836000,4.8708359375,0.03153027977347374,-0.0007948401721194386,0.0030569033525884148
1772649306999880200,4.880880126953125,0.02389057867527008,0.015183248345553874,-0.019307232940383254
1772649307009923800,4.890923828125,0.007419920867681503,0.0028305837834253908,0.0026778043745085594
1772649307019969000,4.900968994140625,0.01699906559586525,0.006811945037171244,-0.006018237376213074
1772649307030013200,4.91101318359375,0.02148936275243759,0.0031803105365484953,-0.01158303189650178
1772649307040056800,4.921056884765625,0.01535597456395626,0.015396781498380004,-0.0035856034018099305
1772649307050101000,4.93110107421875,0.008478490009903908,0.002157104968652129,-0.008752703841403127
1772649307060145000,4.941144775390625,0.015653496205806732,-0.003100925157405436,-0.00011810995433479546
1772649307070190000,4.951190185546875,0.01116319904923439,0.0008254545060917735,0.0024336568877100944
1772649307080234000,4.96123388671875,0.037052842587232585,0.007280475864373147,0.003972301164455711
1772649307090276000,4.971276123046875,0.037052842587232585,0.007301883978582918,0.004005472781695425
1772649307100321000,4.981321044921875,0.02597323016822338,-0.0025320392282679677,-0.013126133152656256
1772649307110365000,4.991364990234375,0.00668283876478672,0.005867101935110986,-0.00026979338470846414
1772649307120409000,5.0014091796875,0.02599018130302429,-0.005272679705917835,-0.017148447471298275
1772649307130453000,5.011452880859375,0.040510289564728734,-0.008578297122567892,-0.009740290106646716
1772649307140497000,5.021496826171875,0.008490764969587325,0.0025635303450748325,-0.01016326475907117
1772649307150541000,5.031541015625,0.015669862818717954,0.0104260804137215,-0.006408369204960763
1772649307160586000,5.0415859375,0.002051671832799911,-0.000332191096432507,-0.019582542750425636
1772649307170630000,5.0516298828125,0.01836801586151123,0.007559658131934702,-0.002918481262587011
1772649307180674000,5.061674072265625,0.029141338810324668,-0.007105192362703383,0.007906389210373163
1772649307190718000,5.071718017578125,0.018513561812043187,0.007647482545860111,-0.000300590381771326
1772649307200762000,5.08176220703125,0.022550854504108427,0.0014562997555360197,0.006921689021959901
1772649307210806000,5.091805908203125,0.02493921094536781,0.00332589301969856,0.008355813478305935
1772649307220851000,5.101850830078125,0.017460253366827962,-0.002424669863656163,0.00640226825773716
1772649307230895000,5.11189501953125,0.012673019090294836,0.0014487375035881994,0.01045888670478016
1772649307240939000,5.12193896484375,0.01821370208263397,-0.001297419399395585,0.008404511458240449
1772649307250983000,5.13198291015625,0.024351766446232794,0.0017490721570327878,0.008946801641397177
1772649307261026800,5.14202685546875,0.021209376767277716,-0.00221888162586838,-0.00387143460586667
1772649307271072000,5.152072021484375,0.0156722009062767,-0.0007500877149403095,-0.0006479790473356842
1772649307281116000,5.162115966796875,0.03197393188774585,0.012170184134691953,0.023164894749224185
1772649307291159800,5.172159912109375,0.0259855051279068,-0.0008463876962661743,-0.0029597265884280205
1772649307301204000,5.182203857421875,0.02449263622164726,-0.0018103738902136683,0.0033466800794005394
1772649307311248100,5.192248046875,0.024954408514499662,0.00947115430906415,0.01311663467194885
1772649307321292300,5.202292236328125,0.020609072786569593,0.004016651762835681,-0.006549019784666598
1772649307331337000,5.2123369140625,0.01925590461194515,0.012312734410539268,-0.0027642770815640687
1772649307341381000,5.222381103515625,0.013121347379684447,0.013055296406149863,0.011473141781240702
1772649307351425300,5.23242529296875,0.03332300840914249,-0.0007412833539769053,-0.006222783504985272
1772649307361469000,5.242468994140625,0.03780804486870765,0.005014321030676365,-0.0007122764552012085
1772649307371513000,5.25251318359375,0.007575403690338134,0.0010764335924759506,-0.005825856609269976
1772649307381558300,5.262558349609375,0.01789572217464447,0.00836732125300914,-0.00850146902669221
1772649307391602000,5.272601806640625,0.03569675180315971,0.004193104308284819,-0.0034179186847060916
1772649307401646000,5.28264599609375,0.021043372550606728,0.0021557167291641234,0.006957016063667833
1772649307411690000,5.29268994140625,0.010863923841714859,0.01666333083547652,-0.002224361518584192
1772649307421734100,5.302734130859375,0.017298925325274467,0.0025417203720659014,0.0030082419052720067
1772649307431779000,5.312779052734375,0.017595862445235252,0.016838504739291965,-0.002922682513669133
1772649307441824300,5.32282421875,0.004724105912446976,-0.0010239362202584743,0.008637845290079712
1772649307451868200,5.3328681640625,0.016547814697027204,0.001135141509771347,-0.011697890447825193
1772649307461912000,5.342912109375,0.012498831567168234,-0.010544117302820085,0.0005151829805225133
1772649307471956000,5.3529560546875,0.008608838391304016,-0.009895188407413661,-0.0015542802372947335
1772649307482000100,5.363000244140625,0.030161329507827756,0.018509104832634328,-0.009000906448811291
1772649307492044300,5.373044189453125,0.03330255014300346,0.0015842369841411708,0.007707469104789197
1772649307502089000,5.3830888671875,0.014755670583248138,-0.012694792530685662,-0.0038223347671329975
1772649307512133000,5.393133056640625,0.026731939581036566,0.0014324804885312915,0.004897891576774418
1772649307522177000,5.403177001953125,0.0238853179782629,-0.002730411344580352,0.009025091041997075
1772649307532221200,5.41322119140625,0.025386954712867737,0.005688530497811734,-0.006481178712844848
1772649307542265000,5.42326513671875,0.02104629516005516,0.01364880531989038,0.00954400034956634
1772649307552310000,5.43331005859375,0.013411270236968994,-0.008409187633357941,-0.0039036563750356433
1772649307562354200,5.443354248046875,0.016253215664625165,0.005192198348231613,0.01040953113771975
1772649307572398000,5.453398193359375,0.03286591229140758,-0.003857625276222825,0.0060537836136296385
1772649307582442000,5.46344189453125,0.01864332567155361,0.0071851257311180226,-0.003567008299194276
1772649307592486100,5.473486083984375,0.018038345515727996,0.013877609107084571,-0.0038967517102137207
1772649307602530000,5.483530029296875,0.029558687439560888,-0.004954334471747279,-0.00004069733656942844
1772649307612575000,5.493574951171875,0.032095512440800666,-0.005745156055875123,-0.006383125165849924
1772649307622619100,5.503619140625,0.01682370902895927,-0.004437872849591076,0.005182626802287996
1772649307632663000,5.5136630859375,0.009928688818216323,0.0005310746693983673,-0.005385346300154924
1772649307642707200,5.523707275390625,0.022505261796712875,0.005300334897823632,-0.0064594418050721285
1772649307652751000,5.533751220703125,0.010534253495931624,0.007870696842484176,0.004202895049937069
1772649307662796000,5.543796142578125,0.025638299125432966,-0.0033355376308783886,0.008043094267323614
1772649307672840200,5.553840087890625,0.02862929763495922,0.004471080999448895,-0.005740224152430892
1772649307682884000,5.563884033203125,0.013813421297073364,-0.0009942717343568801,-0.007924911247752606
1772649307692928000,5.573927978515625,0.020249591824412345,-0.005153400707803666,-0.0010913389006629586
1772649307702972200,5.58397216796875,0.016952303844690323,-0.007426606336794793,-0.015294015243649482
1772649307713016000,5.59401611328125,0.015153729990124702,-0.0063586117791011925,-0.009818031517975032
1772649307723061000,5.60406103515625,0.02623275788724422,0.01138294274713844,-0.002999364479072392
1772649307733105200,5.614105224609375,0.02697276259958744,0.0019376169990748167,-0.005450593556091189
1772649307743149000,5.624149169921875,0.026219898405671117,0.01359912095926702,-0.01136971793938428
1772649307753193200,5.634193115234375,0.029514848297834396,-0.0006770955439656972,0.005076755275018513
1772649307763237000,5.644237060546875,0.016490531551837922,0.004061513817869127,-0.0018292247211560606
1772649307773281000,5.654281005859375,0.018284429231286047,0.0037539091734215616,0.004390343913435936
1772649307783326200,5.664326171875,0.028613515543937682,0.005511566495709121,-0.001535685134679079
1772649307793370000,5.6743701171875,0.012746668848395346,-0.004626929148286581,0.010397694569453596
1772649307803414000,5.6844140625,0.0010690905362367629,0.0007135185642167925,0.006792290488630533
1772649307813458200,5.694458251953125,0.024260581031441686,0.0009487886248156428,-0.02667626387104392
1772649307823502000,5.704502197265625,0.03847615338861942,-0.0031967502146959302,-0.012611425096169113
1772649307833547000,5.714547119140625,0.013633973076939582,-0.0006171089850366115,0.008604308346658944
1772649307843591000,5.7245908203125,0.016329203510284423,0.012581797142885624,-0.00019797025751322508
1772649307853635000,5.734635009765625,0.03204056738317013,0.0009434548625722527,-0.0037534707820042965
1772649307863679200,5.74467919921875,0.02546001994907856,-0.011132182856462895,0.0027834932386875152
1772649307873723100,5.75472314453125,0.029653379985690113,-0.006869666573777794,0.0006796893598511814
1772649307883767000,5.76476708984375,0.013341127610206603,0.0025616671815514563,-0.00010970745217055081
1772649307893812200,5.774812255859375,0.002124152547121048,-0.005862316162139177,-0.004637121748737991
1772649307903856000,5.784856201171875,0.03145896810293197,0.010102182221598923,-0.0012242445653304456
1772649307913900000,5.794900146484375,0.01246025312244892,-0.0006407821215689182,-0.0043913302941247815
1772649307923944000,5.80494384765625,0.02623275788724422,-0.0011674728767946362,0.002262026647850871
1772649307933988000,5.814988037109375,0.029521862560510634,0.022475633843429384,-0.025133381810598075
1772649307944033000,5.825032958984375,0.008114917394518853,0.004066774514876306,-0.002452251990325749
1772649307954077000,5.835076904296875,0.03638882572054863,-0.0039020124072208996,-0.0057995896568521854
1772649307964121000,5.84512109375,0.03714344348013401,0.007180047697201371,-0.010459800020232796
1772649307974165200,5.855165283203125,0.01500000073313713,0.014001637345552443,0.013479915026389061
1772649307984209200,5.865209228515625,0.012304185777902602,0.008059460880234837,0.00016549276001751422
1772649307994253000,5.875253173828125,0.02082534588575363,-0.0015450740175321697,0.01595463457684964
1772649308004298200,5.88529833984375,0.020218612164258954,0.0006501710044220089,0.013004443001747131
1772649308014342100,5.895342041015625,0.010948679515719413,0.006372019249945879,-0.002201382501795888
1772649308024386000,5.905385986328125,0.03339022842645645,-0.003131576023995876,0.004522701588831841
1772649308034430000,5.915429931640625,0.031140403673052788,-0.0032724823320284483,-0.01598758699838072
1772649308044474000,5.92547412109375,0.014223755663633346,-0.00786127142701298,-0.009100019441731274
1772649308054518000,5.93551806640625,0.025453590208292007,-0.0033386063707992433,-0.006962167162820696
1772649308064563000,5.94556298828125,0.007054594686627388,0.009564166354760527,0.005773249639198183
1772649308074607000,5.955607177734375,0.013037760749459266,0.007214644086547196,0.00008011603150516748
1772649308084651000,5.965651123046875,0.03442833930253982,0.0032902371844276785,0.0007639701098203659
1772649308094695200,5.975695068359375,0.008240589600801467,0.00807790985237807,-0.005104337401688099
1772649308104739000,5.985739013671875,0.0036059155374765393,0.007323072897084057,-0.006405556193366646
1772649308114784000,5.995783935546875,0.03577098608314991,0.002086012493818998,-0.007897438718937336
1772649308124828200,6.005828125,0.025602058768272398,-0.0055971989525482055,-0.006431129026040434
1772649308134872300,6.015872314453125,0.013325345519185065,-0.004097827240265905,0.0002608428932726383
1772649308144916000,6.025916015625,0.015713117438554764,-0.002255048917792737,-0.006597425503656267
1772649308154960100,6.035960205078125,0.03307049495279789,0.011618176275119185,-0.007729425208270549
1772649308165004000,6.046004150390625,0.008391980770230293,0.0009245674990117549,0.0026214345447719096
1772649308175049000,6.056049072265625,0.004352349990606308,0.009768383689969778,0.008659216871671378
1772649308185093000,6.066093017578125,0.01557341670691967,-0.003037650662846863,0.01317530605662614
1772649308195137000,6.076136962890625,0.03623217385411262,-0.00021020868457853793,0.0010768719838932157
1772649308205181200,6.08618115234375,0.029046061742305753,0.010562639340199529,0.010696750581264495
1772649308215225000,6.09622509765625,0.009587912556529044,0.004063778840191662,-0.002207885307818651
1772649308225270000,6.10627001953125,0.02755085474848747,-0.004597008934058249,0.000787679778970778
1772649308235314200,6.116314208984375,0.024407880547642705,-0.009796185012347995,-0.010398607884906232
1772649308245358000,6.126358154296875,0.022768296647071837,0.008692461554147303,-0.0038548487972468134
1772649308255402000,6.136402099609375,0.020231471645832062,0.005463599168136716,-0.001074424298480153
1772649308265446100,6.146446044921875,0.025319150173664092,-0.0004154854657128453,-0.002186111867427826
1772649308275490000,6.156489990234375,0.017093758141994476,0.006664389792643487,0.0015457316046580672
1772649308285535000,6.166534912109375,0.027566052317619324,0.008705905557610093,-0.0006963847663253545
1772649308295579100,6.1765791015625,0.011257891595363617,-0.0018000351592898367,0.003227072287723422
1772649308305623000,6.186623046875,0.02712298472523689,0.012384557537734507,-0.018566314912587402
1772649308315667200,6.196667236328125,0.028614684587717053,0.005274469804205,0.00503872481957078
1772649308325711600,6.206711669921875,0.014096914413571356,0.0009426146123558282,-0.010301577251218259
1772649308335755500,6.216755615234375,0.015901333487033844,0.014203041669167577,-0.00338003435973078
1772649308345800700,6.22680078125,0.03236906868517399,0.00032440964877605437,0.011346629324741661
1772649308355844600,6.2368447265625,0.03955634984076023,0.005196399599313736,0.008105747707374393
1772649308365888500,6.246888427734375,0.016669979771971703,-0.004690020979754627,0.007829670712351798
1772649308375932700,6.2569326171875,0.023403671941161153,-0.002166603449359536,-0.005970343113876879
1772649308385976600,6.2669765625,0.026250878065824507,-0.006266987972892821,-0.00413815925065428
1772649308396021500,6.277021484375,0.024915245547890662,-0.006784326377883553,0.005300919419713318
1772649308406065700,6.287065673828125,0.030452421408891674,-0.009130999101884663,0.0054029915546998375
1772649308416109600,6.297109619140625,0.008752046254277229,0.0002969371199607849,-0.00905354995150119
1772649308426153700,6.30715380859375,0.02596095520853996,-0.007093538457527756,-0.0062095586972311136
1772649308436197600,6.31719775390625,0.023419454032182693,0.012309081148728727,0.007254355042427778
1772649308446241500,6.327241455078125,0.008304302486777305,0.0064716071669012306,-0.017047105988673865
1772649308456286700,6.33728662109375,0.011141571739315986,0.011116583428531885,-0.0016491919791325927
1772649308466330600,6.34733056640625,0.022205402067303655,0.005008256616070866,-0.013047697621583938
1772649308476374500,6.35737451171875,0.031028175470232962,0.005713080417178571,0.00024254005160182713
1772649308486418400,6.36741845703125,0.02698620660305023,0.003699548637680709,0.002253222286887467
1772649308496462600,6.377462646484375,0.023691256710886954,0.006671404055319726,0.0018978695105761288
1772649308506506800,6.3875068359375,0.029225509962439535,0.001480813142284751,0.01208287117742002
1772649308516551400,6.397551513671875,0.025799627166986465,-0.0036890272436663507,0.003837751531973481
1772649308526595600,6.407595703125,0.019976035580039023,0.010023673625290393,0.006765073688142002
1772649308536639700,6.4176396484375,0.015033318480849265,0.0008091974910348653,0.015083550830744205
1772649308546683600,6.42768359375,0.03164309249818325,0.007935213446058333,0.00003298895414918661
1772649308556727600,6.4377275390625,0.021474749705195424,0.004057787490822374,-0.002333667111955583
1772649308566772700,6.447772705078125,0.01563829863667488,-0.00290200505182147,-0.005761303473077714
1772649308576816600,6.457816650390625,0.013402502408623694,0.014490480308420955,0.01872574325799942
1772649308586860500,6.467860595703125,0.029113281759619712,-0.000576850039884448,0.002076477480493486
1772649308596904400,6.477904541015625,0.021630232527852056,-0.0051025473034009335,0.0018398191804066299
1772649308606948600,6.487948486328125,0.022386603853106497,-0.0009271613148972392,0.00559230358172208
1772649308616992500,6.497992431640625,0.018344634985923765,-0.004889854400791227,0.010135755697637796
1772649308627037400,6.508037353515625,0.02792787136733532,0.005716587548516691,0.004418181768432259
1772649308637081600,6.51808154296875,0.010422609815001488,0.002824227107875049,-0.00261569892372936
1772649308647125500,6.52812548828125,0.015360066217184066,-0.012954795173741877,0.007657309820130467
1772649308657169700,6.538169677734375,0.01910042178928852,0.0006177300395444035,-0.0011052943607792257
1772649308667213600,6.548213623046875,0.024496727874875068,0.008964446895942092,-0.014410035483352839
1772649308677258500,6.558258544921875,0.011332125875353812,0.018491057719290254,-0.005846972462534904
1772649308687302700,6.568302734375,0.0010047931283712387,0.02121412600763142,0.007003668216988444
1772649308697346600,6.5783466796875,0.024052491238713263,0.005791954339668154,-0.006516396156698465
1772649308707390500,6.588390380859375,0.02809387558400631,0.00204714178815484,0.005477700758725405
1772649308717434600,6.5984345703125,0.03049450698494911,-0.015499986144527793,0.007709149605222046
1772649308727478500,6.608478515625,0.010149638092517852,-0.008140051835775375,0.0050189606731757515
1772649308737523500,6.6185234375,0.02481295421719551,0.003307699775882065,0.002097191474959254
1772649308747567600,6.628567626953125,0.027057518273591992,0.013177972937747836,0.01660524397268891
1772649308757611500,6.638611572265625,0.0266214649438858,-0.003968355641700327,0.011266695956327021
1772649308767655700,6.64865576171875,0.029168811339139938,0.008322349600121378,-0.013733999385312199
1772649308777699600,6.658699462890625,0.012408815196156501,0.007944638861529529,-0.008410210546664893
1772649308787743500,6.668743408203125,0.015553542962670325,-0.020732881829328833,0.0033332726085558533
1772649308797788700,6.67878857421875,0.02857084544599056,-0.0018987097607925532,-0.005416910482198
1772649308807832600,6.68883251953125,0.02153027928471565,0.00722965899258852,-0.003769837394915521
1772649308817876500,6.69887646484375,0.015537760871648787,0.021147453979589045,-0.0004769698619842529
1772649308827920600,6.708920654296875,0.02899754642546177,0.0019295432904735206,-0.0014874620787799356
1772649308837964500,6.718964599609375,0.029143676897883414,0.006693944680690765,-0.004324366005137563
1772649308848009500,6.729009521484375,0.0001233341187238693,-0.0028257980104535816,0.006466821393929421
1772649308858053600,6.7390537109375,0.025563480323553083,-0.006659604019671678,-0.00418298477306962
1772649308868097500,6.74909765625,0.03663666300177574,-0.008721249257214366,0.0014174655824899672
1772649308878141700,6.7591416015625,0.026305823123455047,-0.002010536104813218,0.0033638504099100827
1772649308888185600,6.769185546875,0.011343231791257858,-0.005411832448281347,-0.002086889276653528
1772649308898229500,6.7792294921875,0.027816812208294867,0.0029673984382301566,-0.014297441954351961
1772649308908274700,6.789274658203125,0.024383915150165556,0.013683547839708626,-0.001409355341270566
1772649308918318600,6.799318603515625,0.005689151552319526,0.0020269392503425476,0.005429879561625421
1772649308928362500,6.809362548828125,0.009432429733872413,0.003449738595075905,-0.005821728423424065
1772649308938406700,6.81940673828125,0.012729717713594435,-0.0019057605560868977,0.007171572129800915
1772649308948450600,6.829450439453125,0.010638882914185523,-0.000028312779031693933,0.004067395569384098
1772649308958495700,6.839495849609375,0.025453590208292007,-0.002722118440270424,0.0003322276290506124
1772649308968539400,6.849539306640625,0.01661912636756897,-0.0032057372387498616,0.00018302841670811174
1772649308978583600,6.85958349609375,0.02889057891964912,-0.002167918623611331,0.00738769909851253
1772649308988627700,6.869627685546875,0.022311200529336928,0.003878887259960174,-0.0027750176712870596
1772649308998671600,6.879671630859375,0.013780688071250914,0.00000716039314866066,-0.000386076708137989
1772649309008715500,6.889715576171875,0.02620586988031864,0.0017002645792439579,0.0009713657828047871
1772649309018760700,6.8997607421875,0.02172083342075348,0.0023045140827074647,0.003130772306397557
1772649309028804600,6.9098046875,0.021577041035890577,-0.0017192615406587718,-0.008411562253534793
1772649309038848500,6.9198486328125,0.02232639809846878,0.0036476723199710247,0.00805124104116112
1772649309048892400,6.929892333984375,0.03579787409007549,0.005401201456412673,0.003329436683654785
1772649309058936600,6.9399365234375,0.014402034839987754,0.0063040320476517074,0.006548983252048492
1772649309068980700,6.949980712890625,0.003029576954245567,0.0060467328183352945,0.0021245909385383126
1772649309079025400,6.960025390625,0.01993745713531971,0.0008585530580952763,-0.015338658102974296
1772649309089069600,6.970069580078125,0.03699731300771236,-0.013288301444426179,0.014806962379068136
1772649309099113700,6.98011376953125,0.007830255234241485,-0.0064511489007622,-0.010855704002641142
1772649309109157600,6.99015771484375,0.025332594177126883,0.00380527403447777,-0.004465345378406345
1772649309119201500,7.000201416015625,0.022633856612443923,0.00033799978271126745,-0.006225267723016441
1772649309129246500,7.01024658203125,0.022186697366833687,0.00032185236550867554,-0.008888312919810414
1772649309139290600,7.02029052734375,0.0025771570116281508,-0.004341061411611735,0.014718626508489251
1772649309149334800,7.030334716796875,0.03131342215240002,-0.0015379501570016146,-0.004169833030551672
1772649309159378400,7.04037841796875,0.02113338892161846,-0.0017514467772096393,-0.016296945208497345
1772649309169422600,7.050422607421875,0.021273089653253554,-0.0050165860529989,-0.003476626602001488
1772649309179466500,7.060466552734375,0.013936170893907546,-0.008194375838898121,0.0020761121543124315
1772649309189511400,7.070511474609375,0.01556815600991249,-0.0077131316605955355,-0.011997165655344724
1772649309199555600,7.0805556640625,0.02035655933022499,0.003139211341179907,-0.00014021218828856943
1772649309209599500,7.090599609375,0.01317395434975624,0.001111541438475251,-0.00789590434897691
1772649309219643600,7.1006435546875,0.019759762480854988,-0.010176124240644275,-0.001492722775787115
1772649309229687800,7.110687744140625,0.013181553134322165,-0.010030614822730422,-0.0017659136939793825
1772649309239732500,7.120732421875,-0.0076233344852924345,0.00025017536878585813,0.009442841530032456
1772649309249776600,7.130776611328125,0.07243979778885841,-0.0013360709093511104,0.0034682240998372433
1772649309259820800,7.14082080078125,0.0031599253356456754,-0.0070548869475722305,0.011879457559809087
1772649309269864400,7.150864501953125,-0.013165771043300628,-0.004652501980960369,-0.007902005296200514
1772649309279908600,7.16090869140625,0.029925182664394378,0.005340703440830112,0.00037095220424234864
1772649309289952500,7.170952392578125,0.04265782298743725,-0.008815539944544435,0.012846768222004175
1772649309299997700,7.180997802734375,0.018870704686641693,0.013345146198198198,0.02133395299501717
1772649309310041600,7.19104150390625,0.054335985821485515,-0.01482252527438104,-0.006217157481797039
1772649309320085000,7.2010849609375,0.026951719811558722,0.010970562553964554,-0.00959328285139054
1772649309330129000,7.21112890625,0.0296323371976614,0.004825045536272227,0.005553944332711398
1772649309340173000,7.221173095703125,0.036353754407167434,0.0041889030572026965,-0.0004347381554543972
1772649309350217000,7.231217041015625,0.0318587810754776,-0.001764013997837901,0.009323525999300182
1772649309360262000,7.241261962890625,0.010907762983441352,0.0022335677383467554,-0.006723170775175094
1772649309370306000,7.25130615234375,0.007912672820687293,0.0035212329287081954,0.0026082097370177504
1772649309380350000,7.261349853515625,0.04412497293055057,-0.0010614917516708372,-0.0038930253831669687
1772649309390393900,7.271393798828125,0.01883680241703987,-0.0011690803119912743,-0.010847520696185529
1772649309400438000,7.28143798828125,0.016891513568162916,0.003629771337099373,-0.0009499576685950159
1772649309410483000,7.29148291015625,0.013745032235980033,0.00652702714856714,-0.00339914091899991
1772649309420527000,7.301527099609375,0.02391980476975441,0.011552344497293233,-0.005448766925185918
1772649309430571000,7.311571044921875,0.02990121726691723,0.007893529728800058,-0.008303973693214357
1772649309440615000,7.321614990234375,0.0074503160059452055,0.003338387175090611,-0.011865940491110085
1772649309450659000,7.3316591796875,0.013431728503108024,0.010339169315248727,-0.0013386647252365946
1772649309460703000,7.341702880859375,0.03229366536140442,0.0011121990256011485,-0.01023110583089292
1772649309470748000,7.351747802734375,0.023021979147195816,0.003481595038063824,0.005412161241844296
1772649309480792000,7.3617919921875,0.013298457512259483,0.010624452530033886,0.004686038924381137
1772649309490836000,7.3718359375,0.00820084211230278,-0.0006978095384314656,0.02412983079124242
1772649309500880100,7.381880126953125,0.01088905828297138,-0.006897869754955172,-0.0058337111221626395
1772649309510923800,7.391923828125,0.021218144595623014,-0.009972491427324712,0.0016487170550972222
1772649309520968000,7.401968017578125,0.023478490743041036,0.0018850830942392348,0.0011546133952215314
1772649309531013000,7.41201318359375,0.013890578186511992,-0.004567161785066128,-0.014853797195479274
1772649309541056800,7.422056884765625,0.02720014161467552,0.01640789476968348,-0.0076742974875494835
1772649309551101000,7.432100830078125,0.0066927756369113914,0.0072144979560747734,-0.013964410607703029
1772649309561145000,7.44214501953125,0.013879472270607948,-0.011295666322484611,-0.01774970130007714
1772649309571189000,7.45218896484375,0.04352174634039402,0.007705459810793399,0.0035664237773045896
1772649309581234000,7.46223388671875,0.015690905606746672,-0.012044767656736075,-0.0028126462679356336
1772649309591278000,7.472278076171875,0.003252279794216156,-0.003979607688076794,-0.013212423196621238
1772649309601322000,7.482322021484375,0.018960721057653427,0.0052335167393088335,-0.0064625470776110885
1772649309611366100,7.4923662109375,0.02824117510020733,0.018485577826574444,-0.007525646264478564
1772649309621409800,7.502409912109375,0.018671967244148255,-0.010486688027158379,-0.003160400259681046
1772649309631454000,7.512453857421875,0.015080080232024192,0.0024848025530576703,0.00850435510352254
1772649309641499100,7.5224990234375,0.0065437225550413125,0.005534874306060374,-0.006667421999946236
1772649309651542800,7.532542724609375,0.044857378858327863,-0.0028407033186405896,0.0009467062655836344
1772649309661587000,7.5425869140625,0.027507600128650663,-0.0028948446586728096,-0.005993906652554869
1772649309671630800,7.552630859375,-0.0028676643908023833,0.009871807531826197,0.0027925898605957625
1772649309681675000,7.562675048828125,0.003558569264411926,0.012280768369697034,-0.0027442206742241976
1772649309691720000,7.572719970703125,0.037222353935241696,0.006107194301299751,-0.001687039771489799
1772649309701763800,7.582763916015625,0.034683190846443175,0.0034187224023044106,-0.0029398163115605712
1772649309711808000,7.59280810546875,0.006697451812028884,0.008140271031484007,0.0009558759527280926
1772649309721852200,7.60285205078125,0.008492518535256385,0.0009294263372197747,0.005455379329062998
1772649309731895800,7.612895751953125,0.02869944026172161,-0.0024659882547333834,-0.009171842568926513
1772649309741940000,7.62293994140625,0.037976387172937394,0.008092595964856446,0.0017866276884451508
1772649309751985200,7.632985107421875,0.020923545563220975,0.0018466873126104474,0.010779204700328409
1772649309762029000,7.643029052734375,0.013595979154109953,0.002011960876919329,0.006901997940801084
1772649309772073000,7.653072998046875,0.03633563422858715,0.0018188129249960183,-0.011662271145172416
1772649309782116900,7.663116943359375,0.028263971453905103,0.0047471214618533845,0.0001147124208509922
1772649309792161000,7.6731611328125,0.017941314882040024,0.000811206785030663,-0.007067125374637544
1772649309802205200,7.683205078125,0.006413958695530891,-0.0077323478177189825,-0.008221592639386653
1772649309812249900,7.693249755859375,0.027818565773963928,0.0011576456025242806,-0.004725128825753927
1772649309822294000,7.7032939453125,0.03051496525108814,-0.005735694107785821,-0.005610752553865313
1772649309832338000,7.713337890625,0.0056873979866504665,-0.007907485188916326,-0.003326514074206352
1772649309842382000,7.723382080078125,0.01466097803711891,-0.00539652528129518,0.013160619944147765
1772649309852426000,7.733426025390625,0.05251520013511181,-0.0010040624760091303,-0.0026031317031010985
1772649309862471000,7.743470947265625,0.007618073788285255,-0.00029613340236246585,-0.004117079930007457
1772649309872515000,7.75351513671875,0.010756956335902214,-0.008168656875751912,0.010696092994138599
1772649309882559000,7.76355908203125,0.021671149060130117,-0.00024042115975171326,-0.002698408771120012
1772649309892603000,7.773602783203125,0.03275076147913933,-0.00873443753235042,-0.0013289835814386606
1772649309902647000,7.78364697265625,-0.000028057050704956055,0.009938808353431522,0.011326390254311263
1772649309912691000,7.79369091796875,0.034084055909514424,-0.009855002527497709,0.0035392069768160578
1772649309922735900,7.80373583984375,0.022563129463791846,0.006971008056402206,-0.023645335209928453
1772649309932780000,7.813780029296875,0.004905307698249817,0.002326068327389657,-0.011690145532786845
1772649309942824000,7.823823974609375,0.0035609073519706725,-0.005542400025390088,-0.0041106136566028
1772649309952868000,7.8338681640625,0.018825111979246138,-0.0025598405506461856,-0.004398709882982075
1772649309962912000,7.843912109375,0.010887889239192008,0.010708148758113384,-0.00503927280884236
1772649309972956000,7.853955810546875,0.040811318337917325,0.005376030482538044,-0.0046404096843674775
1772649309983001000,7.8640009765625,0.010732406416535377,0.008557473530247807,0.002245148578286171
1772649309993044700,7.874044677734375,0.0143172791659832,0.005782711587287485,0.00004920943658798933
1772649310003089000,7.8840888671875,0.0153629888266325,-0.007321794255450368,-0.0034980347162112593
1772649310013133000,7.894133056640625,0.017771803534030912,-0.004805135259404778,-0.011544818777963518
1772649310023177000,7.904177001953125,0.030199323430657385,0.017922025659680367,-0.0009204758457839489
1772649310033222000,7.914221923828125,0.01239361762702465,0.008220533193461596,-0.005638188550062477
1772649310043266000,7.92426611328125,0.02406710428595543,-0.005636727245338261,0.019417671044915912
1772649310053310000,7.93431005859375,0.03874211084842682,-0.002974704961851239,-0.005227013933286071
1772649310063354000,7.94435400390625,0.020489245799183844,-0.003944499842077493,0.0025405513282865284
1772649310073397800,7.954397705078125,0.019738135170936585,0.010130239272303878,0.002165032546781003
1772649310083442000,7.96444189453125,0.020928806260228156,0.014674750834144651,-0.001232537469640374
1772649310093487000,7.974487060546875,0.020027473506331443,0.004461034529469907,0.01108326568081975
1772649310103531000,7.984531005859375,0.017934300619363783,0.002062558552995324,-0.0015758710145950317
1772649310113575000,7.994574951171875,0.026776947766542433,0.004538264484144747,-0.011501892951689659
1772649310123619000,8.004619140625,0.01211480068564415,0.008952427664585412,0.01270443714186549
1772649310133663000,8.0146630859375,0.03426408865153789,-0.004987871415168046,0.008109656697511673
1772649310143708000,8.0247080078125,0.01151741931438446,0.0068980524180457,0.0047080680930987
1772649310153751800,8.034751708984375,0.016462474501132963,0.00805704972743988,0.011915880580060184
1772649310163796000,8.0447958984375,0.04249591042399406,0.01366002083364874,-0.014514116912335156
1772649310173840100,8.054840087890625,0.020196400332450865,-0.003851524328999221,-0.0032510011525824665
1772649310183884000,8.064884033203125,0.003735679396986961,-0.0010776026362553238,-0.00016498130336403845
1772649310193928000,8.074927978515625,0.04174830692708492,-0.004089972727373242,0.00279945799279958
1772649310203973000,8.08497314453125,0.03590893324911594,0.00691588033568114,0.006548544860631227
1772649310214017000,8.09501708984375,0.01855272477865219,0.0031323432089760896,-0.004976765499264002
1772649310224061000,8.10506103515625,-0.005981997019052505,0.016041618740558622,0.007165982639230788
1772649310234104800,8.115104736328124,0.016611527583003043,0.007109539744257927,0.00822751092351973
1772649310244149000,8.12514892578125,0.030523148557543754,-0.0009244944337755441,0.007693623242527246
1772649310254193200,8.135193115234374,0.02229892556965351,-0.005232457293383777,0.0012805778624489902
1772649310264237800,8.14523779296875,0.0025350714355707165,-0.00536985647007823,0.0036211131066083905
1772649310274282000,8.155281982421876,0.027815058642625807,0.00016622341237962246,-0.00016655220594257114
1772649310284326100,8.165326171875,0.028572599011659622,-0.00047949061263352627,-0.0004854454293847084
1772649310294370000,8.1753701171875,0.02138648689985275,0.005253280885703862,-0.005604176682606339
1772649310304414000,8.1854140625,-0.0006155015498399734,0.006551029078662395,0.000368321855738759
1772649310314459100,8.195459228515626,0.01973871969282627,0.000615282354131341,-0.008050546921417117
1772649310324503300,8.20550341796875,0.021685177585482596,-0.007671630606427789,0.007463942672498523
1772649310334547200,8.215547119140625,0.041893268355727195,0.006062624507211148,0.009057020550221204
1772649310344591000,8.225591064453125,0.023184476232528686,-0.017826273667626083,0.0046725583883002395
1772649310354635300,8.23563525390625,0.018533435556292534,0.003852583774924278,0.00006922931130975484
1772649310364679200,8.24567919921875,0.007909165689349174,-0.007445785961300134,0.01784928921703249
1772649310374724000,8.25572412109375,0.01585048008263111,0.0038896278496831655,0.006357150474376976
1772649310384768300,8.265768310546875,0.03875380128622055,0.005937829083763063,-0.0029466113785281776
1772649310394812200,8.275812255859375,0.02034428437054157,0.010272789548151194,0.0036604952689260244
1772649310404856300,8.285856201171875,0.023781273081898688,-0.009905673268809914,-0.0034127675855532284
1772649310414900200,8.295900146484374,0.04427811766564846,0.001613645741716027,0.00934877003841102
1772649310424945200,8.305945068359375,0.028870120653510092,-0.007700929766148328,0.00899049465265125
1772649310434989300,8.3159892578125,0.01584755747318268,0.0028721213702112437,0.0021233122969046233
1772649310445033200,8.326033203125,0.018083353701233863,0.006024849780090153,0.017216069347411392
1772649310455077000,8.3360771484375,0.019282792618870732,0.011567213272862135,-0.01113342496547848
1772649310465121300,8.346121337890626,0.019737550649046896,0.0034816315706819295,-0.010447926919348538
1772649310475165200,8.356165283203126,0.009863806888461113,-0.008739734761975705,0.005190773576125502
1772649310485210000,8.366210205078126,0.029013328516483305,0.000021371581591665743,0.008183598716557026
1772649310495254300,8.376254150390626,0.01360357793867588,0.008948080283030867,-0.005506963385827839
1772649310505298200,8.386298095703125,0.02063888340294361,-0.0058827744282782075,-0.001262457683868706
1772649310515342300,8.39634228515625,0.019593758264183997,-0.008779847576655448,0.00081449472066015
1772649310525386200,8.40638623046875,0.01286065061688423,0.0036043446348980068,0.015749357795715332
1772649310535430100,8.41643017578125,0.035009938582777976,-0.0005592047853395343,-0.011801314289681612
1772649310545475300,8.426475341796875,0.028425299495458602,-0.0024414018027484417,0.005331460688449442
1772649310555519200,8.436519287109375,0.011664134308695792,-0.002065115836262703,-0.004191058481670916
1772649310565563100,8.446563232421875,0.0020826514929533,0.008513232529722154,-0.011069492883794009
1772649310575607300,8.456607177734375,0.015697335347533224,-0.008249905418418347,-0.0014147256361320614
1772649310585651200,8.466651123046875,0.023185645276308058,0.018217428409680724,-0.021365663307532666
1772649310595696000,8.476696044921875,0.024231939458847045,0.0025975422125309702,-0.015881313612312077
1772649310605740300,8.486740234375,0.025121581774950025,0.0005886866081506013,0.005171228625439107
1772649310615784200,8.4967841796875,0.023024317234754562,0.00190462804492563,-0.0038475057410076257
1772649310625828400,8.506828369140624,0.036196518018841745,0.0007274740243330597,-0.007284677115455269
1772649310635872000,8.5168720703125,0.028712299743294714,0.011541823103278875,-0.000856032307446003
1772649310645916200,8.526916259765626,0.013744447714090346,-0.00651109892707318,-0.0009096256582066416
1772649310655961300,8.53696142578125,0.02451367900967598,-0.0010446136821061372,-0.010060498504340648
1772649310666005200,8.547005126953126,0.031254969963431356,0.012463906384259461,0.004221380554698407
1772649310676049200,8.557049072265626,0.004473346021771431,-0.0077601491400972,0.008034472569450736
1772649310686093300,8.56709326171875,0.014489713123440742,0.004506225378066301,0.011249160299636423
1772649310696137200,8.57713720703125,0.04277063571214676,0.007910005939565598,0.005342493539117276
1772649310706181400,8.587181396484375,0.02557049458622932,0.008584726863354444,-0.00004866144731640816
1772649310716226000,8.59722607421875,-0.011542553755640983,0.010017280417121946,-0.002105776640214026
1772649310726270200,8.607270263671875,0.02765899129807949,0.005392652823776006,-0.005481207890063524
1772649310736314400,8.617314453125,0.040976153510808945,-0.0013686945373192429,-0.008539974406175314
1772649310746358300,8.627358154296875,-0.13697042988836763,0.019037074229493738,-0.01307348964996636
1772649310756402200,8.637402099609375,-0.2358773788422346,0.04782539835106581,0.000011288578994572162
1772649310766447400,8.647447265625,-0.164312610322237,0.020043365195207295,-0.02064739550296217
1772649310776491300,8.6574912109375,-0.05564999102950096,0.03308591171763837,0.09889187924889847
1772649310786535200,8.66753515625,0.27855682913959023,-0.039215208252891896,-0.06295328151388094
1772649310796579000,8.6775791015625,0.6235621066987515,-0.08110405616182834,-0.03856755799911916
1772649310806623200,8.687623291015624,0.6769038207858801,-0.07904427408780902,0.08702336320821195
1772649310816667400,8.69766748046875,0.5194318701386451,-0.07284158352278172,0.04310494570042938
1772649310826712000,8.707712158203124,-0.4814999066293239,0.08232124993186443,0.06643595426417886
1772649310836756200,8.717756103515624,-0.5812117422252893,0.05890650860741734,-0.0036491884236223996
1772649310846800400,8.72780029296875,-0.6232686767101288,0.05889047078806907,-0.17957360007911918
