time,seconds_elapsed,z,y,x
1772649369339095300,0.06409521484375,-0.0523018496453762,-0.006614193975366652,-0.006227459680102765
1772649369349139200,0.07413916015625,-0.010081833553314209,0.0026258549915626644,0.011128986252378672
1772649369359183400,0.084183349609375,0.05033317992091178,-0.023759572706744073,0.006585260141827165
1772649369369228300,0.094228271484375,0.12494564557373523,-0.020300700957141815,0.0027150493786670267
1772649369379271700,0.104271728515625,0.10087152702510356,-0.01687470856383443,0.018912150941882283
1772649369389315600,0.114315673828125,0.0041810850769281385,-0.012478007974848151,0.014839476409181951
1772649369399359700,0.12435986328125,-0.05911036061644554,0.0034739231882616873,-0.008108907778840511
1772649369409403600,0.134403564453125,-0.03490355559885502,-0.006097915016300976,-0.008783738300483674
1772649369419447600,0.144447509765625,0.041995559686422344,-0.01841675037406385,0.021308471493888644
1772649369429491700,0.15449169921875,0.027754268366098404,-0.006415675728581845,0.011606540636252612
1772649369439536600,0.16453662109375,-0.0160252521276474,-0.013808379795774817,0.001050093574821949
1772649369449580500,0.17458056640625,-0.0237894563883543,-0.012436397322826087,-0.004436977800447494
1772649369459624700,0.184624755859375,0.025014029747247694,-0.004567709774337709,-0.010771971241943538
1772649369469668600,0.194668701171875,0.051262569725513456,-0.024201288592256603,0.011280066894553601
1772649369479712800,0.204712646484375,0.05689502265453338,-0.014275522383488714,0.0030272023340687155
1772649369489756700,0.214756591796875,0.028880057525634766,-0.02190521354433149,0.010355024471506475
1772649369499800600,0.224800537109375,0.047270285218954086,-0.008435418053157628,0.017671284035313872
1772649369509845800,0.234845703125,0.0501104770809412,-0.01479227626658976,0.007665712322294712
1772649369519889700,0.2448896484375,0.01089607254564762,-0.009680741939134895,0.009271814078371972
1772649369529933600,0.25493359375,0.019123802664875983,0.0006458966881036758,-0.0035383119276724754
1772649369539977500,0.2649775390625,0.029740473747253415,-0.0061118339437991375,0.01317563485018909
1772649369550021600,0.275021728515625,0.031232173609733578,-0.004615786699764431,0.011758424996025859
1772649369560065800,0.285065673828125,0.013704115703701973,-0.021110336839593947,0.008744082143530249
1772649369570109700,0.295109619140625,0.005287000492215156,-0.009132716134935617,0.00048559155985713
1772649369580154600,0.305154541015625,0.022160393881797788,-0.0066151438234373925,0.009575491466373204
1772649369590198800,0.31519873046875,0.01793663870692253,-0.018042839027754963,0.021066789958812296
1772649369600242700,0.32524267578125,0.021502222234010694,-0.0035525413824245332,0.007073134990315884
1772649369610286600,0.33528662109375,0.028669629645347593,0.0008262582236900926,0.010114566779136656
1772649369620330500,0.34533056640625,0.03210311122536659,-0.02448693713322282,-0.003883563435077667
1772649369630374700,0.355374755859375,0.02642331202328205,-0.005561250856332481,-0.0006387180286459625
1772649369640418800,0.365418701171875,0.018031331253051758,-0.004210420769266784,0.006357406202703714
1772649369650463500,0.37546337890625,-0.0021808511704206465,-0.02670779152046889,0.005189823728054762
1772649369660507600,0.385507568359375,-0.003253448837995529,-0.011301365410909056,-0.004090210189390927
1772649369670551800,0.3955517578125,0.04147942685782909,-0.009461582763120532,0.0038578262056224045
1772649369680595700,0.405595703125,0.037301264390349385,-0.0055618719108402725,0.0019793372489511967
1772649369690639600,0.4156396484375,0.035978491353988645,-0.02398786503728479,0.007724292375426739
1772649369700683500,0.42568359375,0.012178513571619986,0.0032612302856519816,-0.004387713564932346
1772649369710727700,0.435727783203125,-0.01553074660897255,-0.0013852438133209943,0.038374081253632904
1772649369720772900,0.44577294921875,0.029492636466026304,-0.01043802657984197,0.02387801145464182
1772649369730816500,0.45581640625,0.07022445982694625,-0.01043539623133838,0.019904870039969682
1772649369740860700,0.465860595703125,0.07268354341685772,-0.01566065659895539,-0.004607731257472187
1772649369750904600,0.475904541015625,0.00281681098639965,0.0018419746048748491,0.00794586270423606
1772649369760948700,0.48594873046875,-0.032383097210526464,0.006766242731921375,0.02589291320731863
1772649369770992600,0.49599267578125,0.034791327396035195,-0.0018723332105204462,-0.00103443934796378
1772649369781037600,0.50603759765625,0.06309563086032867,-0.019748802695423364,-0.012327420523017643
1772649369791081700,0.516081787109375,0.006545476120710373,-0.008237813121825456,0.018407178828120232
1772649369801126000,0.5261259765625,-0.013361585876345634,-0.0033785730550065633,-0.011453395901154725
1772649369811169500,0.53616943359375,0.03271744373142719,-0.014399952480755745,0.01638758263401687
1772649369821213700,0.546213623046875,0.040353053176403045,-0.004192154460214078,-0.000880052503850311
1772649369831257600,0.556257568359375,0.021959318351745603,-0.0047212198356166475,0.018135211752634495
1772649369841301800,0.5663017578125,0.011935352465510368,-0.011284085482545196,0.006890252704080194
1772649369851346700,0.5763466796875,0.01881634415090084,-0.00734510206580162,0.013462744695879518
1772649369861390600,0.586390625,0.04545885188281536,-0.017580884071812033,-0.0010410334855318068
1772649369871434800,0.596434814453125,0.02763502590060234,-0.0081955814152956,-0.010049246457964182
1772649369881478700,0.606478759765625,0.06026420682668686,-0.019913126411661503,0.018151505300309508
1772649369891522600,0.6165224609375,-0.09448562538027763,-0.0013079042607918381,-0.01072533735493198
1772649369901566700,0.626566650390625,0.09408990406095981,-0.009101188485510647,-0.010607026471197604
1772649369911610600,0.636610595703125,0.09558218844532966,-0.025858115888573226,-0.00015314473509788512
1772649369921655600,0.646655517578125,-0.07128419801294804,0.010116795268841088,0.012265972659364343
1772649369931699700,0.65669970703125,-0.0026069676280021667,-0.005590440418198704,0.008883271418511867
1772649369941743600,0.66674365234375,0.17161913394331932,-0.04272332597170025,-0.0020491876147687433
1772649369951787800,0.676787841796875,-0.04760580078363418,-0.013121785771101712,-0.0015928404157049953
1772649369961831700,0.686831787109375,-0.04163432515859604,-0.009968399774096906,0.01519848244730383
1772649369971875600,0.69687548828125,0.06416413687467575,-0.010564283308014273,-0.002865527232643217
1772649369981920800,0.706920654296875,0.08063654824793338,-0.01030753206796944,0.013285634563304484
1772649369991964700,0.716964599609375,-0.022482465443015097,-0.002824263640493154,-0.0033394100883975624
1772649370002008600,0.727008544921875,0.07736731731891631,-0.012154548174142837,0.0028798845515586435
1772649370012052700,0.737052734375,0.09175766172111034,-0.03317362653370946,0.09334571636384352
1772649370022096600,0.7470966796875,0.3232575561314821,-0.07023611373212188,0.07755301261674612
1772649370032140800,0.757140869140625,0.2598281632721424,-0.056643239850550885,-0.03953620210187509
1772649370042184700,0.767184814453125,-0.14015022896826265,0.008668788417614997,0.07317748267995193
1772649370052229600,0.777229736328125,-0.40981648016572,0.020537249659374354,-0.07437173396581784
1772649370062273800,0.787273681640625,-0.2143055985033512,0.02223163248710334,-0.10224279711199924
1772649370072317700,0.797317626953125,-0.025061376020312307,-0.013295827163755892,-0.2109003566371277
1772649370082361600,0.807361572265625,-0.06831658037900924,-0.032927214024588466,-0.40627486203610896
1772649370092405500,0.817405517578125,0.12542378447949887,-0.1958844642151147,-0.342312019887194
1772649370102449700,0.82744970703125,0.21883388958275315,-0.17799816745594144,-0.29240797036485744
1772649370112493800,0.837493896484375,-0.08504208973050117,0.03854330034069717,-0.08537535853916779
1772649370122538500,0.84753857421875,-0.23562544990777967,-0.03565448356401175,0.049155605775211005
1772649370132582700,0.857582763671875,-0.04123100505471229,-0.018411526209674775,-0.07165171615108847
1772649370142626800,0.867626708984375,0.10957798057198524,0.05654233675934374,0.08147866162788123
1772649370152670700,0.877670654296875,0.12460837644338607,0.022395152485743162,0.051018988494295626
1772649370162714600,0.887714599609375,0.0667372022330761,-0.08525774177517742,0.1391881242041476
1772649370172758500,0.897758544921875,0.3133668612360954,0.046146395755559205,0.005086893076542765
1772649370182802700,0.907802734375,-0.10315876117944717,0.14419796998910606,-0.05071553030200302
1772649370192847600,0.91784765625,-0.07810556846559047,0.05768273896612226,0.3362945862285793
1772649370202891500,0.9278916015625,0.07203764672875404,0.02336666439902037,0.31610446950644255
1772649370212935700,0.937935791015625,0.030517303338646887,0.036007900111563504,0.242014255895745
1772649370222979600,0.9479794921875,0.025200492230057714,0.017873546875454484,0.13642267807880415
1772649370233023700,0.958023681640625,-0.030571079352498053,0.02040145791787654,0.13813344578575343
1772649370243067600,0.968067626953125,0.08205050669908523,0.023047917306050658,0.07686837308714166
1772649370253112600,0.978112548828125,0.04670505255162716,-0.0296843231132254,0.03988823040993884
1772649370263156700,0.98815673828125,0.021252046865224836,-0.0049142581896856425,0.013423472131416201
1772649370273200600,0.99820068359375,0.07077449492514133,-0.004895918815396726,0.026324929682724176
1772649370283244500,1.00824462890625,-0.0031868133425712584,-0.0064162967830896376,-0.006294752762652933
1772649370293288700,1.018288818359375,-0.05446048898398876,-0.008353804184310138,-0.04979010428646579
1772649370303332600,1.02833251953125,-0.005791442883014679,-0.012377579807676373,-0.07463928059451282
1772649370313376800,1.038376708984375,0.011304068824648857,-0.01976538850404322,-0.06020624782806262
1772649370323421700,1.048421630859375,0.04742985969483852,0.013095409220829605,-0.03985146032981574
1772649370333465600,1.058465576171875,0.0713116705417633,-0.02845021474100649,-0.010788502251636236
1772649370343509800,1.068509765625,0.049861470755934716,0.012580372370779514,0.09849635885898023
1772649370353553700,1.0785537109375,-0.01576689345240593,0.004254259910993278,0.0989606519024819
1772649370363597600,1.08859765625,-0.055395724007487296,-0.00021404460947960615,0.0854784718537703
1772649370373641700,1.098641845703125,0.012851298266649245,-0.0006188990833237767,0.04415871080337092
1772649370383685600,1.108685546875,0.03575871112346649,-0.005891651854477822,0.019829448449891058
1772649370393730600,1.11873046875,0.033091537740826606,0.000717902478389442,0.009182985017448663
1772649370403774500,1.1287744140625,0.041964580026268954,-0.02193078637700528,0.001780965132638812
1772649370413818600,1.138818603515625,0.03197685449719429,-0.007949497699737549,0.009034516457468271
1772649370423862500,1.148862548828125,0.007623919007182121,-0.01631528458278626,0.02136677755238488
1772649370433906400,1.158906494140625,-0.018849077376723287,-0.00015161036513745783,0.020192436543386427
1772649370443950600,1.16895068359375,0.026059739407896992,-0.013318221658654511,0.007912252695579082
1772649370453995500,1.17899560546875,0.037491818526387215,-0.009910532107017934,-0.0014781645274721084
1772649370464039700,1.189039794921875,0.07560439929962158,-0.01833703620135784,-0.0027024456254206596
1772649370474083600,1.19908349609375,0.06031272214353084,-0.02629639770798385,0.021679314100276677
1772649370484127500,1.20912744140625,0.015654665249586103,-0.013743424800783395,0.02344495379962027
1772649370494171600,1.219171630859375,-0.03145604549348354,0.011822832001745701,0.05178701372472569
1772649370504215600,1.229215576171875,-0.02129237887561321,0.01000825686044991,0.03907561711911112
1772649370514259500,1.239259521484375,0.018954291316866875,-0.004137099804729223,0.016160733341891317
1772649370524304600,1.2493046875,0.04640986899733543,-0.017868761102482675,0.014573445884138345
1772649370534348500,1.2593486328125,0.1655722549945116,-0.04689155156705528,-0.014941329348459839
1772649370544392700,1.269392822265625,0.1022334630280733,-0.016146321224048733,-0.007516421778406947
1772649370554436600,1.2794365234375,0.0164390936255455,-0.014326887244544922,-0.002754760334547609
1772649370564480500,1.28948046875,0.009887187764048577,-0.015821290520764888,0.0030768136294558645
1772649370574524700,1.299524658203125,-0.08817278897166252,0.011768106139823794,0.021593024056311697
1772649370584568600,1.309568603515625,-0.03313713044822216,0.012936784593015909,0.021801095582731068
1772649370594613500,1.319613525390625,0.062359133279323575,-0.026734496864303944,0.019047467759344724
1772649370604657700,1.32965771484375,0.13803192164003847,-0.019468378318846225,0.006917140711005776
1772649370614701600,1.33970166015625,0.11633972979187965,-0.02614577372353524,-0.011817242511175573
1772649370624745700,1.349745849609375,0.026728432449698445,-0.021657339730486273,0.024543854952231048
1772649370634789400,1.359789306640625,0.00920037454366684,-0.006377279946953058,0.045282655065692956
1772649370644833500,1.36983349609375,-0.029901801788806914,0.008441628598235548,0.01988548948606476
1772649370654877700,1.379877685546875,-0.0014788403809070586,-0.014384754911623894,0.010552885131165384
1772649370664922400,1.38992236328125,0.08478139296770096,-0.025844050830602646,0.02669111438030377
1772649370674966500,1.399966552734375,0.2077005011498928,-0.06195245217457413,0.03337280236762017
1772649370685010700,1.4100107421875,0.23706571184396744,-0.06148293496668338,0.04231989626996219
1772649370695054600,1.4200546875,0.028519407519698142,-0.005860672194324433,-0.10828549307603388
1772649370705098800,1.4300986328125,-0.1790823094308376,-0.0014714607920497656,-0.007881273035425693
1772649370715142400,1.440142333984375,-0.21725334239304064,0.05315459401719272,0.10994586403630673
1772649370725186600,1.4501865234375,0.13155541910231114,-0.03574296556506306,-0.01447984931655228
1772649370735231700,1.460231689453125,0.04046528137922287,-0.06441438530869782,-0.03431687828470021
1772649370745275400,1.470275390625,-0.005814823758602142,-0.019220139178819953,0.058092123484611506
1772649370755319600,1.480319580078125,0.09441606727540493,-0.01779182340875268,0.03473459224011749
1772649370765363700,1.49036376953125,0.02674129193127155,-0.033830519539862866,0.038935496262367815
1772649370775407600,1.50040771484375,-0.029019758257269858,-0.01645622742343694,-0.012734686149656772
1772649370785451800,1.51045166015625,-0.01824994243979454,-0.004755523964017629,-0.008713084217067808
1772649370795496400,1.520496337890625,0.024712416452169417,-0.014259521096758543,0.035837201453465965
1772649370805540600,1.53054052734375,0.04782324292659759,-0.030539880496636033,0.08762379505308344
1772649370815584800,1.540584716796875,0.08984101444482803,-0.0350323696102947,0.06530570812523365
1772649370825628400,1.55062841796875,0.07087094103693961,-0.025867358640953898,0.03830839560627937
1772649370835672600,1.560672607421875,0.19054069203436375,-0.03323847193084657,0.14031564866304397
1772649370845716500,1.570716552734375,0.039600188982486725,-0.048207566069066524,0.215343855509907
1772649370855760600,1.5807607421875,-0.36212417014241216,0.006615509149618446,-0.1302374683715403
1772649370865805600,1.5908056640625,-0.06855448078811169,0.013935074915364384,-0.3219936736755073
1772649370875849500,1.600849365234375,-0.0033148236364126202,0.026006219122372567,-0.14650231967503205
1772649370885893600,1.6108935546875,-0.1698766741901636,0.01121909395493567,0.08315048556393012
1772649370895937800,1.620937744140625,-0.15200316384732723,0.00034143384881317614,-0.04460011616162955
1772649370905981400,1.6309814453125,0.0946738414287567,0.0043108854690566654,0.02866082528438419
1772649370916025600,1.641025634765625,0.019959084445238112,0.00700775987021625,-0.0005538344904780387
1772649370926069500,1.651069580078125,-0.15732348208725452,0.00646356999091804,-0.020646336057037112
1772649370936114400,1.661114501953125,-0.09904372707605362,0.03204082311149686,-0.018496446280460804
1772649370946158600,1.67115869140625,0.1164244854658842,-0.00848714824039489,0.03477284189127385
1772649370956202500,1.681202392578125,0.11857201888859271,-0.03223386146556586,0.026437504945416003
1772649370966246700,1.69124658203125,0.1642383760422468,-0.01823394115306437,0.012509225097019225
1772649370976290600,1.70129052734375,0.2529699679404497,-0.027949060285836456,0.02553834588229656
1772649370986334500,1.71133447265625,0.15182196206152437,-0.04515380452163517,0.04491621463978663
1772649370996379600,1.721379638671875,0.013562076884508133,-0.019489421106874943,0.021223478357866404
1772649371006423600,1.731423583984375,-0.007628010660409927,0.005476166388764977,-0.004037712817173451
1772649371016467500,1.741467529296875,-0.04206453326940536,0.0009803893394768237,0.007818802258465438
1772649371026511600,1.75151171875,-0.004099836534261703,-0.021874453079886735,0.014949549187533556
1772649371036555500,1.761555419921875,0.05921089838147163,-0.022914390586875378,0.010164214607141911
1772649371046599700,1.771599609375,0.06795125419795513,-0.015361125663109123,0.0022747034663334487
1772649371056643600,1.7816435546875,0.045269466790556906,-0.024559417847543952,0.008816745520941912
1772649371066688500,1.7916884765625,-0.08923077359199523,-0.005201112307049334,0.025070143848657606
1772649371076732700,1.801732666015625,0.08434709320366382,-0.02269526794347912,0.02261440299330279
1772649371086776600,1.811776611328125,0.5335024810671806,-0.06855473651643842,0.09880816475450992
1772649371096820500,1.821820556640625,0.6231348211973905,-0.1214322671579197,0.09765747861573472
1772649371106864600,1.83186474609375,0.10819967795610427,-0.05053721459303051,0.02454980976898223
1772649371116908500,1.841908447265625,-0.05469312869608402,-0.0442784099265933,0.019663462499529123
1772649371126952700,1.85195263671875,-0.4491863675236702,0.002426971418596804,0.09100651456024497
1772649371136997400,1.861997314453125,-0.4386608818560838,0.04962908677216619,0.009864592339750379
1772649371147041500,1.87204150390625,-0.21091420249938964,0.007828026744537055,-0.10524149487079121
1772649371157085700,1.882085693359375,-0.030544191345572468,-0.014569646491855381,-0.08239901874265633
1772649371167129600,1.892129638671875,0.12972118941247462,-0.020554894913919267,0.06645141669479199
1772649371177173500,1.902173583984375,0.1859025108397007,-0.026657522637955844,0.116232415226195
1772649371187217400,1.912217529296875,0.27574235624074933,-0.04260956339892,0.07581936635770835
1772649371197261600,1.922261474609375,-0.08414484862983226,-0.018650851390883325,0.04157494138786569
1772649371207306500,1.932306396484375,-0.25904548846185205,0.028605295704863965,-0.048142775470856575
1772649371217350400,1.942350341796875,-0.08088964622616768,-0.01096040648613125,-0.13499470936860888
1772649371227394600,1.95239453125,-0.12268822203576564,0.027524076339416205,-0.0578893400546629
1772649371237438700,1.962438720703125,0.07236322542130946,-0.018122260939516126,0.014430238021165132
1772649371247482600,1.972482666015625,0.15116612850129604,-0.019160335282981396,0.09693807830000295
1772649371257526500,1.982526611328125,0.1708440579175949,-0.02120641762521118,0.06861392849092371
1772649371267570400,1.9925703125,0.02972293809056282,-0.021956213079206643,0.03258815479595214
1772649371277615600,2.00261572265625,-0.02642155845761299,-0.02190473862029612,0.021749182732403276
1772649371287659500,2.012659423828125,0.03240530904233455,0.00016538316216319798,0.01387162689086981
1772649371297703400,2.022703369140625,-0.039780806246399875,-0.005857128530368208,0.0157818900921382
1772649371307747600,2.03274755859375,-0.07952303404808043,-0.015549414776824413,-0.040387001111777496
1772649371317791500,2.04279150390625,0.023802315869927405,-0.003656842007115483,-0.0003766330263577401
1772649371327835600,2.052835693359375,0.09766016376316547,-0.007509389249421656,0.0017651191095355897
1772649371337879600,2.062879638671875,-0.021943536260724067,0.0022539894718676804,0.0316636603621766
1772649371347924500,2.072924560546875,-0.22101357170939445,0.015048625647835432,-0.07065189145877956
1772649371357968600,2.08296875,0.07055354565083981,-0.009060746877267956,0.03134485847027972
1772649371368012500,2.093012451171875,0.27958032696843144,-0.030340193206071852,0.06673872746988199
1772649371378056400,2.103056396484375,-0.02259703173339367,-0.016806392567977307,-0.007979655375983566
1772649371388101000,2.11310107421875,-0.13604220912754536,-0.00008749562036246061,-0.021998353454191235
1772649371398145300,2.123145263671875,-0.2810679351776838,0.04081303537096828,-0.03730341981481761
1772649371408190200,2.133190185546875,-0.1565963368564844,0.02892451772186905,-0.01936228759586811
1772649371418234000,2.143234130859375,-0.17716741572022437,0.046251682760939,-0.007634476933814585
1772649371428278300,2.1532783203125,0.1250812546521425,0.0032469460319727657,0.012864468275476246
1772649371438322200,2.163322265625,0.1592237627506256,-0.02039597802516073,0.042237423884589224
1772649371448366000,2.173365966796875,0.16201777738332748,-0.022689166996255516,-0.029738245257548986
1772649371458410200,2.18341015625,0.20388532677590845,-0.009291779154166579,0.03346287353755906
1772649371468454100,2.1934541015625,0.27968495638668533,-0.014842179822921752,0.036858050667494535
1772649371478499000,2.2034990234375,0.08943418720960616,-0.034265988347679376,0.037363698634691536
1772649371488543200,2.213543212890625,0.05674538505077362,-0.01944269588831812,-0.00026056889863684774
1772649371498587100,2.223587158203125,-0.02406009002327919,0.009996164563857018,0.009768091429024935
1772649371508631300,2.23363134765625,-0.024220833542943,-0.005600011964142323,0.008336104130838067
1772649371518675200,2.24367529296875,0.04254267217516899,-0.006811543178372085,0.01954774543168023
1772649371528719000,2.253718994140625,0.08436638242602348,-0.013327427878417075,0.00926735709896311
1772649371538763000,2.263762939453125,0.04840191959738731,-0.02354527236893773,-0.0011202910005114971
1772649371548808200,2.27380810546875,0.02628653390109539,-0.006865538387931883,0.024513368482422082
1772649371558852000,2.28385205078125,0.11063070449531077,-0.024383221030421554,0.014970847703889012
1772649371568896000,2.29389599609375,0.014445873981714248,-0.006658836834691465,0.008924681141134351
1772649371578940200,2.303940185546875,-0.037106034079194064,-0.005456511840224266,0.0009257182764820754
1772649371588984300,2.313984375,0.14667816943228243,-0.025679252190329134,-0.04442346268678084
1772649371599028200,2.3240283203125,0.23954583822190761,-0.04315861211642623,0.006723700498137622
1772649371609072000,2.334072021484375,0.07138356673419476,-0.02261087759565562,0.10241408029198645
1772649371619117300,2.344117431640625,-0.13994739987254143,-0.0066936158871278165,0.08989442513249814
1772649371629161200,2.3541611328125,-0.18197393921911714,-0.004646145305410027,0.0058110061000101266
1772649371639205000,2.364205078125,-0.11179974827468395,-0.011984013912826776,0.005964607492834329
1772649371649249000,2.3742490234375,-0.1142243450731039,0.010623721877671778,-0.005379227086622268
1772649371659293200,2.384293212890625,-0.07642565255463123,0.01188501051776111,-0.02667966140452772
1772649371669337300,2.39433740234375,0.14766250429451463,-0.041306664106808604,-0.03556572756832466
1772649371679381200,2.40438134765625,0.08130231868028641,-0.016058131483942268,-0.05741833414258435
1772649371689426200,2.41442626953125,-0.06809563110470772,-0.005566146227158605,-0.0022648944583721457
1772649371699470000,2.424469970703125,-0.11882803947627543,0.0027965719159692526,0.14491269412972033
1772649371709514200,2.43451416015625,-0.18938567678034304,0.04090637621022761,0.055388125222921365
1772649371719558100,2.44455810546875,-0.0159206227093935,-0.005747896002233028,-0.05780289474707097
1772649371729602000,2.45460205078125,0.09300035525858402,-0.011322846590355038,0.06117017922308295
1772649371739646200,2.464646240234375,0.10469313113987445,0.001562317413277924,0.015478176171518861
1772649371749690000,2.474690185546875,0.21778584183454514,-0.025661497337929905,0.0231602916393429
1772649371759735000,2.484735107421875,0.15690730250179766,-0.011061273044720292,0.05934111889870837
1772649371769779200,2.494779296875,0.09072013536691666,-0.013903401135466993,0.02716528949700296
1772649371779823000,2.504822998046875,0.023454525345563887,-0.022306633952073752,0.008161807009857148
1772649371789867300,2.5148671875,-0.023533435800671576,-0.0027056056968867777,0.006428626541700214
1772649371799911200,2.5249111328125,-0.049669163054227826,-0.0019445216638967393,0.006738423143234104
1772649371809955000,2.534955078125,-0.016873393389582634,-0.010660912082903087,0.005159172861464321
1772649371820000300,2.545000244140625,0.03809329155087471,-0.01531114904154092,0.00553788824705407
1772649371830044200,2.555044189453125,0.06977262440621852,-0.0011765329660847782,0.016282039900310335
1772649371840088000,2.565088134765625,0.04973287594020366,-0.021283501449413596,0.007220306642353534
1772649371850132200,2.57513232421875,0.043943186622858045,-0.01679952443577349,0.011830503851547837
1772649371860176100,2.585176025390625,0.04893441903889179,-0.012286577055975793,0.010399886526539922
1772649371870220300,2.59522021484375,0.005287585014104843,-0.025129253624752164,0.0045187925986945624
1772649371880264000,2.605263916015625,-0.016978022807836533,-0.021341880573146045,0.015307130453549325
1772649371890309000,2.61530908203125,-0.0070984338283538815,0.007054265893064439,0.0067136174955405295
1772649371900353300,2.625353271484375,0.04960428112447261,-0.009166180013120175,0.001083173860516399
1772649371910397000,2.63539697265625,0.012916180196404456,-0.001403144796192646,0.020112229180336
1772649371920441000,2.645441162109375,0.003143558722734451,-0.012373963078483938,0.009986629550531506
1772649371930485200,2.6554853515625,0.044990065327286714,-0.01499649360179901,0.02530314888693392
1772649371940529200,2.665529052734375,0.02220657111108303,-0.0056454220084473485,0.022462335970439014
1772649371950573300,2.6755732421875,0.008850245931744575,-0.005581818720325827,0.0021394049151800573
1772649371960618200,2.6856181640625,0.048913376250863075,-0.011404971915856004,0.006326901466585696
1772649371970662100,2.695662109375,0.03587853811085224,-0.01528016938138753,0.02886747203869745
1772649371980706300,2.705706298828125,-0.004842179334163666,-0.007721168836578726,0.010559187007788568
1772649371990750000,2.71575,0.0391349095582962,-0.016535137878544628,0.004669398316834121
1772649372000794000,2.725794189453125,0.022971125742793082,-0.019178236265853046,0.01436974000558257
1772649372010838300,2.73583837890625,0.031339141115546226,-0.00756795103624463,-0.003162555684149265
1772649372020882200,2.745882080078125,0.032384266254305835,-0.009376206034608184,0.005859210889600217
1772649372030927000,2.755927001953125,0.03417407228052616,-0.012150967977568506,0.011126739496365189
1772649372040971000,2.765970947265625,-0.005198153164982795,-0.010494140681251882,0.01655358685068786
1772649372051015200,2.77601513671875,0.02499766313433647,0.002381707504764199,0.002995619885716587
1772649372061059300,2.786059326171875,0.015095277801156043,0.0001400660578161478,0.02616820475105196
1772649372071103000,2.79610302734375,-0.00767886406481266,-0.006856478298641741,0.015135975137725471
1772649372081147100,2.806147216796875,0.020267712002992627,-0.007297573129646479,0.01966364516261965
1772649372091191000,2.81619091796875,0.03162438779771328,-0.004482004252262414,0.008908899050112813
1772649372101236200,2.826236328125,0.019487959802150723,-0.010367701289989054,0.01699117455035448
1772649372111280000,2.836280029296875,0.016028759258985517,-0.01676218810006976,0.01948887311760336
1772649372121324000,2.846323974609375,0.027995091384649274,-0.0024849852161481973,0.000854972861520946
1772649372131368200,2.8563681640625,0.023355741146206855,-0.007370711431093514,0.020094711789954454
1772649372141412400,2.866412353515625,0.005982581540942192,-0.008296995963156223,0.0216615775141865
1772649372151456000,2.8764560546875,0.02766366747319698,-0.020408910571970043,0.0031783560414798554
1772649372161500200,2.886500244140625,0.03647124330699444,-0.02290434411689639,0.0037619280830956995
1772649372171545300,2.89654541015625,0.008615852653980254,-0.02040719353891909,0.02533427467755973
1772649372181589200,2.90658935546875,0.02909457705914974,0.0031939372031018136,0.010570512119401246
1772649372191633200,2.916633056640625,0.034765023910999296,-0.010301358055509626,0.014212759345583617
1772649372201677000,2.926677001953125,0.010220949763059616,-0.016028284334950148,-0.0012759016873314976
1772649372211721200,2.93672119140625,0.039081718066334724,-0.0010635741109028458,0.0024145868610590693
1772649372221765000,2.94676513671875,0.011688099706172942,-0.017013788240961728,0.011257946394290775
1772649372231810000,2.95681005859375,0.009871990194916724,-0.015298508755676447,0.013529142729286103
1772649372241854200,2.966854248046875,0.020319734451174735,0.0006538607988506555,-0.0018985636303201316
1772649372251898000,2.976898193359375,0.05067337166070938,-0.010463526347279548,-0.003376874288264662
1772649372261942300,2.9869423828125,0.008920388558506966,-0.003141585961356759,0.004368369543645531
1772649372271986200,2.996986083984375,0.025965631383657452,-0.01134114943202585,0.024809191357530652
1772649372282030000,3.007030029296875,0.0036538463324308395,-0.013530951093882321,0.02815647422512993
1772649372292074200,3.01707421875,0.030430209577083586,-0.012403408368676901,0.018537782937847077
1772649372302119200,3.027119140625,0.0206786308914423,-0.008297288224101066,0.014509933927562087
1772649372312163000,3.0371630859375,0.0236544318318367,-0.009949695073626934,0.028902926944568752
1772649372322207200,3.047207275390625,0.02993102788329124,-0.008036627993918955,0.005759257646463811
1772649372332251100,3.057251220703125,0.037546763584017755,-0.005501410427875816,0.004940287680085748
1772649372342295300,3.06729541015625,0.018394903868436813,-0.0143746719090268,0.012104918612446636
1772649372352339200,3.077339111328125,0.0137421096265316,0.0077229589348658916,0.013530713631864637
1772649372362383000,3.087383056640625,0.029887773263454435,-0.0037748423635959624,0.0038216589136980473
1772649372372428300,3.09742822265625,0.025531916141510007,-0.0010733283199369907,0.010805215924419463
1772649372382472200,3.10747216796875,0.0012795184165239333,0.002617635152488947,0.021632442751247434
1772649372392516400,3.117516357421875,-0.001284194591641426,0.004719539335183799,0.005111589126382023
1772649372402560300,3.127560302734375,0.05003332019150257,0.008909867164492607,0.020351737024635077
1772649372412604400,3.1376044921875,0.01412029528915882,-0.004023739090748131,0.018721943865716455
1772649372422648000,3.14764794921875,0.018445172750949857,-0.00426244321744889,0.0016291355717927215
1772649372432692200,3.157692138671875,0.027714520877599715,0.0013573694257065652,0.014474332891218364
1772649372442737400,3.1677373046875,0.0331003055691719,-0.008657353708148002,0.007415354290418326
1772649372452781300,3.17778125,0.01319090548455715,-0.0056175476208329194,0.009004906770493835
1772649372462825200,3.1878251953125,0.020512626674771307,0.00019311141930520535,0.005092701762821525
1772649372472869400,3.197869384765625,0.01976560769975185,-0.0037766324618831275,0.013642448644340038
1772649372482913300,3.207913330078125,0.03397533483803272,0.0033410540562123056,0.006088233872503042
1772649372492957400,3.21795751953125,0.03441840243041515,0.004394143305718899,0.01322741983635351
1772649372503001000,3.2280009765625,0.029031448695063588,0.006624971097707748,0.011245616635680198
1772649372513046300,3.23804638671875,0.03127250562012195,-0.01701864707916975,0.008115702845808119
1772649372523090400,3.24809033203125,0.03949439052045345,-0.02392999737020582,0.000673880673572421
1772649372533134300,3.25813427734375,0.013453355813026428,-0.006549385110847652,0.018373678417317567
1772649372543178200,3.26817822265625,0.004172901770472527,-0.013115830954350531,0.00047138037141412496
1772649372553222100,3.27822216796875,0.02301613392829895,0.0004839110594242811,-0.0015046872082166373
1772649372563266300,3.288266357421875,0.027646131816506384,-0.010428710762225091,0.011933434503059833
1772649372573310500,3.298310546875,0.009384498938918113,-0.0028698198152706023,0.010637841734569518
1772649372583355100,3.308355224609375,0.03542202651500702,0.005748809317685663,-0.006062350512575357
1772649372593399300,3.3183994140625,0.02792787136733532,0.0026930750088766217,0.017858385838940737
1772649372603443500,3.328443359375,0.019534137031435965,-0.0033211072467267512,-0.007008052131161093
1772649372613487400,3.3384873046875,0.011444354078173636,-0.001083740116097033,0.010693024254217743
1772649372623531300,3.34853125,0.023860768058896063,-0.010483984613418578,0.01883451912840828
1772649372633575200,3.3585751953125,0.024303251129388807,0.000005808686278760433,0.012605360681563616
1772649372643619300,3.368619384765625,0.03612345278263092,-0.0036008009709417818,0.0034111601503565903
1772649372653664300,3.378664306640625,0.027288404420018196,-0.011038184430077671,0.025093506457936017
1772649372663708200,3.388708251953125,0.015762801799178123,-0.006265855461731553,0.009797755914926529
1772649372673752300,3.39875244140625,-0.004745733222365379,-0.014323708906769752,0.025975422125309705
1772649372683796200,3.408796142578125,0.04179389963448047,-0.013600034274719655,0.0028207017102278766
1772649372693840400,3.41884033203125,0.034762685823440546,-0.016250037326849997,0.010158186725154518
1772649372703884300,3.42888427734375,0.017396540480852127,-0.0065837623044848435,0.01793616378288716
1772649372713929200,3.43892919921875,0.011700959187746046,0.00020366934593766926,-0.011658325622417032
1772649372723973400,3.448973388671875,0.03339841173291206,-0.002984495703503489,0.010240805240999906
1772649372734017300,3.459017333984375,0.011993804654479027,-0.004922258833050728,0.0032595132526010272
1772649372744061200,3.469061279296875,0.003905775266885757,-0.0028461101461201904,0.002017239840235561
1772649372754105300,3.479105224609375,0.032331074762344356,-0.00022102233953773975,0.023639307327941058
1772649372764149200,3.489149169921875,0.012125906601548194,-0.00854622148387134,0.005338438418507576
1772649372774193400,3.499193359375,0.032172084808349606,-0.016434673178754747,0.0025222119539976117
1772649372784238300,3.50923828125,0.012563713496923446,-0.014578085526637733,0.02394291165070608
1772649372794282200,3.5192822265625,0.03187047151327133,0.0021268194282427428,0.009297131182719022
1772649372804326400,3.529326416015625,0.01824117461144924,-0.009980492070689797,0.004507613617554307
1772649372814370300,3.539370361328125,0.018688333857059477,-0.018086276310682294,0.017396960605960337
1772649372824414200,3.549414306640625,0.038140637823939325,-0.007113558332249522,0.012094251087959855
1772649372834458400,3.559458251953125,0.021834815189242362,-0.0020807883294299244,0.007969846368022263
1772649372844502300,3.569502197265625,0.003124269500374794,-0.006398834191635251,0.0167546806470491
1772649372854547200,3.579547119140625,0.02047112562060356,-0.0005257043745368719,0.011433631754759699
1772649372864591400,3.58959130859375,0.020457097095251082,0.0020729703491553664,0.017730302479863166
1772649372874635300,3.59963525390625,0.012674188134074211,0.0026680501654744145,0.015263784502167253
1772649372884679400,3.609679443359375,0.018346388551592825,0.0010182371318340302,0.010333780754078179
1772649372894723000,3.61972314453125,0.0160948102325201,-0.0060840326214209196,0.0055654155747964975
1772649372904767200,3.629767333984375,0.03328969066143036,-0.007450900527834892,0.004250350920855999
1772649372914811400,3.639811279296875,0.017715104910731316,-0.005126330037787556,0.002992405015323311
1772649372924856000,3.64985595703125,0.017265023055672644,-0.002729863355308771,0.016879092478007077
1772649372934900200,3.659900146484375,0.032823242193460465,-0.00029748510923236605,0.014692213425599038
1772649372944944400,3.6699443359375,0.01381049868762493,-0.011250731202214955,0.008151194284297525
1772649372954988300,3.67998828125,0.006771101570129394,0.014326229657419025,0.0027842786899767813
1772649372965032400,3.690032470703125,0.03460661847889423,-0.004015592316910625,0.013041450543887912
1772649372975076000,3.700076171875,0.02112812822461128,-0.0012419628851115703,0.017554032597504553
1772649372985120300,3.710120361328125,0.013486673560738563,-0.0022575696684420106,0.005684840703383088
1772649372995165400,3.72016552734375,0.01078501338660717,-0.009731412680447101,0.004184939268138259
1772649373005209000,3.730208984375,0.01856441521644592,-0.004632409041002392,0.019836846305057405
1772649373015253200,3.740253173828125,0.022455577436089516,0.003819558288156986,0.0038567667596973478
1772649373025297200,3.750297119140625,0.032633272579312325,-0.002085391439311206,0.01264907195912674
1772649373035341300,3.76034130859375,0.008534604111313819,-0.00553458204511553,0.022370913093630224
1772649373045385500,3.770385498046875,0.02558803024291992,-0.0029730609940364955,0.017842274954356252
1772649373055429000,3.78042919921875,0.03216156341433525,-0.009254187090136111,0.001870287383906543
1772649373065474300,3.790474365234375,0.03693301559984684,0.0033898251013830304,0.001935607705079019
1772649373075518500,3.8005185546875,0.025109891337156295,-0.006604037907533347,0.012106306851934642
1772649373085562000,3.81056201171875,0.02390928337574005,-0.0022046704374253747,-0.004389613261073827
1772649373095606300,3.820606201171875,0.021063830816745756,-0.017918116669543085,0.011996763796545564
1772649373105650200,3.830650146484375,0.0062456163913011545,-0.015848141995072364,0.005937573355436325
1772649373115694300,3.8406943359375,0.014621230548620223,0.001981419608183205,-0.0012140154322609305
1772649373125738500,3.850738525390625,0.030626608932018278,-0.0058188058139756315,0.010174188011884688
1772649373135783200,3.860783203125,-0.003488426637649536,-0.0013414777368307112,0.019679865645058452
1772649373145827300,3.870827392578125,0.017904490002989767,-0.0026458383336663244,0.010432181360945104
1772649373155871500,3.88087158203125,0.015358312651515006,-0.006241634335927665,0.002684361979458481
1772649373165915100,3.8909150390625,0.03137128981947899,-0.004124788312427699,-0.00018589622722938655
1772649373175959300,3.900959228515625,0.008165186277031899,-0.00017849837206304072,-0.00386299557108432
1772649373186003200,3.911003173828125,0.006057400342822075,-0.007056202121824026,-0.008700042072404176
1772649373196047400,3.92104736328125,0.02535188339948654,-0.002110379750095308,0.0017463504769839346
1772649373206092300,3.93109228515625,0.012623334729671478,-0.004383366183377802,0.003406922366656363
1772649373216136200,3.94113623046875,0.023244097465276718,-0.003941906026192009,-0.001550517377629876
1772649373226180400,3.951180419921875,0.018009703943133355,-0.01455247616134584,0.01027525549987331
1772649373236224300,3.961224365234375,0.029537060129642485,-0.013215163142979144,-0.008527571582328527
1772649373246268200,3.97126806640625,0.032978140494227405,0.0015740078510716557,-0.004698624411318451
1772649373256312300,3.981312255859375,0.021149755534529684,0.004241948418691754,-0.003551354072336107
1772649373266356200,3.991356201171875,0.016368366476893423,-0.0009436375256627798,0.006862067789211869
1772649373276401400,4.0014013671875,0.020108137527108192,-0.003993124756775796,0.0034021000610664487
1772649373286445300,4.0114453125,0.029236031356453893,-0.0004053293978795409,0.002959562191646546
1772649373296489200,4.0214892578125,0.02563888364732265,0.007843735770322382,-0.016109386747144162
1772649373306533400,4.031533447265625,0.03385609237253666,-0.00797711635902524,-0.0030605931470170616
1772649373316577300,4.041577392578125,0.01574409709870815,-0.0025748919893056155,0.006293547186255455
1772649373326621200,4.05162109375,0.008707038068771362,0.006149462540447711,0.000829400028847158
1772649373336665300,4.061665283203125,0.01993745713531971,-0.0001337459148839116,0.007727288050111383
1772649373346710300,4.071710205078125,0.02547346395254135,-0.0029342633536085486,0.00929300299687311
1772649373356754200,4.081754150390625,0.017387772652506826,-0.006730185037851333,-0.01333955670762807
1772649373366798300,4.09179833984375,0.025910686326026916,0.0020588687585666775,0.00009902166137471794
1772649373376842200,4.10184228515625,0.024567455023527144,0.0033182942351326346,0.003654430854320526
1772649373386886000,4.111885986328125,0.025905425629019735,-0.004634053008817136,0.0002629069861955941
1772649373396930000,4.121929931640625,0.021418051081895827,-0.00995586908608675,0.009299670199677347
1772649373406974000,4.131973876953125,0.006162029761075973,-0.012325338163785636,0.006053948010411113
1772649373417019000,4.142018798828125,0.021419804647564888,0.005735438379459083,0.005596906691603362
1772649373427063000,4.15206298828125,0.026959903118014335,-0.005715418504737317,0.012301719826180488
1772649373437107000,4.16210693359375,0.0063087447553873055,-0.0066100292569026345,0.027519564561080186
1772649373447150800,4.17215087890625,0.017678280031681058,-0.014096549087390303,0.002393945931829512
1772649373457195000,4.182195068359375,0.03922609497308731,0.00650974722020328,-0.0015688567519187926
1772649373467239000,4.192239013671875,0.029348844081163405,-0.001781330458819866,0.008288173335883766
1772649373477283000,4.202282958984375,0.0112368488073349,-0.01758059181086719,0.018495423367153853
1772649373487328000,4.212327880859375,0.007635609444975853,-0.00022547931894659995,0.022879081811476496
1772649373497372000,4.222371826171875,0.045646483409404755,0.0009319105552509427,-0.004172244183346629
1772649373507416000,4.232416015625,0.026332126608490942,0.010387976893037557,0.0030711510736495255
1772649373517460000,4.2424599609375,0.004618307450413704,0.0008326148992404341,0.005460822689160704
1772649373527504000,4.25250390625,0.015229717835783958,-0.00718085141479969,0.015550382891204207
1772649373537548000,4.262548095703125,0.025402736803889273,-0.0038051279040053486,0.0058957069750875234
1772649373547592000,4.272592041015625,-0.001985036337375641,-0.007460216345451772,-0.000381236136239022
1772649373557636900,4.282636962890625,0.025696166792511937,-0.01767524782437831,0.014575802238006143
1772649373567680800,4.2926806640625,0.02854337291717529,0.002801248091086745,0.016496413303352893
1772649373577725000,4.302724853515625,0.02211421665251255,-0.010338073336705564,-0.004933492613118142
1772649373587769000,4.31276904296875,-0.00466857633292675,-0.004669745376706123,0.013091244502365589
1772649373597813000,4.32281298828125,0.005646481454372406,-0.005288680992648005,0.012794362181331962
1772649373607857000,4.33285693359375,0.0010012859970331192,0.0030986966677010058,0.012262995250988751
1772649373617902000,4.342902099609375,0.026292963641881942,-0.0002329685056582093,0.0076617302669212215
1772649373627946000,4.352946044921875,0.041110593545436856,-0.008616912099905312,0.01886935297977179
1772649373637990000,4.362989990234375,0.017162147203087806,-0.0038814080106094476,0.025522435927111654
1772649373648033800,4.37303369140625,0.03466507066786289,0.007834310354851185,0.017492822195868937
1772649373658078000,4.383077880859375,0.018956044882535935,-0.017618695331551134,0.005763805957417935
1772649373668122000,4.3931220703125,0.009222001853585243,-0.007933532945625484,0.012103512106649577
1772649373678166000,4.403166015625,0.009513093754649161,-0.011944850946217774,0.010203852497786282
1772649373688211000,4.4132109375,0.031515082204341884,-0.00360105669926852,0.013481650325749068
1772649373698255000,4.423255126953125,0.026880992662906646,-0.007383972771465778,0.0041508543354459105
1772649373708299000,4.433299072265625,0.01789572217464447,0.004186674567498267,-0.0027701770993880928
1772649373718343000,4.443343017578125,-0.0012637363255023955,0.0060078986452892415,0.007827204760629683
1772649373728386800,4.45338671875,0.02119184111058712,0.0021848697584122417,-0.0061400736575946205
1772649373738431000,4.463430908203125,0.029125556719303128,0.0007054083229973912,0.011952066138293593
1772649373748475000,4.473474853515625,0.014169395127892493,-0.008980228986963629,0.02207582087088376
1772649373758519800,4.483519775390625,0.010429624077677726,0.0014724106401205062,0.009645835022535175
1772649373768564000,4.49356396484375,0.021647183662652968,-0.012093940560705958,0.023453758160583673
1772649373778607900,4.50360791015625,0.026131635600328443,-0.002087656461633742,0.01516310060666874
1772649373788652000,4.513652099609375,0.007879355072975158,0.002246938676573336,0.006910656171292066
1772649373798696000,4.523696044921875,0.016712065348029135,-0.0008678688757121563,0.008475037677492947
1772649373808739800,4.53373974609375,0.031686931639909745,-0.006671842446736991,0.00957214873181656
1772649373818784000,4.543783935546875,0.0083481416285038,-0.014121720061264931,0.009537698472943156
1772649373828829000,4.553828857421875,0.0002601122409105301,0.0008798150418326258,0.013797255613561718
1772649373838872800,4.563872802734375,0.043503041639924044,-0.0016141571983695029,0.012316351139731705
1772649373848917000,4.5739169921875,0.03167816381156444,-0.007255999010242521,0.005358001635503024
1772649373858961000,4.5839609375,0.003391396003961563,-0.017064130188710988,0.0040829949973151085
1772649373869005000,4.594005126953125,0.01670095943212509,-0.016880151923932135,0.007432707284018397
1772649373879049000,4.604049072265625,0.039298575687408445,0.0003305471286177635,-0.0011510514649562538
1772649373889092900,4.6140927734375,0.016409283009171483,0.020775478862039745,0.0019266389473341404
1772649373899138000,4.624137939453125,0.004133154281973838,-0.006644406450539827,0.01885231051342562
1772649373909182000,4.634181884765625,0.021945289826393127,0.001726093140244484,-0.00042030777130275964
1772649373919225900,4.644225830078125,0.01745557719171047,-0.012445457412116228,0.020304957007151094
1772649373929270000,4.65427001953125,0.008030161720514297,0.001106025013141334,-0.0039975269372574986
1772649373939314000,4.66431396484375,0.01401098969578743,0.0050405514504760504,0.022701186227612195
1772649373949358000,4.674358154296875,0.013109656941890716,0.002188084628805518,0.0057737062969245015
1772649373959401700,4.684401611328125,0.006373626685142517,-0.000902026873640716,0.014764164416957645
1772649373969447000,4.694447021484375,0.027163316735625265,-0.0029048180634155866,0.0019618746574968098
1772649373979491000,4.704490966796875,0.031197102296352384,0.005853219540230929,0.0008258928975090384
1772649373989535000,4.714534912109375,0.018028993165493012,-0.01360229929704219,0.021626634064968675
1772649373999579000,4.724578857421875,0.011734276935458183,-0.014543489137291907,-0.003397953608911484
1772649374009623000,4.734623046875,0.026847090393304823,-0.0017680691184476017,0.004620590739045292
1772649374019667000,4.7446669921875,0.04076397206485271,0.002991108107380569,0.010106164276972413
1772649374029711000,4.754711181640625,0.013977671948075294,0.012411226348951459,0.0027146109872497617
1772649374039756000,4.764756103515625,0.018026070556044577,-0.0037756826138123866,-0.0019328494924120603
1772649374049800000,4.774800048828125,0.03479366548359394,-0.016156258096173406,-0.0028711167232133446
1772649374059844000,4.784843994140625,0.009209726893901824,-0.02293459312468767,0.0019898769092746077
1772649374069888000,4.794887939453125,0.01129822360575199,-0.0019788988575339317,0.010872764735296367
1772649374079932000,4.804931884765625,0.022228198421001433,0.0006594502894207835,0.019856391255743802
1772649374089975800,4.814975830078125,0.0056219315350055695,-0.014622545722872018,0.008890066485479473
1772649374100020000,4.82502001953125,0.026125790381431577,-0.008896350095793605,-0.00047896088967099785
1772649374110065000,4.83506494140625,0.031516835770010944,-0.007051087555289268,0.013570954310707747
1772649374120108800,4.84510888671875,0.026425065588951108,-0.011880443940497934,0.01031191598214209
1772649374130153000,4.855153076171875,0.00800736536681652,-0.01347538498174399,0.0036296800055541094
1772649374140197000,4.865197021484375,0.03194119866192341,-0.0037646497631445524,0.02407157953167334
1772649374150241000,4.875240966796875,0.030897827088832854,-0.0021289748527109622,-0.0058678873864002525
1772649374160285000,4.885284912109375,0.03374854034483433,0.0009864172214642166,-0.0056023135190829635
1772649374170328800,4.895328857421875,0.013104396244883536,-0.015186024824529885,0.010183686492592096
1772649374180374000,4.9053740234375,0.019378654208779333,0.008564085934124886,0.0014294482812285422
1772649374190418000,4.91541796875,0.02072305455505848,-0.01641706445682794,-0.002078505040798336
1772649374200461800,4.9254619140625,-0.0009779051214456557,-0.0014941110152751206,0.018496976003423333
1772649374210506000,4.935506103515625,0.04242576779723167,0.005550218005664647,0.01454263062076643
1772649374220550100,4.945550048828125,0.04168225595355034,-0.006319302682019769,-0.009319178617745637
1772649374230593800,4.95559375,-0.006058569386601448,0.001647365348227322,0.004261694298777729
1772649374240638000,4.965637939453125,0.010703764843940734,-0.0005977832300588489,-0.002351549828518182
1772649374250683000,4.975682861328125,0.044378070908784865,-0.0031277766317129134,0.012867756211105733
1772649374260727000,4.98572705078125,0.01025952820777893,-0.004406016406603157,-0.0014028160026296973
1772649374270771000,4.99577099609375,0.0021662381231784818,-0.013233502517268061,-0.005811115697864443
1772649374280814800,5.00581494140625,0.03538052546083927,-0.010393420253135263,-0.00018328414503484964
1772649374290859000,5.01585888671875,0.009339490753412246,-0.004692505197785794,-0.006770626646094024
1772649374300903000,5.02590283203125,0.01157704054713249,-0.001072561134956777,-0.0037028913722373545
1772649374310946800,5.03594677734375,0.022942484170198438,0.0075636767199262975,0.008363284398708492
1772649374320992000,5.045991943359375,0.042999183771014214,-0.012587496231310068,0.004918057581968605
1772649374331036000,5.056035888671875,-0.007884615769982338,0.011440372022800146,-0.003564451015926897
1772649374341080000,5.066080078125,-0.007133505141735077,0.008628456407226622,-0.003532375377230346
1772649374351124000,5.0761240234375,0.04389993200302124,-0.0020115224855020643,0.007342581315152347
1772649374361168000,5.08616796875,0.04105915561914444,0.0008871946306899189,0.02520114981718361
1772649374371212000,5.0962119140625,0.003939677536487579,-0.0032174642091616986,-0.010173329495359212
1772649374381256000,5.106255859375,0.02397591887116432,-0.017823204927705227,0.00893352203471586
1772649374391301400,5.11630126953125,0.05419979222118854,-0.012553192102909087,0.016057492163125426
1772649374401345500,5.126345458984375,0.004517769685387611,-0.0009714023154228926,-0.0038232115499675272
1772649374411389400,5.136389404296875,0.008403086686134337,0.00993237861264497,-0.007188395400438457
1772649374421433300,5.146433349609375,0.048501872840523715,-0.014306757771968841,0.013287205465883016
1772649374431477500,5.1564775390625,0.006315759018063545,-0.009021803106367587,0.01189871024955064
1772649374441521400,5.166521484375,0.006464812099933624,-0.013157660802081226,0.0049652211919426915
1772649374451565600,5.176565673828125,0.03489946394562721,-0.0015337489059194921,0.008441884326562284
1772649374461610500,5.186610595703125,0.023832711008191107,-0.00845251531843096,0.013121402178611605
1772649374471654400,5.196654296875,0.034006314498186106,-0.001274513447843492,0.012881748203840106
1772649374481698600,5.206698486328125,0.008567337337136268,0.01125427486617118,0.019219883450493216
1772649374491742500,5.216742431640625,0.037602877685427666,0.00241506178509444,-0.005115498116519302
1772649374501786400,5.226786376953125,0.03566343405544758,-0.0036287484237924215,-0.0017027305309660731
1772649374511830500,5.23683056640625,0.018308394628763196,-0.0003424567621201277,0.009621760027203708
1772649374521874400,5.24687451171875,0.011567688196897507,-0.007491597864404321,0.006286112798471004
1772649374531919400,5.25691943359375,0.04030044620633125,-0.0005872253034263849,-0.0010661313941702246
1772649374541963300,5.26696337890625,0.014563947403430939,-0.003300502850115299,0.026157226699311285
1772649374552007400,5.27700732421875,0.03491641508042812,-0.004092128151841462,-0.009468688357342034
1772649374562051600,5.287051513671875,0.03866612300276756,-0.010315788439661263,0.0026805260545574128
1772649374572095500,5.297095458984375,0.023706454280018805,-0.00461659041736275,0.009009290684666485
1772649374582139400,5.307139404296875,0.012778817552328108,0.009247026696987449,-0.003081124478392303
1772649374592183300,5.317183349609375,0.027292496073246,-0.006630158729478717,0.020193313326220957
1772649374602228500,5.327228515625,0.009487374791502952,-0.012665785631909966,0.009523231556173413
1772649374612272400,5.3372724609375,0.026548399707674978,0.0008192074283957481,0.004722882069740444
1772649374622316300,5.34731640625,0.020258359652757643,-0.0009138634419068694,0.007940510675683616
1772649374632360400,5.3573603515625,0.02399988426864147,-0.011053528129681944,-0.006191675980668515
1772649374642404600,5.367404541015625,0.03252747411727905,-0.008822225413657724,0.010768062251806258
1772649374652448500,5.377448486328125,0.013220716100931167,-0.001918839233368635,-0.0020503749248571694
1772649374662492400,5.387492431640625,0.030137364110350607,-0.005854607779718935,-0.005878481845650822
1772649374672537600,5.39753759765625,0.03208031487166881,-0.003309818667732179,0.022923980399128047
1772649374682581500,5.40758154296875,0.02534019296169281,0.002355440552346408,0.003769106742553413
1772649374692624400,5.417624267578125,0.028785949501395222,-0.006997676867619157,0.00363481283839792
1772649374702669300,5.42766943359375,0.015323825860023498,-0.011248320049419998,0.012238372266385704
1772649374712713500,5.43771337890625,0.02324702007472515,-0.008548559571430086,-0.0058596310147084295
1772649374722757400,5.44775732421875,0.013514146089553833,0.004010185489431023,0.003882814516406506
1772649374732801500,5.457801513671875,0.03536532789170742,-0.004305259445868432,0.013916899937856941
1772649374742845400,5.467845458984375,0.03223170604109764,0.005172543799690902,0.02393650017622858
1772649374752889300,5.477889404296875,0.018767244312167166,0.004373027452453971,0.010928641374688595
1772649374762933500,5.48793359375,0.018470891714096067,-0.008865370435640216,0.006414872010983526
1772649374772978400,5.497978515625,0.028190321695804595,-0.002723214418813586,0.017523600926622748
1772649374783022300,5.508022216796875,0.023545710760354995,0.0032051892494782803,0.009092292793001978
1772649374793066500,5.51806640625,0.004386836782097816,-0.004525770328752696,0.004352824914641678
1772649374803110400,5.5281103515625,0.023992285484075546,0.0010630261216312646,0.015051402126811443
1772649374813154600,5.538154541015625,0.02969020486474037,-0.005406425620801746,-0.0008523973119445145
1772649374823198500,5.548198486328125,0.0024584990680217743,0.001866378393769264,-0.01524095161585137
1772649374833242400,5.558242431640625,0.028787703067064283,-0.0022108444498851894,-0.003766275464650243
1772649374843287600,5.56828759765625,0.02938742252588272,0.002897109680995345,0.017849745874758807
1772649374853331500,5.57833154296875,0.023407179072499274,-0.0067245590146630995,-0.010764500321540981
1772649374863375400,5.588375244140625,0.018324176719784736,-0.007564407372288405,-0.00896221840623766
1772649374873419500,5.59841943359375,0.05364741903543472,0.002157579892687499,0.007705825136974454
1772649374883463400,5.60846337890625,0.015635376027226446,0.0027176614608615634,0.002520641051419079
1772649374893507600,5.618507568359375,0.017878771039843557,-0.005907799271680414,0.0013745580225251613
1772649374903551200,5.62855126953125,0.021177228063344954,0.0004053659304976463,0.00035613822760060425
1772649374913596400,5.638596435546875,0.025361820271611213,-0.006996471291221678,0.019441599909774957
1772649374923640600,5.648640625,0.03074409783184528,-0.013579795204289256,0.01463092995872721
1772649374933684200,5.658684326171875,0.013838555738329886,-0.022759126959927378,0.012722064130101352
1772649374943728400,5.668728271484375,0.02730652459859848,-0.0014787307830527424,0.017141013083513824
1772649374953772500,5.6787724609375,0.02701192556619644,0.0024669381028041243,0.005931088815722614
1772649374963816400,5.68881640625,0.02447276247739792,-0.013682671056874096,0.004491630597133189
1772649374973860600,5.698860595703125,0.0018733926564455032,0.0034058263881132003,-0.0005380158668383955
1772649374983905500,5.708905517578125,0.030152561679482458,0.00006469926666468381,0.008243640074413269
1772649374993949400,5.718949462890625,0.023267478340864182,-0.009548603459447622,0.006434690956305712
1772649375003993600,5.72899365234375,0.014136661902070045,-0.00460018727183342,0.004692286002077162
1772649375014037200,5.739037353515625,0.02595803259909153,0.002641819745674729,0.005133088572137057
1772649375024081400,5.749081298828125,0.02011865892112255,0.007521152752451598,-0.0012811258517205714
1772649375034125600,5.75912548828125,0.018320669588446616,-0.015745120012015102,0.0004250752779655158
1772649375044169500,5.76916943359375,0.02549567578434944,-0.021846651757508516,-0.0017398842035792766
1772649375054214400,5.77921435546875,0.04974339733421802,0.002341302429139614,0.02399487929996103
1772649375064258300,5.78925830078125,0.0244604875177145,-0.009690130821987986,0.016629684294201433
1772649375074302500,5.799302490234375,0.021613865914940834,-0.01685326391700655,0.0014107618470676243
1772649375084346600,5.8093466796875,0.02042319482564926,0.0057183776468038554,0.009395367392804473
1772649375094390300,5.819390380859375,0.0159293905377388,-0.002566964411176741,0.007166804623138159
1772649375104434400,5.829434326171875,0.012185527834296226,-0.010516571708768605,0.009861614931374788
1772649375114478300,5.839478271484375,0.022058102551102635,-0.005158186480775475,0.006509016567841172
1772649375124523500,5.8495234375,0.0274450562864542,-0.004236030134558678,0.014191278166137635
1772649375134567400,5.8595673828125,0.02968845129907131,0.0036708339998498558,0.0169481025936082
1772649375144611300,5.869611328125,0.01622866574525833,-0.008634082430414854,0.013578881888836622
1772649375154655500,5.879655517578125,0.029095746102929112,-0.018543518558889627,0.02092173719862476
1772649375164699600,5.88969970703125,0.025355975052714346,-0.009758008426427841,0.0008338204756379127
1772649375174743300,5.899743408203125,0.02715396438539028,-0.002113923414051533,0.012027907853480428
1772649375184787500,5.909787353515625,0.019523615637421606,-0.0003577639291062951,0.0033193536810576913
1772649375194832600,5.91983251953125,0.029101006799936293,0.002626731774397194,0.015444931489042937
1772649375204876500,5.92987646484375,0.009198036456108092,-0.004538922071270645,0.002718556510005146
1772649375214920400,5.93992041015625,0.00710544809103012,-0.005576375360228121,0.003410813090484589
1772649375224964400,5.94996435546875,0.00934767405986786,-0.0010607245666906238,0.017602036457695067
1772649375235008500,5.960008544921875,0.025956863555312154,-0.009579144728183745,0.0020341544424183665
1772649375245052400,5.970052490234375,0.020566402688622473,0.005053301334194839,0.010041483276616782
1772649375255096300,5.980096435546875,0.032980478581786155,-0.02357168545182794,0.005840305259730666
1772649375265141500,5.9901416015625,0.011133388432860374,-0.00866900761332363,0.017070578195806593
1772649375275185400,6.000185302734375,0.023251111727952956,-0.00046882308814674614,-0.017207301519066093
1772649375285229600,6.0102294921875,0.02100830123722553,-0.006471205308102071,0.006325969884824007
1772649375295273500,6.0202734375,0.01786123538315296,-0.00034815585054457184,0.01612314127786085
1772649375305317400,6.0303173828125,0.019198621466755866,0.013814151949435471,0.007112005695980042
1772649375315361500,6.040361572265625,0.03445405826568603,-0.007688910534791648,0.014980802842322736
1772649375325405400,6.050405517578125,0.02232932070791721,-0.0014626564310863614,0.006772416744381189
1772649375335450400,6.060450439453125,0.021730185770988463,-0.006825827432051301,0.008595558784622698
1772649375345494500,6.07049462890625,0.02442600072622299,-0.007883665921911597,0.00012375424383208154
1772649375355538400,6.080538330078125,0.017993921852111815,-0.022730229659005997,0.0022624833055771886
1772649375365582600,6.09058251953125,0.0259200386762619,-0.00678761431351304,-0.000025152707565575835
1772649375375626500,6.10062646484375,0.007953589352965354,-0.0025562603540718555,0.017773301371373236
1772649375385670100,6.110670166015625,0.0039139585733413695,0.008330167580395937,0.0005352028552442789
1772649375395714300,6.12071435546875,0.02770458400547504,-0.006474602841585874,0.008560432672314345
1772649375405759200,6.13075927734375,0.01214227321445942,0.0059286593966186045,0.007026007912959903
1772649375415803100,6.14080322265625,0.02350654779374599,0.002721606983616948,-0.006750497173517942
1772649375425847300,6.150847412109375,0.025152561435103415,-0.005470321169868111,0.0054387021888978775
1772649375435891500,6.160891357421875,0.0287391877502203,-0.013422412685491145,-0.0042132337808609005
1772649375445935400,6.170935302734375,0.017968202888965605,-0.002259104038402438,0.00910991978123784
1772649375455979300,6.180979248046875,0.03293663944005966,-0.007470993467792868,0.022221257223561403
1772649375466023200,6.191023193359375,0.022463760742545125,-0.004806779227219522,0.017586656225472688
1772649375476068400,6.201068359375,0.009441782084107399,-0.009734335289895533,-0.009171404177509248
1772649375486112300,6.2111123046875,0.02246843691766262,-0.0020883505813777447,0.006615984073653817
1772649375496156200,6.22115625,0.014089315629005431,-0.003458360292948782,-0.0037382914791814982
1772649375506200300,6.231200439453125,0.019335399588942526,-0.0045000148329883815,-0.012369707028474657
1772649375516244200,6.241244140625,0.019042554122209548,-0.0177440387442708,-0.0017829378940165041
1772649375526288400,6.251288330078125,0.012754267632961272,-0.004971395204402506,0.006697250882629305
1772649375536332300,6.261332275390625,0.013649170646071433,-0.006882781783677637,0.000992481636069715
1772649375546377200,6.271377197265625,0.015747019708156586,-0.012292385742254554,-0.00582642286485061
1772649375556421400,6.28142138671875,0.013200842356681824,-0.018238434665091334,0.014516272336803375
1772649375566465300,6.29146533203125,0.017234627917408943,-0.007993811765499412,-0.005803699576389044
1772649375576509200,6.30150927734375,0.020218612164258954,0.007882825671695173,0.0010605053709819912
1772649375586553300,6.31155322265625,0.04236263943314552,-0.0016514204688370226,0.011081767843477428
1772649375596597200,6.32159716796875,0.039673254218697544,0.0026455826053395867,-0.0011223733597435057
1772649375606641400,6.331641357421875,0.025306875213980673,-0.009342011504061519,0.003133512252755463
1772649375616686300,6.341686279296875,0.025604396855831144,-0.014786431047692894,0.009842069980688392
1772649375626730200,6.351730224609375,0.027548516660928724,0.004669087789580226,0.002171498820185661
1772649375636774400,6.3617744140625,0.022159224838018417,-0.0012469313211739062,-0.004225161680672318
1772649375646818300,6.371818359375,0.01886953564286232,0.004395495012588799,0.001619874553103
1772649375656862200,6.3818623046875,0.019916998869180677,-0.006841682588309049,0.01911529056485742
1772649375666906400,6.39190625,0.023660277050733564,-0.01348031688518822,0.003388619524985552
1772649375676950300,6.4019501953125,0.027106618112325665,0.0020322364799678326,0.0009312712344340979
1772649375686995200,6.4119951171875,0.014241291320323942,-0.011228921229206025,0.017946118921320885
1772649375697039400,6.422039306640625,0.013783026158809662,-0.006246164380572736,-0.012885547596123068
1772649375707083300,6.432083251953125,0.019769699352979658,-0.002122472046688199,0.00603685074513778
1772649375717127400,6.44212744140625,0.007504676541686057,-0.001823050708696246,-0.004508508666697889
1772649375727171000,6.452171142578125,0.022323475489020347,0.006150521986372768,-0.005153071914240717
1772649375737215200,6.46221533203125,0.019781974312663077,-0.00905530351717025,0.023640238909702748
1772649375747259400,6.47225927734375,0.021878654330968854,-0.0009073971685022115,0.000809526284597814
1772649375757304000,6.482303955078125,0.0036240357160568235,-0.00021751520819962024,0.00209527351250872
1772649375767348200,6.49234814453125,0.03758884916007518,-0.016920118608139453,0.008975114420428872
1772649375777392400,6.502392333984375,0.014539982005953788,-0.0015645824356004595,-0.0071761021744459865
1772649375787436300,6.512436279296875,0.012589432460069655,-0.012246902632713318,-0.001967829474247992
1772649375797480400,6.52248046875,0.01423486157953739,-0.0039237493149936195,0.0050625075539574025
1772649375807524000,6.532524169921875,0.03114683341383934,-0.010111388441361486,-0.003609861060231924
1772649375817569300,6.5425693359375,0.03413140218257904,-0.010723419392481446,0.009511833379324526
1772649375827613400,6.552613525390625,0.009441197562217712,-0.00396904976144433,0.004475793707184493
1772649375837657000,6.562656982421875,0.02290682833492756,-0.005755640917271375,0.014145192268397657
1772649375847701200,6.572701171875,0.01676934849321842,-0.01062131072487682,0.006868022605963051
1772649375857745200,6.5827451171875,0.016322189247608185,-0.01038779422994703,-0.0005120594416745007
1772649375867789300,6.592789306640625,0.0281377147257328,-0.0006234656605869531,0.000979567355569452
1772649375877833500,6.60283349609375,0.03173077078163623,-0.014067067264579236,-0.006852039585541933
1772649375887878100,6.612878173828125,0.022600538864731786,-0.014048654825054109,0.004757131399214267
1772649375897922300,6.62292236328125,0.002090250277519226,-0.005337561635673046,-0.000967091466486454
1772649375907966500,6.632966552734375,0.02109071882367134,-0.002883592612296343,0.015017792118154466
1772649375918010000,6.643010009765625,0.03529518526494503,-0.0015238120337948203,0.0012851627060212194
1772649375928054300,6.65305419921875,0.029759178447723387,-0.0019497092956677078,0.005684566708747297
1772649375938098200,6.66309814453125,0.016586977663636208,-0.013880129857733845,0.002471358549594879
1772649375948142300,6.673142333984375,0.007459083834290504,-0.021597462769411505,-0.009063432024698705
1772649375958187300,6.683187255859375,0.02227496017217636,0.011743483155220747,0.015190189542993903
1772649375968231200,6.693231201171875,0.03948094651699066,0.0013712152879685163,0.011851126514468341
1772649375978275300,6.703275390625,0.022126491612195966,-0.003470416056923568,0.021308672423288225
1772649375988319500,6.713319580078125,0.02556640293300152,-0.004684285358712077,-0.000023892332240939138
1772649375998363100,6.723363037109375,0.010299860218167305,0.0029907427811995146,0.010088920881226659
1772649376008407300,6.7334072265625,0.012993337085843085,0.003264554753899574,0.002547364661563188
1772649376018451200,6.743451171875,0.0379933383077383,0.016392624135315417,-0.0030858554524369535
1772649376028496400,6.753496337890625,0.030825346374511717,0.010247399378567933,0.0007581066246144473
1772649376038540300,6.763540283203125,0.021850012758374213,-0.00044102176576852795,0.0040602899751625956
1772649376048584200,6.773584228515625,0.026928923457860944,-0.0009416282316669822,0.001509418182261288
1772649376058628400,6.78362841796875,0.013152327039837836,-0.004512910847179591,0.00921988296173513
1772649376068672300,6.79367236328125,0.028254034581780434,0.0022786855217069384,0.006033106151781976
1772649376078716200,6.803716064453125,0.01418342365324497,-0.002880231611430645,0.01946808605790138
1772649376088760300,6.81376025390625,0.013871873486042022,0.004325644646771252,-0.008509579267911613
1772649376098805200,6.82380517578125,0.023460370564460754,-0.0010475362915545702,-0.010846150723006575
1772649376108849400,6.833849365234375,0.0414268198877573,-0.004722096618451178,0.02303726804787293
1772649376118893300,6.843893310546875,0.014947393763065336,-0.00331124343983829,0.015335388433653861
1772649376128937200,6.853937255859375,0.0023830957442522046,-0.0032691943963989614,-0.011293638762179762
1772649376138981400,6.8639814453125,0.01749707824587822,-0.004932597563974559,-0.008322112138103693
1772649376149025300,6.874025390625,0.02542904028892517,-0.006745930596254766,0.009214275204855947
1772649376159069200,6.884069091796875,-0.00165828860104084,-0.004729220478981733,0.010573014603741467
1772649376169114400,6.8941142578125,0.011061492240428924,0.0010902794547379016,0.007118161442130804
1772649376179158300,6.904158203125,0.02154080067873001,0.00001910655926913023,0.0011346848520450293
1772649376189202400,6.914202392578125,0.004326631027460098,-0.03116195791773498,0.004518189810495823
1772649376199246000,6.92424609375,0.033059389036893844,-0.02019340465776622,0.009789700472634284
1772649376209290200,6.934290283203125,0.028571429967880247,-0.0011616641905158758,-0.009256232916750014
1772649376219334400,6.94433447265625,0.026188334223628044,-0.013112762214429675,0.008125146527588367
1772649376229378300,6.95437841796875,0.027079730105400084,-0.010082892999239266,0.013793584085442125
1772649376239423200,6.96442333984375,0.012116554251313208,-0.006348346113413572,0.005876253355946392
1772649376249467400,6.97446728515625,0.02933072390258312,0.0017460399497300385,0.014960271510947495
1772649376259511300,6.98451123046875,0.01661035853922367,-0.00873651989158243,0.012060220954194664
1772649376269555500,6.994555419921875,0.010015782579779624,-0.0139156030299142,0.0014210275127552448
1772649376279599000,7.00459912109375,0.035001170754432674,0.0061879313873127095,0.008408073388505726
1772649376289643300,7.014643310546875,0.026022330006957053,0.002378602232225239,0.010774400661047548
1772649376299687400,7.0246875,0.02242401325404644,0.0030772885534912347,0.005624726280290633
1772649376309732000,7.034732177734375,0.02331716270148754,-0.003987790994532406,-0.003019585283193737
1772649376319776300,7.0447763671875,0.028249942928552627,-0.01023245753776282,0.02077591725345701
1772649376329820400,7.0548203125,0.022109540477395058,-0.005259126104600728,0.0025355646259151397
1772649376339864300,7.0648642578125,0.01822071634531021,0.009630582654476165,0.004117792316060513
1772649376349908200,7.074908203125,0.02869417956471443,0.005184599563665688,0.011925324261840432
1772649376359952100,7.0849521484375,0.017774726143479348,0.004108750493079424,0.008439783701021223
1772649376369996300,7.094996337890625,0.00850011731982231,-0.005013626910932362,0.001553933177422732
1772649376380041500,7.10504150390625,0.012841361394524574,0.012091346744820475,0.015774620101135225
1772649376390084600,7.115084716796875,0.025112813946604726,-0.00438712904304266,0.005305248534958809
1772649376400128300,7.125128173828125,0.009693711018562316,0.006259900644980371,0.0036071576464921234
1772649376410172400,7.13517236328125,0.015834113469719885,0.001994461752846837,0.006066442165803164
1772649376420216300,7.14521630859375,0.02795651293992996,-0.003373568086326122,-0.0034058263881132003
1772649376430260500,7.155260498046875,0.02106499986052513,-0.004472724967263639,0.009188300513383001
1772649376440304600,7.1653046875,0.019116788402199745,0.0006256210850551724,0.0014596059574745594
1772649376450349300,7.175349365234375,0.032144027757644654,-0.00010561579894274472,0.013965944977663456
1772649376460393500,7.1853935546875,0.01838496699631214,0.0023023221256211397,0.0038239422023296356
1772649376470437600,7.195437744140625,0.03409574634730816,-0.017893457152321934,-0.008183215124066919
1772649376480481300,7.205481201171875,0.017640286108851433,-0.0016710384847596286,0.003211491126101464
1772649376490525400,7.215525390625,0.03231704623699188,-0.009777662974968552,0.018305965209659186
1772649376500569300,7.2255693359375,0.014059505012631415,-0.006314699572138488,0.012297445509862155
1772649376510613500,7.235613525390625,-0.000008767828345298767,-0.00499214573148638,0.0034856866912916303
1772649376520658400,7.245658447265625,0.03455634959638119,-0.005586787156388163,-0.0026952669659629463
1772649376530702300,7.255702392578125,0.0242296013712883,-0.005527640847675502,0.006625044162943959
1772649376540746500,7.26574658203125,0.03186579533815384,-0.01878130937013775,0.01682248518625274
1772649376550790400,7.275790283203125,0.01660685140788555,-0.019249511403776703,-0.0043171873456798494
1772649376560834300,7.285834228515625,0.028279753544926643,-0.009522957561537622,-0.009061331399157643
1772649376570878500,7.29587841796875,0.016454291194677353,-0.008099171836115419,0.0033582791856490075
1772649376580922400,7.30592236328125,0.008213117071986197,-0.003101911538094282,-0.0049011429797858
1772649376590967300,7.31596728515625,0.01673193909227848,0.0024769845727831124,0.0028423290201462803
1772649376601011500,7.326011474609375,0.014191606959700584,-0.005327040241658687,-0.0008173077322542667
1772649376611055400,7.336055419921875,0.026762334719300267,-0.008410429742373526,-0.0015259126593358814
1772649376621099500,7.346099609375,0.012392448583245277,0.004417122322507202,-0.0004731522033922374
1772649376631143400,7.356143310546875,0.019428338569402695,0.006042896893434226,0.009499594952259213
1772649376641187300,7.366187255859375,0.021529694762825964,-0.007227759296447038,0.011029160873405634
1772649376651231200,7.376231201171875,0.02332709957361221,-0.005715528102591633,0.007848521543294192
1772649376661276400,7.3862763671875,0.020032149681448935,-0.007979198718257249,0.010675232869200408
1772649376671320300,7.3963203125,0.019725860211253166,-0.007740786852501332,-0.0007992971515282988
1772649376681364200,7.4063642578125,0.025266543203592298,-0.014399258361011743,-0.005864654249697923
1772649376691408400,7.416408447265625,0.03304302242398262,-0.0135713196368888,0.0059408430247567595
1772649376701452500,7.42645263671875,0.03019815438687801,-0.008586151635460556,-0.0027230865546502172
1772649376711496400,7.436496337890625,0.01508709449470043,-0.007840301704220473,0.007100717116985469
1772649376721540400,7.446540283203125,0.02467266896367073,0.00023216478805989025,0.009821429051458835
1772649376731585500,7.45658544921875,0.016892098090052602,-0.015974216060154138,0.017094634924829006
1772649376741629400,7.46662939453125,0.028557985964417457,-0.009755049284361302,0.020013371915742754
1772649376751673300,7.47667333984375,0.01000467666387558,-0.008236315284483134,0.0261114147962071
1772649376761717200,7.48671728515625,0.010445406168699264,-0.0018345219507813453,-0.0039029074563644824
1772649376771761400,7.496761474609375,0.022568390160799024,-0.005180873236618936,0.0017660415581427513
1772649376781805600,7.5068056640625,0.017191373297572136,-0.002548040514998138,-0.0043975956381298595
1772649376791849500,7.516849365234375,0.013609423157572745,-0.006352912690676748,0.009628902154043316
1772649376801894400,7.526894287109375,0.01705517969727516,-0.0047847865911200636,0.009934387906640767
1772649376811938600,7.5369384765625,0.021835399711132047,0.0032304332885891196,0.0069446315061300985
1772649376821982500,7.546982421875,0.028120179069042205,-0.007528970732726156,-0.0005237498794682324
1772649376832026400,7.5570263671875,0.014803601378202438,-0.005833820720016956,0.005927033695112913
1772649376842070300,7.5670703125,0.028123686200380325,-0.004053074783086776,0.011371672434452921
1772649376852114400,7.577114501953125,0.015101707541942596,-0.0011419365767389535,-0.00912504428513348
1772649376862158300,7.587158447265625,0.005521393769979476,-0.006992379637993872,-0.006444847024139016
1772649376872203300,7.597203369140625,0.027520459610223768,-0.0028140710400417447,0.009613430590275675
1772649376882247400,7.607247314453125,0.005973813712596893,0.004763268879055977,0.006571158551238476
1772649376892291300,7.617291259765625,0.0410042105615139,0.0010869549864903091,-0.0006235569921322167
1772649376902335500,7.62733544921875,0.010032149192690848,-0.0024712489517405628,0.004785224982537329
1772649376912379400,7.63737939453125,0.01765606819987297,0.0037313685480505226,0.00807169930730015
1772649376922423300,7.64742333984375,0.03246376123130321,-0.012923596317879855,0.016257508247252552
1772649376932467500,7.657467529296875,0.0306692790299654,-0.006992781496793031,-0.00027372064115479584
1772649376942512600,7.6675126953125,0.0421937126070261,-0.009574030161648988,0.0014052088891156017
1772649376952556300,7.677556396484375,0.009729951375722884,-0.007354965872690081,-0.0004350669490173459
1772649376962600400,7.687600341796875,0.02648994751870632,-0.0013939751090481876,0.005827518843393773
1772649376972644400,7.697644287109375,0.03038695495724678,-0.01673822270259261,-0.0033747919290326536
1772649376982688500,7.7076884765625,0.01661854184567928,-0.0057952788079157465,0.010963877084851264
1772649376992732400,7.717732421875,0.011235095241665839,0.0020450228963047267,0.017221896299999206
1772649377002776300,7.7277763671875,0.01646656615436077,-0.0007020473221316933,0.015534509468637405
1772649377012821500,7.737821533203125,0.0235018716186285,-0.004710223517566919,0.014174107835628091
1772649377022865400,7.747865478515625,0.012428688940405845,-0.007913622668758034,0.00030435324143618343
1772649377032909300,7.757909423828125,0.00269873756468296,-0.006133570851571858,-0.0006075557054020464
1772649377042953500,7.767953369140625,0.02424947511553764,-0.01764803102388978,-0.010820486558787524
1772649377052997400,7.777997314453125,0.015722469788789748,-0.02660349089577794,0.011182360407430678
1772649377063041500,7.78804150390625,0.026043957316875456,-0.005800576037541032,0.01672600254183635
1772649377073085200,7.798085205078125,0.04025836063027382,-0.004866473525203764,0.010320665544178336
1772649377083130400,7.80813037109375,0.014364040917158125,-0.004885287823528051,0.005658263223711401
1772649377093174500,7.818174560546875,0.006281856748461723,-0.007144099600985646,-0.0013186631168238818
1772649377103218400,7.828218505859375,0.01810615005493164,-0.007480491948500275,0.005760536288097501
1772649377113262300,7.838262451171875,0.028584873971343037,0.004403824449516832,-0.003074238079879433
1772649377123306500,7.848306396484375,0.019309680625796317,-0.0008421499125659466,-0.01288103581778705
1772649377133350400,7.858350341796875,0.016165537381172178,-0.008741342197172344,0.012389818234741687
1772649377143394600,7.86839453125,0.0245475812792778,0.005578019328042865,0.011511117437761276
1772649377153439500,7.878439453125,0.023048867154121397,-0.003962291227094829,-0.0033222032252699135
1772649377163483400,7.8884833984375,0.01421089618206024,-0.0011748159330338239,-0.00217027497747913
1772649377173527600,7.898527587890625,0.028864275434613226,-0.013415508020669221,-0.006602923662681132
1772649377183571500,7.908571533203125,0.018535189121961594,-0.005877440666034817,0.016401245833188294
1772649377193615400,7.918615478515625,0.01539163039922714,-0.0021244082754477856,0.008152016268204897
1772649377203659300,7.9286591796875,0.03036591216921806,0.00277994957473129,0.01015745607279241
1772649377213703400,7.938703369140625,0.03126958301067352,-0.0028881226569414135,-0.0029154855879023668
1772649377223748400,7.948748291015625,0.02110065569579601,0.0004297331867739558,0.0008461867668665945
1772649377233792300,7.958792236328125,0.021999065840244292,-0.006244008956104516,0.0050248972236178815
1772649377243836400,7.96883642578125,0.026036358532309532,-0.0009695026192814111,-0.012363350352924317
1772649377253880600,7.978880615234375,0.02813420759439468,-0.019596132884360847,0.01289621512060985
1772649377263924500,7.988924560546875,0.02603285140097141,-0.014405541971325873,0.002662204946577549
1772649377273968400,7.998968505859375,0.037997429960966105,-0.023607889276370406,0.008712061303760855
1772649377284012300,8.00901220703125,0.03231587719321251,0.008311097553744911,0.006142594408243894
1772649377294057500,8.019057373046875,0.0345686245560646,-0.0007565539883449674,0.016755265168938785
1772649377304101400,8.029101318359375,0.016467150676250458,-0.006060103756561875,0.01905850061001256
1772649377314145300,8.039145263671875,0.007788754180073737,0.0011678382029756903,-0.01134513148739934
1772649377324189400,8.049189453125,0.011834230178594588,-0.013277816583029924,-0.0042779878464527426
1772649377334233600,8.059233642578125,0.030092940446734426,-0.006920191184617578,0.018741251354385167
1772649377344277500,8.069277587890625,-0.0071615621924400324,0.007781557254306972,0.029350195788033304
1772649377354321400,8.0793212890625,0.01573240666091442,-0.004680632096901536,0.013990166103467344
1772649377364366300,8.089366455078125,0.041021746218204494,0.0036160350726917386,0.006204316266532987
1772649377374410500,8.099410400390624,0.00675648852288723,-0.010348046741448342,0.012912106809485704
1772649377384454400,8.109454345703124,-0.0029758009403944015,-0.010124905510060489,-0.006613317192532122
1772649377394498300,8.119498291015624,0.041163785037398336,-0.007151881048642099,0.0014269275305792688
1772649377404542500,8.12954248046875,0.013479659298062325,-0.006007971710525453,-0.0032077465327456593
1772649377414586400,8.13958642578125,0.019605448701977727,-0.017158895800076426,0.0008982092150487005
1772649377424630500,8.149630615234376,0.009727613288164138,-0.0014716069225221872,0.017683979120105504
1772649377434675500,8.159675537109376,0.018258125746250152,-0.017736586090177295,0.0036036687814630566
1772649377444719400,8.16971923828125,0.02828501424193382,-0.005964936286397278,-0.014702533890213816
1772649377454763500,8.179763427734375,0.02050678145587444,-0.01096398668270558,-0.007060056313034147
1772649377464807400,8.189807373046875,0.031880408385396,-0.012644998572207987,-0.0070796195300295945
1772649377474851300,8.199851318359375,0.02648994751870632,-0.006999284302815795,-0.0034295908561907708
1772649377484895500,8.2098955078125,0.021850012758374213,-0.01131638031695038,-0.0073284249256365
1772649377494939400,8.219939453125,0.012861235138773918,-0.01745349483247846,-0.00504783970778808
1772649377504984300,8.229984375,0.0315624284774065,-0.008761069810949266,-0.007393745246808975
1772649377515028500,8.240028564453125,0.024227263283729553,-0.0025309067171067,0.01435739198066294
1772649377525072400,8.250072265625,0.029018004691600797,0.0055132469961419696,0.013782496435847133
1772649377535116500,8.260116455078125,0.013751461976766586,-0.0018157441850751637,-0.001307356271520257
1772649377545160200,8.27016015625,0.032764205482602116,-0.005708075448498129,-0.015921864818409084
1772649377555204400,8.280204345703124,0.017056933262944222,-0.011255188181623816,-0.0024479959403164685
1772649377565248500,8.29024853515625,0.026627894684672353,-0.01202076572664082,0.014037603708077221
1772649377575293200,8.300293212890624,0.015994856989383698,0.0003040609804913401,0.012600903702154755
1772649377585337300,8.31033740234375,0.02601765383183956,-0.00039561172146350144,-0.009117628163658083
1772649377595381500,8.320381591796876,0.04577040205001831,-0.005665149622224271,0.006701214671693742
1772649377605425400,8.33042529296875,0.0025309797823429105,-0.007497516148537397,0.014628518805932253
1772649377615469600,8.340469482421875,0.014206220006942749,-0.007613288015313446,0.0048205154916271566
1772649377625513200,8.35051318359375,0.033358079722523686,-0.004050115641020239,0.016818667527660727
1772649377635557400,8.360557373046875,0.028269232150912284,-0.013395890004746615,-0.010292553694546222
1772649377645602600,8.3706025390625,-0.00016658873856067658,-0.012726722038909791,0.010305011317320168
1772649377655646200,8.380646240234375,0.014806523987650871,0.0020783771766349672,0.007815185529273003
1772649377665690400,8.3906904296875,0.016450784063339233,-0.0003109656453132629,0.002231430580187589
1772649377675734500,8.400734619140625,0.030519641426205633,-0.00976947966851294,0.017231796639505772
1772649377685778400,8.4107783203125,0.02602992879152298,-0.016069200867228208,0.006417520625796169
1772649377695822600,8.420822509765625,0.031107670447230337,-0.008306859770044684,0.0008874686253257095
1772649377705866200,8.4308662109375,0.016736615267395973,-0.006436791581846773,-0.0024742628927342594
1772649377715911400,8.440911376953125,0.010745850419998168,-0.013437792917713522,-0.0026391893971711394
1772649377725955600,8.45095556640625,0.010597966381907463,-0.012069061847776175,-0.0023739625897258518
1772649377735999200,8.460999267578124,0.016128127980232238,-0.00801971339173615,-0.0006637246057391166
1772649377746043400,8.47104345703125,0.008043021202087402,-0.0050876419952139255,0.004852938190195709
1772649377756087300,8.48108740234375,0.01252045887708664,-0.008040536984056233,-0.0006206526489928364
1772649377766131500,8.49113134765625,0.005479308193922043,-0.006721965198777616,0.012012454556021838
1772649377776175600,8.501175537109376,0.032710429468750954,0.000136887720040977,0.0031618615644052623
1772649377786220300,8.51122021484375,0.007573650124669075,-0.0032982378277927635,0.0005591865190304815
1772649377796264400,8.521264404296875,0.016398761615157128,0.0061926806276664135,-0.01142378621418029
1772649377806308600,8.53130859375,0.01790390548110008,0.0053084816716611385,0.006028429976664483
1772649377816352300,8.541352294921875,0.010882628542184828,0.005396671411767601,0.000534947126917541
1772649377826396400,8.551396484375,0.015527823999524116,-0.009585464871115982,0.0043572088288143275
1772649377836440300,8.5614404296875,0.011186579924821853,-0.01725979889128357,-0.002543930595461279
1772649377846484500,8.571484375,0.02823942153453827,-0.006724522482044994,-0.00788686252599582
1772649377856529400,8.581529296875,0.0343769013762474,-0.003032061172276735,-0.0023453758160583674
1772649377866573300,8.5915732421875,0.00341068522632122,-0.0026320655366405842,-0.001331065940670669
1772649377876617500,8.601617431640625,0.027512860825657844,-0.008382043898105622,0.002993226999230683
1772649377886661400,8.611661376953125,0.032603461962938306,-0.011992452947609126,-0.0035007746625691652
1772649377896705300,8.621705322265624,0.021824293795228003,0.0012310030996799469,-0.0009069587770849465
1772649377906749400,8.63174951171875,0.02361468434333801,-0.005078545373305678,0.015440949433669447
1772649377916793300,8.64179345703125,0.030645898154377935,0.009190547269396483,0.00917620821679011
1772649377926838300,8.65183837890625,0.02227671373784542,-0.0002719488091766834,0.0019112404488027094
1772649377936882400,8.66188232421875,0.01210778642296791,-0.016995010475255548,0.017196907989215103
1772649377946926300,8.67192626953125,0.010012275448441505,-0.006622158086113631,0.02383915901528671
1772649377956970500,8.681970458984376,0.03126782944500446,-0.0077868910165503616,0.006993201621901243
1772649377967014400,8.692014404296875,0.020189386069774627,-0.00803523975443095,-0.00238799111507833
1772649377977058300,8.702058349609375,0.004769698619842529,-0.011054258782044052,0.0011567505533806978
1772649377987102500,8.7121025390625,0.013595979154109953,-0.006221943254768848,0.016573259665537625
1772649377997147400,8.7221474609375,0.03858545898199081,-0.004866144731640816,0.008960136047005653
1772649378007191300,8.73219140625,0.005219780474901199,-0.004498407397791743,0.0026419841424562035
1772649378017235500,8.7422353515625,0.008963643178343772,0.0017247049007564782,-0.004238514352589845
1772649378027279400,8.752279296875,0.02856733831465244,-0.0004430310597643256,0.00013288739835843442
1772649378037323500,8.762323486328125,0.007021276938915252,-0.004183277034014463,-0.003071370269358158
1772649378047367400,8.772367431640625,0.023180969101190566,-0.0025286782274022697,0.0006424991546198725
1772649378057411300,8.782411376953124,0.022731471768021583,-0.006900792364403605,0.00519608907205984
1772649378067456500,8.79245654296875,0.02093698956668377,-0.00023804653957486152,-0.006423950366582721
1772649378077500400,8.80250048828125,0.04233867403566837,-0.004522847719304264,-0.006029251960571855
1772649378087544300,8.81254443359375,-0.00255845231115818,-0.0023563538677990434,-0.009266498582437634
1772649378097588200,8.822588134765626,0.022279636347293852,-0.019041092817485332,-0.005297302690520882
1772649378107632400,8.83263232421875,0.01599953316450119,-0.012038228318095206,-0.005907141684554517
1772649378117676500,8.842676513671876,0.014645195946097374,0.004364369221962988,0.0027743418178521094
1772649378127720400,8.852720458984376,0.019133155015110967,0.006764781427197158,0.010226155661139637
1772649378137765400,8.862765380859376,0.02392155833542347,-0.003885536196455359,0.01453081231880933
1772649378147809500,8.8728095703125,0.030199323430657385,-0.0026497473238036033,-0.0006516323091462254
1772649378157853400,8.882853515625,0.0316974530339241,0.00006919277869164943,0.009336732540745287
1772649378167897300,8.8928974609375,0.019280454531311986,-0.007937661131471395,0.010958086664881557
1772649378177941200,8.902941162109375,0.04457622382938862,-0.0077021718751639125,0.01753711799532175
1772649378187985400,8.9129853515625,0.010460603737831115,-0.01471910143252462,-0.002125632118154317
1772649378198029600,8.923029541015625,0.005820084455609322,-0.00711118371207267,0.00990180081129074
1772649378208074200,8.93307421875,0.0155459441781044,-0.0018237082958221435,0.01100738743301481
1772649378218118400,8.943118408203125,0.026613866159319877,-0.0012752075675874948,0.015644856241624802
1772649378228162300,8.953162353515625,0.036193010887503624,-0.011827069785445928,0.022603169213235377
1772649378238206500,8.96320654296875,0.015091186147928237,-0.0075589640121906995,0.009777553377114235
1772649378248250400,8.97325048828125,0.014790157374739646,-0.0016991320680826902,0.012594711423385887
1772649378258294300,8.983294189453124,0.023461539608240125,-0.0077150678893551225,0.008497486971318722
1772649378268338400,8.99333837890625,0.020613748961687085,-0.0022168357992544767,0.009137118315417319
1772649378278383600,9.003383544921874,0.022552023547887802,-0.007828720864281057,-0.0077524042250588536
1772649378288427300,9.01342724609375,0.015074235013127326,0.005151720207370817,-0.02159333458356559
1772649378298471400,9.023471435546876,0.03677110303640366,-0.012167846047133207,0.010488843451626598
1772649378308515300,9.033515380859376,0.010579846203327178,-0.016588512033596636,0.004899535544589162
1772649378318559500,9.0435595703125,0.0017535656690597532,-0.008202230351790785,0.01099456448405981
1772649378328603400,9.053603271484375,0.025991350346803662,-0.007730740382522344,0.019736125876940784
1772649378338647300,9.063647216796875,0.02569207513928413,0.004971687465347349,0.00579361657379195
1772649378348692500,9.0736923828125,-0.001423310801386833,-0.002820391182973981,-0.012970321536436676
1772649378358736600,9.083736572265625,-0.036822540962696076,-0.003528101060912013,0.008975388415064662
1772649378368780300,9.0937802734375,0.006505728632211685,0.007376008660718798,0.03496147806486115
1772649378378824400,9.103824462890625,0.08502513859570025,-0.011840148462727665,0.0041807197507470846
1772649378388868900,9.113868896484375,0.019122633621096608,0.0061220265442505474,0.023556451350077987
1772649378398912800,9.123912841796875,-0.011187748968601226,0.00023015549406409262,0.02461664619380608
1772649378408956700,9.133956787109375,0.006212883165478706,0.004461509453505277,-0.005895232051052152
1772649378419001900,9.144001953125,0.023338205489516258,0.007028437332063913,0.0028605770628899333
1772649378429045800,9.154045654296874,0.017137012761831282,-0.0019501842197030782,0.014346541793085634
1772649378439089700,9.164089599609374,0.05542670366764068,-0.0008026216197758913,0.01729759188471362
1772649378449133800,9.1741337890625,0.07132453002333641,-0.017380210400559006,-0.005458393270056695
1772649378459177700,9.184177734375,0.09717267250716685,-0.015395283661037682,-0.009995123384241014
1772649378469222000,9.194221923828126,0.10632219364643096,-0.013023366897925734,0.006670253277849406
1772649378479265800,9.204265869140626,0.011322773525118826,-0.008284319144673645,0.014864355122111737
1772649378489310700,9.214310791015626,-0.05740297217667102,0.008606208042800425,0.008920607754215597
1772649378499355000,9.22435498046875,-0.034333646756410596,0.0004902312023565173,0.0011671440832316876
