time,seconds_elapsed,z,y,x
1772649302188717600,0.069717529296875,0.01611880213022232,0.025336483493447304,0.028830453753471375
1772649302198761700,0.07976171875,0.023672297596931458,0.015579162165522575,0.02912553958594799
1772649302208805600,0.0898056640625,0.023424092680215836,-0.009530451148748398,0.00513924565166235
1772649302218849500,0.099849609375,0.02326849475502968,0.0042144740000367165,-0.01365164015442133
1772649302228894700,0.109894775390625,0.01937015913426876,-0.006574790459126234,-0.005975078325718641
1772649302238938600,0.119938720703125,0.01194732915610075,0.0013074520975351334,-0.0005751409335061908
1772649302248982800,0.129982666015625,0.0006888159550726414,0.0006901309825479984,0.0014451330062001944
1772649302259026400,0.1400263671875,-0.0006528676021844149,0.001226071733981371,-0.00027935835532844067
1772649302269070600,0.150070556640625,-0.000748475082218647,-0.0011507999151945114,0.004715932533144951
1772649302279114500,0.160114501953125,-0.003023761324584484,-0.00042457086965441704,0.0027743587270379066
1772649302289159400,0.170159423828125,-0.0044693248346447945,-0.003024881239980459,0.0015184119110926986
1772649302299203600,0.18020361328125,-0.0022419646847993135,-0.00030612852424383163,0.002882166765630245
1772649302309247500,0.19024755859375,-0.0026955008506774902,-0.0011873682960867882,0.002407591324299574
1772649302319292200,0.200292236328125,-0.003105106297880411,-0.0016309679485857487,0.0004167918814346194
1772649302329336000,0.210336181640625,-0.0038577155210077763,0.0008055581711232662,0.0019576968625187874
1772649302339381000,0.220381103515625,-0.00425620935857296,0.0010020723566412926,0.0015879905549809337
1772649302349425200,0.230425048828125,-0.007723378948867321,-0.002933813724666834,-0.00014146615285426378
1772649302359469000,0.240468994140625,-0.015992427244782448,-0.002102726139128208,0.003142099129036069
1772649302369513000,0.250512939453125,-0.03717334568500519,-0.0048835985362529755,0.00139666348695755
1772649302379557000,0.26055712890625,-0.06123300641775131,-0.004988430067896843,0.0005064107244834304
1772649302389602300,0.270602294921875,-0.09016478806734085,0.001761618535965681,0.005666285287588835
1772649302399646000,0.28064599609375,-0.1312495917081833,0.002829349134117365,0.009994170628488064
1772649302409690000,0.290690185546875,-0.1666584461927414,-0.003673291066661477,0.013760944828391075
1772649302419734000,0.300734130859375,-0.18817494809627533,0.0067343018017709255,0.010741198435425758
1772649302429778200,0.310778076171875,-0.19988512992858887,-0.002652541734278202,0.018066754564642906
1772649302439822000,0.320822021484375,-0.202936589717865,-0.0018587657250463963,0.013414840213954449
1772649302449867000,0.330866943359375,-0.2002289593219757,-0.006966708693653345,0.013197791762650013
1772649302459911200,0.3409111328125,-0.18671254813671112,-0.0018151737749576569,0.0124509297311306
1772649302469955300,0.350955322265625,-0.15254072844982147,0.000818958505988121,0.015330872498452663
1772649302479999000,0.3609990234375,-0.12270349264144897,-0.017540985718369484,0.01912703551352024
1772649302490043100,0.371043212890625,-0.12692487239837646,-0.005397504195570946,0.017944060266017914
1772649302500088000,0.381088134765625,-0.14616437256336212,-0.008152501657605171,0.014836074784398079
1772649302510132000,0.391132080078125,-0.16161496937274933,-0.009734686464071274,0.017398035153746605
1772649302520176000,0.401176025390625,-0.16886280477046967,-0.006418209057301283,0.016381163150072098
1772649302530220000,0.411219970703125,-0.17564187943935394,-0.012235884554684162,0.025318996980786324
1772649302540264200,0.42126416015625,-0.19450992345809937,-0.018739422783255577,0.03379852697253227
1772649302550308000,0.43130810546875,-0.2085690200328827,-0.028110023587942123,0.043863676488399506
1772649302560353000,0.44135302734375,-0.221409410238266,-0.0308989267796278,0.048152513802051544
1772649302570397200,0.451397216796875,-0.21917635202407837,-0.029015539214015007,0.045387882739305496
1772649302580441000,0.461441162109375,-0.20605389773845673,-0.030282599851489067,0.04371054098010063
1772649302590485000,0.471485107421875,-0.18137598037719727,-0.03355935215950012,0.044502031058073044
1772649302600529200,0.481529052734375,-0.1377997100353241,-0.037770189344882965,0.05246824026107788
1772649302610574000,0.491573974609375,-0.08807528764009476,-0.03281058371067047,0.05228235200047493
1772649302620618000,0.501617919921875,-0.05004299059510231,-0.03786861151456833,0.03900020569562912
1772649302630662100,0.511662109375,-0.04250730946660042,-0.019805457442998886,0.02936409041285515
1772649302640706000,0.5217060546875,-0.04050077870488167,-0.010799377225339413,0.010321206413209438
1772649302650750200,0.531750244140625,-0.03918704017996788,0.00520595395937562,-0.003598870011046529
1772649302660794000,0.541794189453125,-0.03631602227687836,0.011194773949682713,-0.014093630015850067
1772649302670839000,0.551839111328125,-0.030849086120724678,0.022201620042324066,-0.021553676575422287
1772649302680883200,0.56188330078125,-0.02846326120197773,0.02056177146732807,-0.029415825381875038
1772649302690927000,0.571927001953125,-0.023841876536607742,0.02704816684126854,-0.031061924993991852
1772649302700971000,0.581970947265625,-0.013254362158477306,0.024759963154792786,-0.0352482795715332
1772649302711015000,0.592014892578125,-0.002977489959448576,0.027599424123764038,-0.035926319658756256
1772649302721060000,0.60206005859375,0.003956916742026806,0.03565061092376709,-0.05216638743877411
1772649302731104300,0.612104248046875,0.0016508855624124408,0.03799312561750412,-0.06750406324863434
1772649302741148000,0.62214794921875,0.004009596537798643,0.037955235689878464,-0.058646105229854584
1772649302751192000,0.632192138671875,0.0013179393718019128,0.01182297058403492,-0.028153711929917336
1772649302761236200,0.642236328125,0.00097031204495579,0.0026363693177700043,0.00039052125066518784
1772649302771281000,0.652281005859375,0.00212346063926816,-0.0034974233713001013,0.013529226183891296
1772649302781325000,0.662324951171875,0.001662099384702742,-0.003921004943549633,-0.0014467585133388638
1772649302791369200,0.672369140625,0.001682605710811913,0.012842794880270958,-0.0194566510617733
1772649302801413000,0.6824130859375,0.005514463875442743,0.014638969674706459,-0.030690433457493782
1772649302811457300,0.692457275390625,0.0038076438941061497,0.0030302507802844048,-0.029643278568983078
1772649302821501000,0.7025009765625,0.0065711382776498795,0.007983814924955368,-0.0163209680467844
1772649302831546000,0.712546142578125,0.006514945533126593,0.003978953696787357,-0.007204702123999596
1772649302841590300,0.72259033203125,0.006039854139089584,0.00567203713580966,-0.0106804883107543
1772649302851634000,0.732634033203125,0.0039167823269963264,0.0060781692154705524,-0.01595301367342472
1772649302861678000,0.742677978515625,0.004320387262851,0.005058275070041418,-0.02028966322541237
1772649302871722000,0.752721923828125,0.004449017811566591,0.003181811887770891,-0.015048030763864517
1772649302881767000,0.762766845703125,0.005114938598126173,0.0014503938145935535,-0.007892956957221031
1772649302891811000,0.77281103515625,0.002712234854698181,-0.000060949940234422684,-0.0011474366765469313
1772649302901855000,0.78285498046875,-0.0006715097697451711,0.002609583083540201,-0.004121234640479088
1772649302911899100,0.792899169921875,0.002167952712625265,-0.0022075423039495945,0.0009009545901790261
1772649302921943300,0.802943359375,0.0009183465735986829,0.0029807579703629017,0.0006442434387281537
1772649302931987000,0.812987060546875,0.0001369750825688243,0.0013149506412446499,0.0012418568367138505
1772649302942032100,0.8230322265625,-0.0008800860960036516,-0.0017306399531662464,0.0015912634553387761
1772649302952076300,0.833076171875,0.0017133001238107681,-0.0020459583029150963,0.0028482754714787006
1772649302962120000,0.843119873046875,0.0017405491089448333,0.001086745411157608,0.0015377935487776995
1772649302972164000,0.8531640625,0.0012028567725792527,0.0009743599221110344,-0.0026654736138880253
1772649302982208000,0.8632080078125,0.0010799152078107,0.0014520762488245964,-0.001303918776102364
1772649302992253200,0.873253173828125,0.0015331852482631803,-0.0020688888616859913,0.0020207713823765516
1772649303002297000,0.883297119140625,-0.0045362720265984535,-0.04015934094786644,0.022792577743530273
1772649303012341000,0.893341064453125,-0.0002477838424965739,-0.003189337905496359,0.042606763541698456
1772649303022385200,0.90338525390625,-0.001174235250800848,-0.01835259050130844,0.01621117629110813
1772649303032429000,0.913428955078125,0.0003187329275533557,0.01908053457736969,-0.018294602632522583
1772649303042473000,0.923472900390625,0.0034620165824890137,0.027858704328536987,-0.042435791343450546
1772649303052518100,0.93351806640625,0.0026628016494214535,0.007284187711775303,-0.02470552735030651
1772649303062562000,0.94356201171875,0.00005050702020525932,0.00011655595153570175,0.006651862058788538
1772649303072606200,0.953606201171875,0.002287562470883131,-0.004449433647096157,0.012763284146785736
1772649303082650000,0.963650146484375,-0.001165180467069149,0.003027532249689102,-0.00499397749081254
1772649303092694000,0.973694091796875,0.001024204189889133,0.003112221136689186,-0.013223146088421345
1772649303102739200,0.9837392578125,0.00010270497296005487,0.0016851583495736122,-0.0036119609139859676
1772649303112783000,0.993783203125,0.0028146016411483288,0.0002627638168632984,0.00383583502843976
1772649303122827000,1.003826904296875,0.0008519487455487251,-0.004019387997686863,0.0003150168340653181
1772649303132871200,1.01387109375,0.0012892397353425622,0.004114705137908459,-0.005614511203020811
1772649303142915000,1.0239150390625,0.00045735330786556005,0.0021613040007650852,-0.006487702019512653
1772649303152959200,1.033959228515625,0.0008006348507478833,-0.001060855109244585,0.0011699512833729386
1772649303163004200,1.044004150390625,-0.0006364919827319682,-0.00022464990615844727,0.0007800047751516104
1772649303173048000,1.054048095703125,0.00024368276353925467,-0.00022065499797463417,-0.0007968529243953526
1772649303183092200,1.06409228515625,-0.0018192983698099852,0.000624154694378376,-0.0006587816751562059
1772649303193135900,1.074135986328125,-0.0011026416905224323,0.001050259917974472,0.0001620044931769371
1772649303203180000,1.084179931640625,0.0025612167082726955,0.0004880819469690323,-0.0013960812939330935
1772649303213225200,1.09422509765625,0.0004546560812741518,0.001598886214196682,-0.003104765433818102
1772649303223268900,1.104268798828125,-0.00008503091521561146,0.0009233392775058746,0.000177356181666255
1772649303233313000,1.11431298828125,0.00020019360817968845,-0.001863126177340746,0.003922559786587954
1772649303243357200,1.124357177734375,0.0006498828297480941,0.001436812337487936,0.0011998735135421157
1772649303253401000,1.134401123046875,0.0006240501534193754,0.001946807373315096,-0.0011421103263273835
1772649303263446000,1.144446044921875,-0.00028488674433901906,0.0015350827015936375,-0.0026886078994721174
1772649303273490200,1.154490234375,-0.0007152535836212337,-0.0012668292038142681,0.0027940417639911175
1772649303283534000,1.1645341796875,-0.003329373663291335,-0.0001854337751865387,0.0037438846193253994
1772649303293578200,1.174578125,0.0011351495049893856,-0.00048530567437410355,0.0027361446991562843
1772649303303622000,1.184621826171875,-0.0009543263004161417,0.0004241103306412697,-0.002918198239058256
1772649303313666600,1.19466650390625,-0.001222772989422083,0.00005393102765083313,-0.0017248356016352773
1772649303323711500,1.20471142578125,0.0023469338193535805,-0.00006837956607341766,-0.0002184663899242878
1772649303333755400,1.21475537109375,-0.0007034506415948272,-0.0019070259295403957,-0.0029615224339067936
1772649303343799300,1.22479931640625,0.00007039308547973633,0.0024153413251042366,-0.0009723552502691746
1772649303353843500,1.234843505859375,0.0013095620088279247,0.000799868255853653,0.0010497828479856253
1772649303363887600,1.2448876953125,0.0030240430496633053,0.0007467321120202541,0.0019856521394103765
1772649303373932300,1.254932373046875,-0.0008082454442046583,-0.000858355313539505,-0.0007195869693532586
1772649303383976400,1.2649765625,0.0005408122669905424,-0.0016517257317900658,0.0009106716606765985
1772649303394020600,1.2750205078125,-0.0003920930903404951,0.000500640831887722,-0.0009008105262182653
1772649303404064500,1.285064453125,-0.0003469836665317416,0.0011284872889518738,-0.004783734679222107
1772649303414108400,1.2951083984375,-0.0012039889115840197,-0.0014364030212163925,-0.00012293620966374874
1772649303424152300,1.30515234375,0.003371933475136757,-0.0009484128095209599,0.004670195747166872
1772649303434197500,1.315197509765625,-0.000735459616407752,-0.0010352320969104767,0.00033670023549348116
1772649303444241400,1.325241455078125,-0.0002899011014960706,0.0016301870346069336,-0.005252974573522806
1772649303454285300,1.335285400390625,0.0009551267139613628,-0.0007208520546555519,-0.0035283113829791546
1772649303464329500,1.34532958984375,-0.00067274080356583,-0.0022211940959095955,0.0033601350151002407
1772649303474373600,1.35537353515625,-0.00036807521246373653,-0.0020337076857686043,0.002155853435397148
1772649303484418300,1.365418212890625,0.0013833441771566868,0.00030645448714494705,0.0011890492169186473
1772649303494462500,1.37546240234375,0.0011242185719311237,0.000016435980796813965,-0.0011279010213911533
1772649303504506400,1.38550634765625,-0.0013566756388172507,0.0016670762561261654,-0.000046994187869131565
1772649303514550500,1.395550537109375,-0.0008970140479505062,0.00015360163524746895,-0.002716813236474991
1772649303524594400,1.405594482421875,0.0009254464530386031,-0.0009323493577539921,-0.002695197006687522
1772649303534638300,1.415638427734375,0.0015148038510233164,-0.0027182651683688164,0.0005330868298187852
1772649303544683500,1.42568359375,0.0008860996458679438,-0.0019846209324896336,-0.00002516317181289196
1772649303554727700,1.435727783203125,0.0002453430788591504,0.0005741440691053867,0.00006644963286817074
1772649303564771300,1.445771240234375,-0.00006381061393767595,0.0015278072096407413,-0.0029478457290679216
1772649303574815500,1.4558154296875,0.0004379289457574487,0.0010281982831656933,-0.0013435576111078262
1772649303584859400,1.465859375,0.00034564040834084153,0.0006232163868844509,-0.002689939457923174
1772649303594904300,1.475904296875,0.00010595592902973294,0.0009598401375114918,-0.0026686342898756266
1772649303604948500,1.485948486328125,-0.0012527941726148129,-0.0007376722060143948,-0.0012813247740268707
1772649303614992400,1.495992431640625,0.0007512344745919108,-0.0017150524072349072,-0.003492547431960702
1772649303625036500,1.50603662109375,0.0011429933365434408,-0.0009483005851507187,-0.0025840832386165857
1772649303635080400,1.51608056640625,0.0019539259374141693,-0.0008079521358013153,0.0019933581352233887
1772649303645124400,1.526124267578125,-0.0012504833284765482,-0.0002493751235306263,-0.0025269193574786186
1772649303655169500,1.53616943359375,0.000059525598771870136,0.00008778134360909462,-0.0020235818810760975
1772649303665213700,1.546213623046875,-0.00013369013322517276,-0.0008928030729293823,-0.002774887951090932
1772649303675257300,1.55625732421875,-0.0023803329095244408,0.00024250242859125137,-0.0019109584391117096
1772649303685301500,1.566301513671875,-0.0021237600594758987,0.0017298078164458275,0.0005425878334790468
1772649303695345400,1.576345458984375,-0.0005146779585629702,-0.0009330869652330875,-0.0011426606215536594
1772649303705390300,1.586390380859375,0.0011436836794018745,-0.001385452225804329,-0.0008616618579253554
1772649303715434500,1.5964345703125,0.0009655181784182787,-0.0029966647271066904,-0.0002893485361710191
1772649303725478400,1.606478515625,0.0007089653518050909,-0.0001299399882555008,0.000014761346392333508
1772649303735522600,1.6165224609375,-0.00036322331288829446,-0.001903338823467493,-0.0008049595635384321
1772649303745566500,1.62656640625,0.002573742065578699,0.0031272629275918007,-0.00039875227957963943
1772649303755610400,1.6366103515625,-0.0010982244275510311,0.001155991107225418,-0.0013926438987255096
1772649303765655600,1.646655517578125,-0.0005256590666249394,0.00015052687376737595,-0.001752288080751896
1772649303775699500,1.656699462890625,0.0008565215393900871,0.00024000927805900574,-0.0005967424367554486
1772649303785743400,1.666743408203125,-0.000030937197152525187,0.0007055732421576977,-0.0014587067998945713
1772649303795787500,1.67678759765625,-0.0005084419972263277,0.0024004089646041393,-0.0016416659345850348
1772649303805831400,1.68683154296875,-0.0005306533421389759,-0.0006570443511009216,-0.00046633975580334663
1772649303815876600,1.696876708984375,-0.00011599913705140352,0.0007890523411333561,0.000014627119526267052
1772649303825920500,1.70692041015625,-0.0007401956827379763,-0.0006032576784491539,-0.0003398321568965912
1772649303835964400,1.71696435546875,0.00008964526932686567,-0.0013137892819941044,-0.0019164234399795532
1772649303846008600,1.727008544921875,-0.0022582244127988815,-0.0006578224711120129,-0.0012704224791377783
1772649303856052500,1.737052490234375,0.0001583280391059816,0.000755783636122942,-0.0003473707474768162
1772649303866096400,1.747096435546875,-0.00016763602616265416,0.002945487853139639,-0.00230742571875453
1772649303876141600,1.7571416015625,-0.002383119659498334,-0.0006005112081766129,-0.002331660594791174
1772649303886185500,1.767185546875,0.0003880489384755492,-0.00026614731177687645,-0.0016037701861932874
1772649303896229600,1.777229736328125,-0.002266323659569025,-0.0022818935103714466,0.0027132141403853893
1772649303906273300,1.787273193359375,-0.00004098634235560894,-0.00021022092550992966,0.0014032049803063273
1772649303916317400,1.7973173828125,-0.0023721707984805107,-0.0011802888475358486,-0.0002387098502367735
1772649303926362600,1.807362548828125,-0.0019137499621137977,-0.0017102365382015705,0.00009465636685490608
1772649303936406300,1.81740625,-0.00026338902534916997,0.001532960683107376,-0.002999670337885618
1772649303946450400,1.827450439453125,-0.0012213056907057762,-0.0014994642697274685,-0.001433766447007656
1772649303956494600,1.83749462890625,0.0010274675441905856,-0.001912520732730627,0.0023820106871426105
1772649303966538500,1.84753857421875,0.0001309700310230255,0.001581011340022087,-0.0024625584483146667
1772649303976582400,1.85758251953125,0.001111013232730329,0.000956233125180006,-0.001077448483556509
1772649303986627600,1.867627685546875,0.0003166329115629196,0.00019753165543079376,0.00535940146073699
1772649303996671500,1.87767138671875,0.0014013383770361543,-0.0009146044030785561,-0.000410070875659585
1772649304006715600,1.887715576171875,0.0012050879886373878,0.0005028876475989819,0.00013178435619920492
1772649304016759300,1.89775927734375,0.0017744718352332711,-0.00034612836316227913,0.002137144561856985
1772649304026803500,1.907803466796875,0.0009272047318518162,-0.00010030902922153473,0.0007056304020807147
1772649304036848600,1.9178486328125,0.00167635187972337,-0.000872892327606678,0.0007522356463596225
1772649304046892300,1.927892333984375,0.002147674560546875,-0.003362482413649559,0.002380852587521076
1772649304056936400,1.9379365234375,0.001211040886119008,-0.0001813364215195179,-0.0019502462819218636
1772649304066980400,1.94798046875,-0.0012059368891641498,-0.0013999538496136665,0.0017773539293557405
1772649304077024500,1.9580244140625,0.0008654698031023145,-0.0007570665329694748,-0.0003686213167384267
1772649304087068700,1.968068603515625,0.0022513465955853462,0.0007918095216155052,-0.0008884347043931484
1772649304097113300,1.97811328125,-0.0004837198357563466,-0.00043484242632985115,0.0030506469774991274
1772649304107157500,1.988157470703125,-0.001718710409477353,0.0003238571807742119,-0.0016047738026827574
1772649304117201700,1.99820166015625,-0.0008747546817176044,-0.0005837483331561089,0.00020484416745603085
1772649304127245300,2.008245361328125,-0.0005264287465251982,0.0009212018921971321,0.0008890802273526788
1772649304137289500,2.01828955078125,-0.0025139458011835814,-0.0007240991108119488,0.0013008048990741372
1772649304147334700,2.028334716796875,0.0015534942504018545,-0.0000036694109439849854,0.0009076109854504466
1772649304157378600,2.038378662109375,0.0009044817998073995,-0.000867865514010191,0.00397077901288867
1772649304167422500,2.04842236328125,0.000965099548920989,-0.0017726109363138676,0.002654723124578595
1772649304177466400,2.05846630859375,0.0003927862271666527,0.0003336830995976925,-0.00010324642062187195
1772649304187510500,2.068510498046875,0.0016472246497869492,-0.0007468974217772484,0.0022417083382606506
1772649304197554400,2.078554443359375,0.0006522677722387016,-0.0008230642415583134,0.004577300511300564
1772649304207599400,2.088599365234375,0.001733414363116026,0.0008782790973782539,0.002986170817166567
1772649304217643500,2.0986435546875,0.0006172835128381848,0.000279333908110857,0.0011413992615416646
1772649304227687400,2.1086875,0.0012421427527442575,0.0004554949700832367,-0.0006187327089719474
1772649304237731600,2.118731689453125,-0.00018238218035548925,0.000054156407713890076,0.0007464035879820585
1772649304247775500,2.128775390625,-0.0008048774325288832,0.00017111003398895264,0.002230973681434989
1772649304257820400,2.1388203125,-0.00026505469577386975,-0.000010251067578792572,0.0000511764083057642
1772649304267864600,2.148864501953125,0.000416132970713079,-0.0010203365236520767,0.0006464190082624555
1772649304277908500,2.158908447265625,-0.0011354247108101845,0.0015706531703472137,0.0022632242180407047
1772649304287952400,2.168952392578125,-0.0020460861269384623,-0.0013714367523789406,0.0031092767603695393
1772649304297996500,2.17899658203125,-0.0002529798657633364,0.0003034253604710102,0.0014850149163976312
1772649304308040400,2.18904052734375,0.0000048415386117994785,-0.0012894030660390854,0.0019454731373116374
1772649304318084400,2.19908447265625,0.001369978068396449,-0.0003090938553214073,0.003284244332462549
1772649304328128500,2.20912841796875,-0.0008491923799738288,0.0020132786594331264,0.0007085297256708145
1772649304338172400,2.21917236328125,0.0002309858100488782,0.00170541787520051,-0.00034954422153532505
1772649304348216600,2.229216552734375,-0.00033354759216308594,0.00017623743042349815,0.0022172867320477962
1772649304358260500,2.239260498046875,-0.00011543469736352563,0.0001227078028023243,-0.0005076597444713116
1772649304368305400,2.249305419921875,0.0008608989883214235,-0.0004895199090242386,0.0003500059247016907
1772649304378349600,2.259349609375,0.00036421953700482845,0.00002899719402194023,0.0020248680375516415
1772649304388393500,2.2693935546875,-0.0001259645214304328,-0.0018199076876044273,0.002411292865872383
1772649304398437400,2.279437255859375,0.00021438742987811565,-0.0009005842730402946,0.0021385853178799152
1772649304408481300,2.289481201171875,0.0011367133120074868,0.0029563172720372677,-0.0016897981986403465
1772649304418525400,2.299525390625,0.001229391316883266,0.0011906414292752743,-0.00036194606218487024
1772649304428570600,2.309570556640625,0.0014954248908907175,-0.0002440866082906723,-0.0006031160010024905
1772649304438614300,2.3196142578125,-0.000021777930669486523,0.000552997924387455,-0.0007431982667185366
1772649304448658400,2.329658447265625,-0.00011001166421920061,-0.000689119566231966,0.0022342591546475887
1772649304458702600,2.33970263671875,0.0015171797713264823,0.0007529817521572113,-0.0002858900697901845
1772649304468746500,2.34974658203125,0.0012994559947401285,-0.00041962089017033577,0.00017233844846487045
1772649304478791400,2.35979150390625,0.0015705658588558435,-0.00115199014544487,0.0028927575331181288
1772649304488835600,2.369835693359375,-0.0010589791927486658,-0.0010423618368804455,0.0003295131027698517
1772649304498879500,2.37987939453125,0.0021282921079546213,0.001205612439662218,-0.0009504021145403385
1772649304508923600,2.389923583984375,-0.0006180952186696231,0.003276308998465538,-0.00045877567026764154
1772649304518967300,2.39996728515625,0.0002455678768455982,0.000689314678311348,-0.00003879517316818237
1772649304529011500,2.410011474609375,0.000785381649620831,-0.0005392464809119701,0.0005868072621524334
1772649304539056600,2.420056640625,0.0010210714535787702,0.0012344187125563622,-0.0013615613570436835
1772649304549100300,2.430100341796875,0.0002075397060252726,0.0012169573456048965,-0.0024518314749002457
1772649304559144400,2.44014453125,-0.0004214989603497088,-0.0017956104129552841,-0.0020414385944604874
1772649304569188400,2.450188232421875,0.0026762366760522127,0.0003138994798064232,0.0019345356849953532
1772649304579232500,2.460232421875,0.0011249452363699675,0.0011948738247156143,0.0029007303528487682
1772649304589277400,2.47027734375,-0.00037302804412320256,-0.00012801820412278175,-0.0009234417811967432
1772649304599321300,2.4803212890625,0.002213700208812952,-0.000041997991502285004,-0.0012571358820423484
1772649304609365500,2.490365478515625,0.001447104848921299,0.0002532787621021271,0.0019347612978890538
1772649304619409700,2.50040966796875,-0.000730295549146831,-0.0017462228424847126,0.003870080690830946
1772649304629453300,2.510453369140625,0.0003496032441034913,-0.0005102800205349922,0.002338192891329527
1772649304639497500,2.52049755859375,0.0013224560534581542,0.00311481487005949,-0.003572693094611168
1772649304649542700,2.530542724609375,0.002656825352460146,-0.0013194186612963676,-0.0010258798720315099
1772649304659586300,2.54058642578125,0.0006980702746659517,0.0017586634494364262,-0.0002961737336590886
1772649304669630500,2.55063037109375,0.0009107575751841068,0.001928419340401888,0.00007065897807478905
1772649304679674400,2.56067431640625,0.00016746926121413708,0.0007193442434072495,-0.003642586525529623
1772649304689718500,2.570718505859375,-0.0032983296550810337,-0.0008585155010223389,0.00004730175714939833
1772649304699762700,2.5807626953125,0.0005797654157504439,-0.0001277443952858448,0.001452918048016727
1772649304709807400,2.590807373046875,0.0037124333903193474,-0.001777642872184515,0.001999801956117153
1772649304719851500,2.6008515625,-0.0013422463089227676,-0.0006023901514708996,0.00015716080088168383
1772649304729895400,2.6108955078125,-0.002517296001315117,0.00033550849184393883,-0.0019621476531028748
1772649304739939300,2.620939208984375,-0.0012927744537591934,0.0002598743885755539,-0.0011038108495995402
1772649304749983500,2.6309833984375,-0.0008422797545790672,-0.0012378082610666752,-0.001983384136110544
1772649304760028400,2.6410283203125,-0.00018581055337563157,-0.0002495092339813709,-0.0009394249063916504
1772649304770072600,2.651072509765625,-0.0012642299989238381,-0.00007724575698375702,0.004349356051534414
1772649304780116500,2.661116455078125,0.001788551569916308,-0.0010090856812894344,0.0009080196032300591
1772649304790160400,2.671160400390625,0.0013431076658889651,-0.0009449897333979607,0.0008116790559142828
1772649304800204500,2.68120458984375,0.0006402995204553008,-0.00047627324238419533,0.00009395706001669168
1772649304810248400,2.69124853515625,0.0008724953513592482,-0.0009165960364043713,-0.0009137624292634428
1772649304820293400,2.70129345703125,-0.0012122271582484245,0.00006477907299995422,-0.0012634354643523693
1772649304830337500,2.711337646484375,-0.0006384289590641856,0.0004977942444384098,-0.0026438215281814337
1772649304840381400,2.72138134765625,0.0015791852492839098,0.0006948681548237801,-0.005662248469889164
1772649304850425600,2.731425537109375,0.001095938729122281,-0.0019655562937259674,-0.0007708735065534711
1772649304860469500,2.741469482421875,0.0018970174714922905,0.0006251665763556957,0.00222544907592237
1772649304870514400,2.751514404296875,-0.0009378855465911329,-0.00002278946340084076,0.003602363634854555
1772649304880558600,2.76155859375,-0.0014654577244073153,0.0031354534439742565,-0.0009630934218876064
1772649304890602200,2.771602294921875,0.0022796012926846743,0.0000534961000084877,0.0004522638628259301
1772649304900646400,2.781646484375,-0.0007694517262279987,-0.0015079155564308167,0.0017425655387341976
1772649304910690600,2.791690673828125,-0.00037173577584326267,0.0002258489839732647,-0.003056687768548727
1772649304920734500,2.801734375,-0.00027293252060189843,0.0013188105076551437,-0.001708595547825098
1772649304930779400,2.811779296875,0.00042584293987601995,-0.0008139088749885559,-0.0008601119043305516
1772649304940823600,2.821823486328125,0.00021518685389310122,-0.001284223049879074,0.0035223858430981636
1772649304950867500,2.831867431640625,0.0013313833624124527,0.0014795316383242607,-0.0008906644652597606
1772649304960911600,2.84191162109375,-0.001184771303087473,0.0010222671553492546,-0.0011370069114491343
1772649304970955300,2.851955322265625,-0.0015145306242629886,0.0007426384836435318,0.0007757863495498896
1772649304981000400,2.86200048828125,0.0019148217979818583,0.000008937902748584747,0.004073312506079674
1772649304991044600,2.872044677734375,-0.000551633769646287,0.0012693535536527634,-0.001147289527580142
1772649305001088300,2.882088134765625,0.002240158151835203,0.00022725900635123253,-0.0022378540597856045
1772649305011132400,2.89213232421875,-0.001080100191757083,0.0002870885655283928,0.0004383702762424946
1772649305021176600,2.902176513671875,-0.0004894110606983304,-0.001875131856650114,0.0017292043194174767
1772649305031220500,2.912220458984375,-0.0007747267372906208,-0.0012672324664890766,-0.001255619223229587
1772649305041265400,2.922265380859375,0.0014980148989707232,-0.0012986580841243267,-0.0011232601245865226
1772649305051309600,2.9323095703125,-0.00036961224395781755,-0.0002508074976503849,0.0008112549548968673
1772649305061353500,2.942353515625,-0.000039912876673042774,0.002701573073863983,0.0022858474403619766
1772649305071397600,2.952397705078125,0.0002569227945059538,-0.00123958894982934,-0.0010893206344917417
1772649305081441300,2.962441162109375,-0.0027564438059926033,-0.0018515833653509617,-0.0006059568841010332
1772649305091485400,2.9724853515625,0.0005459043895825744,-0.0008474583737552166,0.0013291065115481615
1772649305101530600,2.982530517578125,-0.001279426272958517,-0.0006099040620028973,0.0002571842633187771
1772649305111574500,2.992574462890625,-0.00083510996773839,0.0018622498027980328,-0.0017936979420483112
1772649305121618400,3.002618408203125,0.0004104503896087408,-0.001985752023756504,0.00015839911065995693
1772649305131662300,3.012662353515625,-0.0009618854383006692,-0.0008189394138753414,-0.001550244982354343
1772649305141706500,3.02270654296875,-0.0014220797456800938,-0.00046101026237010956,0.0029797921888530254
1772649305151751400,3.03275146484375,-0.00026099971728399396,0.0025429530069231987,-0.000034894910641014576
1772649305161795300,3.04279541015625,-0.0009174689184874296,-0.0006661564111709595,0.000734225963242352
1772649305171839500,3.052839599609375,-0.0005625145859085023,0.0008906410075724125,0.0005995553219690919
1772649305181883600,3.062883544921875,-0.001501811551861465,-0.000522964634001255,0.0016315303510054946
1772649305191927600,3.072927490234375,0.0007588778389617801,0.0026976526714861393,0.0005882458062842488
1772649305201971500,3.082971435546875,0.0004587395815178752,0.00011305464431643486,0.0006492320680990815
1772649305212016600,3.0930166015625,-0.0016394059639424086,0.00029182247817516327,-0.0006616988684982061
1772649305222060500,3.103060546875,0.000290586962364614,0.0010343114845454693,0.0028478146996349096
1772649305232104400,3.1131044921875,0.0007641352713108063,-0.0012876703403890133,0.0007214827928692102
1772649305242148400,3.1231484375,-0.000959196244366467,-0.0008027087897062302,0.002241348847746849
1772649305252192500,3.133192626953125,-0.00016032974235713482,0.00017026439309120178,-0.0011043488048017025
1772649305262237400,3.143237548828125,-0.00027644354850053787,0.0004110140725970268,-0.0011608079075813293
1772649305272281300,3.15328125,-0.0001420406042598188,0.000040969811379909515,0.00013063335791230202
1772649305282325500,3.163325439453125,0.00042068527545779943,-0.0002618315629661083,0.00208858959376812
1772649305292369400,3.173369384765625,0.00014675024431198835,-0.00141454441472888,0.001954840263351798
1772649305302413600,3.18341357421875,-0.0015464875614270568,0.0005340906791388988,0.00046160584315657616
1772649305312457500,3.19345751953125,-0.00013570551527664065,0.00033513689413666725,-0.002699033822864294
1772649305322503200,3.203503173828125,-0.000013732700608670712,0.001222236081957817,-0.0017006148118525743
1772649305332547000,3.213547119140625,0.00040474720299243927,0.0005708965472877026,0.001165773719549179
1772649305342591000,3.223591064453125,0.0012905144831165671,0.00029792264103889465,0.0032931070309132338
1772649305352635000,3.233634765625,0.00018016493413597345,-0.0005525867454707623,-0.0007704998715780675
1772649305362679000,3.243678955078125,-0.0002986714243888855,0.0026639788411557674,0.0007594861090183258
1772649305372724000,3.253723876953125,0.002486033597961068,-0.0002280878834426403,0.0010085919639095664
1772649305382767900,3.263767822265625,-0.0023329565301537514,0.0019168215803802013,0.00004585913848131895
1772649305392812000,3.27381201171875,-0.0019692496862262487,-0.00010691070929169655,0.00040197314228862524
1772649305402856200,3.283856201171875,0.0005338555201888084,-0.0010169129818677902,-0.0030114003457129
1772649305412900000,3.293900146484375,-0.00005802290979772806,-0.00007247133180499077,0.00295986607670784
1772649305422944000,3.303944091796875,-0.00012833031360059977,-0.001337206456810236,-0.00027986918576061726
1772649305432989200,3.3139892578125,-0.0009119318565353751,0.0006022816523909569,-0.0005525871529243886
1772649305443033000,3.324033203125,-0.0011822427622973919,-0.0017231907695531845,-0.001014911918900907
1772649305453077000,3.334076904296875,0.0014846831327304244,0.001340765506029129,-0.0037509258836507797
1772649305463121000,3.344120849609375,-0.0005971097853034735,0.004072369076311588,-0.002373805269598961
1772649305473165000,3.3541650390625,-0.00010997301433235407,0.0007803249172866344,-0.003944775089621544
1772649305483209000,3.364208984375,-5.171168595552444e-7,-0.000013030599802732468,0.0014720943290740252
1772649305493254000,3.37425390625,-0.0026639539282768965,0.0021437411196529865,0.0018615323351696134
1772649305503298000,3.384298095703125,-0.00010359089355915785,0.0007543698884546757,-0.0026306877844035625
1772649305513342000,3.394342041015625,0.0009358319221064448,0.0004981672391295433,-0.001560063217766583
1772649305523386000,3.40438623046875,0.00011078477837145329,-0.00019771698862314224,-0.0003760217223316431
1772649305533430000,3.414429931640625,-0.00038683757884427905,0.000021451152861118317,-0.0008859694935381413
1772649305543475000,3.424474853515625,-0.0008438359946012497,0.0017546368762850761,0.00017902860417962074
1772649305553519000,3.43451904296875,-0.0006787625607103109,-0.00017641857266426086,0.0003953377017751336
1772649305563563000,3.44456298828125,0.0010331172961741686,0.00014582369476556778,0.0016534150345250964
1772649305573607000,3.45460693359375,-0.0004945143009535968,-0.0016277413815259933,0.0023331106640398502
1772649305583651000,3.464651123046875,0.002617655787616968,-0.00018990039825439453,-0.0003446977352723479
1772649305593695000,3.474695068359375,0.0014636644627898932,-0.0000018104910850524902,-0.0000578342005610466
1772649305603740000,3.484739990234375,-0.0010026890086010098,0.00021257391199469566,-0.0011292238486930728
1772649305613784000,3.4947841796875,0.0012611441779881716,-0.001508323010057211,-0.0009458743734285235
1772649305623828000,3.504827880859375,-0.0005197116988711059,-0.002264128066599369,0.001090644858777523
1772649305633872100,3.5148720703125,-0.0019475368317216635,-0.0019144071266055107,0.000032844836823642254
1772649305643915800,3.524915771484375,-0.00008705258369445801,-0.0012454213574528694,-0.0023786474484950304
1772649305653960000,3.5349599609375,0.002615472301840782,0.0009129620157182217,0.0016500592464581132
1772649305664005000,3.545005126953125,-0.0005539555568248034,0.0014876718632876873,-0.004134060349315405
1772649305674049000,3.555049072265625,0.00029931520111858845,-0.001161585096269846,-0.002337560523301363
1772649305684093000,3.565093017578125,-0.0010386569192633033,-0.000632148701697588,-0.0016107839765027165
1772649305694137000,3.57513720703125,0.00045854784548282623,0.0008928584866225719,-0.0000803195871412754
1772649305704181000,3.585180908203125,0.0032468773424625397,0.0005375929176807404,0.0028949640691280365
1772649305714226000,3.595225830078125,0.0022146590054035187,-0.00001040194183588028,0.0004956467309966683
1772649305724270000,3.60527001953125,0.0015288948779925704,-0.0007254607044160366,-0.0027470181230455637
1772649305734314000,3.61531396484375,-0.0013842181069776416,0.0015635304152965546,-0.0008163093007169664
1772649305744358100,3.625358154296875,0.0024656476452946663,0.0008620535954833031,-0.0020299118477851152
1772649305754402000,3.635402099609375,-0.002120289020240307,0.00022102752700448036,-0.00011721521150320768
1772649305764446000,3.645446044921875,0.0019934959709644318,-0.0011744685471057892,0.00046308746095746756
1772649305774491100,3.6554912109375,0.0012372008059173822,-0.0018447781912982464,-0.0005398865323513746
1772649305784535000,3.66553515625,-0.002168982056900859,0.0021470338106155396,-0.00018089241348206997
1772649305794579000,3.675578857421875,-0.000738946720957756,-0.002006778959184885,0.00037304835859686136
1772649305804623000,3.685623046875,-0.0005892770132049918,0.00036769546568393707,0.0013701358111575246
1772649305814667000,3.6956669921875,0.0005238859448581934,0.0016461033374071121,-0.002798020374029875
1772649305824712000,3.7057119140625,0.000040255836211144924,0.0008378340862691402,-0.0006243483512662351
1772649305834755800,3.715755859375,-0.001573316054418683,0.0017681135796010494,-0.0018710966687649488
1772649305844800000,3.725800048828125,0.0015034339157864451,-0.0015579084865748882,0.00020004366524517536
1772649305854844200,3.73584423828125,-0.0018982705660164356,-0.0000728941522538662,0.00023929646704345942
1772649305864888000,3.74588818359375,0.0000330538023263216,-0.0010316320694983006,-0.0019074776209890842
1772649305874932000,3.755931884765625,-0.0011093484936282039,0.0010430910624563694,-0.0017119814874604344
1772649305884977200,3.76597705078125,0.000006249640136957169,-0.0026901280507445335,-0.000013683689758181572
1772649305895021000,3.77602099609375,0.0015293887117877603,0.0008484246209263802,0.0016448398819193244
1772649305905065000,3.78606494140625,-0.00198731548152864,0.00205217394977808,-0.002626071684062481
1772649305915108900,3.79610888671875,0.0003544646315276623,0.0013957209885120392,-0.00034134392626583576
1772649305925153000,3.806153076171875,-0.0007755145779810846,0.00017732474952936172,-0.001484905369579792
1772649305935197200,3.816197265625,0.00010764098260551691,0.001031647901982069,-0.00005087337922304869
1772649305945241900,3.826241943359375,0.0013806319329887629,-0.0009236452169716358,-0.001566478400491178
1772649305955286000,3.8362861328125,0.00030061055440455675,0.0008786693215370178,0.00010974542237818241
1772649305965330200,3.846330078125,-0.0005175125552341342,-0.00006941612809896469,0.0012815361842513084
1772649305975374000,3.8563740234375,0.0012135313590988517,-0.0025466205552220345,0.0028722279239445925
1772649305985418000,3.86641796875,0.0005056631052866578,0.00148007832467556,-0.003915370441973209
1772649305995463000,3.876462890625,-0.0012431874638423324,-0.0008869473822414875,-0.0004721779841929674
1772649306005507000,3.886507080078125,-0.00035981700057163835,0.0007988335564732552,0.0017534256912767887
1772649306015551000,3.896551025390625,-0.00001895276363939047,0.0006501032039523125,0.0019014691933989525
1772649306025595000,3.906594970703125,0.00087560317479074,0.0006389175541698933,0.00028599577490240335
1772649306035639000,3.91663916015625,0.002014333847910166,-0.0009102500043809414,-0.001038235961459577
1772649306045683000,3.926682861328125,-0.00027225620578974485,-0.0009392783977091312,-0.0035645104944705963
1772649306055727900,3.936727783203125,0.0001962585374712944,0.0008775396272540092,-0.0017258793814107776
1772649306065772000,3.94677197265625,0.00007348682265728712,-0.00010649813339114189,0.0006400729762390256
1772649306075816000,3.95681591796875,0.0034664133563637733,-0.0021360195241868496,-0.001967955846339464
1772649306085860000,3.966860107421875,-0.0007850566762499511,-0.0011951248161494732,-0.0018358629895374179
1772649306095904000,3.976904052734375,-0.0020186498295515776,0.0007167002186179161,-0.00004724820610135794
1772649306105949000,3.986948974609375,-0.0010093117598444223,-0.0017896005883812904,-0.0018462134758010507
1772649306115993000,3.9969931640625,0.00024058192502707243,0.00021575530990958214,0.0014196811243891716
1772649306126037200,4.007037353515625,0.0009958544978871942,-0.00009503541514277458,0.0001885016681626439
1772649306136081000,4.017080810546875,-0.0008124636369757354,0.0003735651262104511,-0.003053859109058976
1772649306146125000,4.027125,-0.0012766525615006685,-0.0006075436249375343,0.0009094573324546218
1772649306156169000,4.0371689453125,0.0015722111565992236,-0.002333984710276127,0.004379067104309797
1772649306166214000,4.0472138671875,-0.002520534908398986,0.0011768601834774017,-0.0004279385320842266
1772649306176258000,4.057258056640625,0.0017896348144859076,0.0016731866635382175,-0.001427283976227045
1772649306186302000,4.067302001953125,0.0008079936960712075,0.0006108512170612812,-0.0009351318003609776
1772649306196346000,4.07734619140625,-0.0015371644403785467,0.0005219089798629284,0.0032361550256609917
1772649306206390000,4.08739013671875,-0.0008298289030790329,0.000926177017390728,0.0012233377201482654
1772649306216434000,4.097433837890625,0.0010887251701205969,-0.0018604672513902187,0.0007029486587271094
1772649306226479000,4.10747900390625,-0.0005493852077051997,-0.00014672335237264633,-0.0011356977047398686
1772649306236523000,4.11752294921875,0.0010981840314343572,-0.0008566603064537048,0.0006407879991456866
1772649306246567000,4.12756689453125,0.0003698095679283142,-0.0008438769727945328,0.0008498461684212089
1772649306256611000,4.137611083984375,-0.00020737963495776057,0.001896542962640524,0.0008708559907972813
1772649306266655000,4.147655029296875,-0.00015278480714187026,0.0017026648856699467,-0.0003504697233438492
1772649306276700000,4.157699951171875,-0.0004980157245881855,0.0002922345884144306,-0.000010946998372673988
1772649306286744000,4.167744140625,-0.000805877149105072,-0.00033973343670368195,-0.0016985922120511532
1772649306296788000,4.1777880859375,-0.0007601206307299435,0.001764112152159214,0.0010234571527689695
1772649306306832100,4.18783203125,-0.000392604386433959,0.0014115097001194954,-0.0010625969152897596
1772649306316876000,4.1978759765625,0.0006570223486050963,-0.0006535728462040424,-0.00003395008388906717
1772649306326920000,4.207919921875,0.00135130831040442,0.00028412602841854095,-0.000783363648224622
1772649306336965000,4.217965087890625,-0.0010769566288217902,0.0008975071832537651,0.000970158027485013
1772649306347009000,4.228009033203125,0.0005020316457375884,0.000653028953820467,0.0020106551237404346
1772649306357053000,4.238052978515625,0.0007068687118589878,-0.00032419711351394653,-0.00029194855596870184
1772649306367096800,4.248096923828125,0.00041179044637829065,0.0008473275229334831,0.0013789186486974359
1772649306377141000,4.25814111328125,0.00022540672216564417,-0.0001842244528234005,-0.00004037877079099417
1772649306387185000,4.268184814453125,-0.00033731921575963497,0.0003494727425277233,0.0007867990061640739
1772649306397229800,4.278229736328125,0.0009362692944705486,0.00189582584425807,-0.001640869420953095
1772649306407274000,4.28827392578125,-0.0007343317847698927,-0.0029977329540997744,-0.0002616182900965214
1772649306417318000,4.29831787109375,0.0008718292228877544,-0.0013302341103553772,0.001306952559389174
1772649306427362000,4.308362060546875,0.0035818617325276136,0.0001044110395014286,-0.0013127990532666445
1772649306437406000,4.318406005859375,-0.0010605085408315063,0.0008420026861131191,-0.0019730280619114637
1772649306447451000,4.328450927734375,-0.000268750824034214,-0.0017367363907396793,0.000962574384175241
1772649306457495000,4.3384951171875,0.0002874321071431041,-0.0010653864592313766,-0.0011081378906965256
1772649306467539200,4.348539306640625,0.0010253939544782043,0.0007998915389180183,-0.0006367583991959691
1772649306477582800,4.358582763671875,-0.0003908551298081875,0.00048209400847554207,-0.00016310345381498337
1772649306487627000,4.368626953125,-0.0005325352540239692,0.0004069930873811245,-0.000060039106756448746
1772649306497671000,4.3786708984375,0.0015555261634290218,-0.0010390374809503555,0.0018322665710002184
1772649306507715800,4.3887158203125,-0.0008913861820474267,-0.000921592116355896,0.00142054189927876
1772649306517760000,4.398760009765625,-0.0007774042314849794,0.0005997647531330585,0.00025708822067826986
1772649306527804000,4.408803955078125,0.0021281044464558363,0.0008042952977120876,0.002305325586348772
1772649306537848000,4.41884814453125,0.0003632024163380265,0.00007585668936371803,-0.0008444595732726157
1772649306547892000,4.42889208984375,0.0023288815282285213,-0.0013667773455381393,0.0006687486311420798
1772649306557937000,4.43893701171875,-0.004192946013063192,0.0012525543570518494,-0.0029117614030838013
1772649306567981000,4.44898095703125,0.0014060839312151074,-0.0015003555454313755,0.0007221220294013619
1772649306578025000,4.45902490234375,0.001302725519053638,0.00020214403048157692,0.0005390777951106429
1772649306588068900,4.46906884765625,-0.0005005007842555642,-0.0020391722209751606,-0.000692367902956903
1772649306598113000,4.479113037109375,-0.00026322982739657164,0.003170234151184559,0.0019009835086762905
1772649306608157000,4.489156982421875,0.0015724871773272753,0.0002727154642343521,-0.00006176624447107315
1772649306618201900,4.499201904296875,-0.000781912007369101,-0.00007753726094961166,-0.0002376725897192955
1772649306628246000,4.50924609375,-0.0004359673475846648,-0.0015374822542071342,-0.0017836375627666712
1772649306638290000,4.5192900390625,0.00039490521885454655,-0.0006262385286390781,-0.0002481653355062008
1772649306648334000,4.529333984375,-0.001954801846295595,-0.0029141604900360107,0.001955334097146988
1772649306658378000,4.5393779296875,-0.0005856817006133497,-0.0002599358558654785,-0.0016632756451144814
1772649306668422000,4.549421875,-0.0004876774037256837,0.00042795855551958084,-0.0011926951119676232
1772649306678467000,4.559467041015625,0.00014062738046050072,-0.00008691893890500069,0.000056900433264672756
1772649306688511000,4.569510986328125,-0.00017655512783676386,-0.0017924071289598942,-0.001522620441392064
1772649306698555000,4.579554931640625,-0.00007818511221557856,0.001664013136178255,-0.0012770085595548153
1772649306708598800,4.589598876953125,-0.001501644728705287,0.0021108915098011494,-0.0005574224633164704
1772649306718643000,4.599642822265625,0.00128492945805192,-0.00045975949615240097,0.002298696432262659
1772649306728688000,4.609688232421875,0.0002428344450891018,0.00035410234704613686,0.000957528711296618
1772649306738731800,4.619731689453125,0.0005508826579898596,-0.0009094779379665852,0.0004582044202834368
1772649306748776000,4.62977587890625,0.0024992511607706547,-0.00019069062545895576,0.00035061268135905266
1772649306758820000,4.639820068359375,-0.0010779083240777254,-0.000574375968426466,-0.0000486570643261075
1772649306768864000,4.649864013671875,-0.0009700502851046622,0.0007809065282344818,0.0001769127557054162
1772649306778908000,4.659907958984375,0.00087212142534554,0.0020777909085154533,-0.00173997413367033
1772649306788953000,4.669953125,-0.0006735772476531565,-0.0015845876187086105,0.003221760969609022
1772649306798997000,4.6799970703125,0.0007784465560689569,-0.001962828915566206,0.0005584603641182184
1772649306809041000,4.690041015625,-0.000193873536773026,0.0000947294756770134,-0.000489759782794863
1772649306819084800,4.700084716796875,-0.0020776886958628893,-0.00017060386016964912,0.0005572860827669501
1772649306829129000,4.71012890625,-0.000940252561122179,0.0005678907036781311,-0.00006269791629165411
1772649306839174100,4.720174072265625,-0.0005843086983077228,-0.0008170884102582932,-0.0018131625838577747
1772649306849217800,4.7302177734375,-0.0003614021115936339,-0.001156108919531107,0.00008567131590098143
1772649306859262000,4.740261962890625,-0.0004770476371049881,0.00009537534788250923,-0.000846927345264703
1772649306869305900,4.750305908203125,-0.00031566008692607284,-0.00020476290956139565,-0.0024128661025315523
1772649306879350000,4.76035009765625,-0.0018130302196368575,-0.0003671310842037201,0.000023932429030537605
1772649306889394000,4.770393798828125,0.00022668484598398209,0.0011745728552341461,0.0007696176180616021
1772649306899438800,4.78043896484375,-0.00008973653893917799,0.0003964020870625973,-0.0041350750252604485
1772649306909483000,4.79048291015625,0.000017855199985206127,0.0007175793871283531,0.003048002952709794
1772649306919527200,4.800527099609375,-0.0012459331192076206,0.0015195016749203205,-0.0009668287239037454
1772649306929570800,4.81057080078125,-0.0005820071091875434,0.0005157557316124439,-0.0037309236358851194
1772649306939615000,4.820614990234375,-0.0003918419824913144,0.00024458905681967735,-0.0017602406442165375
1772649306949659000,4.830658935546875,0.00035970204044133425,0.0009207655675709248,0.0007298149866983294
1772649306959703800,4.840703857421875,-0.0012613730505108833,0.000868744682520628,0.0031471513211727142
1772649306969748000,4.850748046875,0.00020656129345297813,-0.0027417028322815895,-0.0011842137901112437
1772649306979792000,4.8607919921875,-0.0009420348796993494,0.001976198051124811,0.0004038936458528042
1772649306989836000,4.8708359375,0.00035891926381736994,0.0007737805135548115,0.0008835288463160396
1772649306999880200,4.880880126953125,0.0006614465964958072,-0.001711136195808649,0.001892488682642579
1772649307009923800,4.890923828125,0.0010617197258397937,0.0021501812152564526,0.0016261725686490536
1772649307019969000,4.900968994140625,-0.0004638123791664839,-0.0015897233970463276,-0.0003479166189208627
1772649307030013200,4.91101318359375,-0.0012742122635245323,0.0026415069587528706,-0.001616113819181919
1772649307040056800,4.921056884765625,0.0006724551785737276,-0.0004336908459663391,-0.002439280040562153
1772649307050101000,4.93110107421875,-0.0015403653960675001,0.0006693904288113117,-0.0010222122073173523
1772649307060145000,4.941144775390625,0.0006373790092766285,-0.00047510117292404175,0.00005498004611581564
1772649307070190000,4.951190185546875,-0.00035544740967452526,0.001647171564400196,-0.0004534174222499132
1772649307080234000,4.96123388671875,0.0012232663575559855,0.0006828685291111469,-0.001182164647616446
1772649307090276000,4.971276123046875,0.0006818458205088973,-0.0016620447859168053,0.0028836834244430065
1772649307100321000,4.981321044921875,0.0005723776994273067,0.00048277340829372406,0.0022064358927309513
1772649307110365000,4.991364990234375,-0.002277204766869545,0.00030434131622314453,-0.004078624304383993
1772649307120409000,5.0014091796875,0.0009580260375514627,-0.00006830459460616112,-0.0010211230255663395
1772649307130453000,5.011452880859375,0.001110625104047358,-0.000907466746866703,-0.0014046182623133063
1772649307140497000,5.021496826171875,-0.0019472935236990452,-0.0008880030363798141,-0.00002622127067297697
1772649307150541000,5.031541015625,0.0019547701813280582,0.000021999236196279526,0.0019980473443865776
1772649307160586000,5.0415859375,0.0012317196233198047,0.0006137765012681484,-0.00010819151066243649
1772649307170630000,5.0516298828125,0.000491893501020968,0.0002348087728023529,-0.0005433520418591797
1772649307180674000,5.061674072265625,0.0008662461768835783,-0.0014775795862078667,0.002340215491130948
1772649307190718000,5.071718017578125,0.000597533187828958,-0.000634422991424799,0.0001724022440612316
1772649307200762000,5.08176220703125,0.0008411883609369397,0.0008724997751414776,0.00036424375139176846
1772649307210806000,5.091805908203125,0.0013250845950096846,0.0011201738379895687,0.00033148680813610554
1772649307220851000,5.101850830078125,0.0012956785503774881,-0.0002059941180050373,0.0006103902123868465
1772649307230895000,5.11189501953125,-0.000019656727090477943,0.0014638076536357403,-0.0012389087351039052
1772649307240939000,5.12193896484375,-0.0019112061709165573,-0.00027976417914032936,-0.001518655801191926
1772649307250983000,5.13198291015625,-0.0006872173980809748,0.0004866933450102806,-0.0016813748516142368
1772649307261026800,5.14202685546875,0.0016613274347037077,0.0007957583293318748,-0.0018781881080940366
1772649307271072000,5.152072021484375,-0.001595718553289771,0.00003356160596013069,-0.00018628197722136974
1772649307281116000,5.162115966796875,0.002269876655191183,-0.0007411874830722809,0.002059637103229761
1772649307291159800,5.172159912109375,-0.00041831820271909237,-0.00007726112380623817,0.00024922017473727465
1772649307301204000,5.182203857421875,0.0017522744601592422,-0.0005402732640504837,-0.0016801694873720407
1772649307311248100,5.192248046875,0.0017323008505627513,0.00012897932901978493,-0.0006005240720696747
1772649307321292300,5.202292236328125,0.0015431293286383152,0.0017606355249881744,0.0007226155139505863
1772649307331337000,5.2123369140625,-0.000289658026304096,-0.0003059776499867439,0.0016802882310003042
1772649307341381000,5.222381103515625,-0.0004762520547956228,0.0007007727399468422,-0.0018636105814948678
1772649307351425300,5.23242529296875,0.000704593607224524,-0.0009186957031488419,0.0009694601176306605
1772649307361469000,5.242468994140625,0.0013608853332698345,-0.0006349785253405571,-0.0002093298826366663
1772649307371513000,5.25251318359375,0.000027706963010132313,-0.000012331176549196243,0.0015286491252481937
1772649307381558300,5.262558349609375,-0.0008264482021331787,0.0013719419948756695,0.0018830123590305448
1772649307391602000,5.272601806640625,0.00026331725530326366,-0.0002049161121249199,-0.0016747044865041971
1772649307401646000,5.28264599609375,0.0009670971194282174,-0.0026909909211099148,0.0009952998952940106
1772649307411690000,5.29268994140625,0.00027147948276251554,-0.0014946991577744484,0.003347403835505247
1772649307421734100,5.302734130859375,-0.0008008403819985688,-0.0007715411484241486,-0.0014184251194819808
1772649307431779000,5.312779052734375,-0.001250381930731237,-0.0010807341895997524,-0.0011981816496700048
1772649307441824300,5.32282421875,0.0004496687324717641,-0.0014608199708163738,0.000005559646524488926
1772649307451868200,5.3328681640625,0.000345272826962173,0.0006201737560331821,0.0010122344829142094
1772649307461912000,5.342912109375,-0.0001953902537934482,0.0011344566009938717,0.0009266629349440336
1772649307471956000,5.3529560546875,0.0007055571768432856,0.0009155450388789177,-0.00035405135713517666
1772649307482000100,5.363000244140625,-0.0023439922370016575,0.001344752497971058,-0.0020405289251357317
1772649307492044300,5.373044189453125,0.0019660675898194313,0.002048891969025135,-0.0007374441483989358
1772649307502089000,5.3830888671875,0.0001756196143105626,-0.001989712007343769,0.00022621545940637589
1772649307512133000,5.393133056640625,-0.0023858086206018925,0.001999436877667904,0.001773511990904808
1772649307522177000,5.403177001953125,-0.00041730666998773813,0.0010809572413563728,0.0013084199745208025
1772649307532221200,5.41322119140625,-0.00022635806817561388,-0.0007875170558691025,-0.002964089158922434
1772649307542265000,5.42326513671875,-0.0015466393670067191,-0.0004737274721264839,-0.0004565456183627248
1772649307552310000,5.43331005859375,-0.0015567593509331346,-0.0024178349412977695,0.0002641057362779975
1772649307562354200,5.443354248046875,-0.0004171266919001937,0.0014266213402152061,-0.0019099833443760872
1772649307572398000,5.453398193359375,0.0008603916503489017,-0.0023164511658251286,0.00020829495042562485
1772649307582442000,5.46344189453125,-0.0002844586852006614,0.000895343255251646,0.001274626236408949
1772649307592486100,5.473486083984375,0.0007187541341409087,-0.0005707270465791225,0.0008815438486635685
1772649307602530000,5.483530029296875,-0.00010763504542410374,0.002513457089662552,-0.0007273824303410947
1772649307612575000,5.493574951171875,-0.00010230881161987782,-0.0009774141944944859,-0.00019075546879321337
1772649307622619100,5.503619140625,-0.0015878727426752448,0.00198238343000412,0.0016492317663505673
1772649307632663000,5.5136630859375,0.0015770279569551349,-0.0013803904876112938,0.0007219192339107394
1772649307642707200,5.523707275390625,0.0008914320496842265,-0.00041460758075118065,-0.0007003304781392217
1772649307652751000,5.533751220703125,-0.0000404078746214509,0.0004900684580206871,0.0008783914381638169
1772649307662796000,5.543796142578125,0.00035943672992289066,0.0021375534124672413,-0.0018645182717591524
1772649307672840200,5.553840087890625,-0.00024616613518446684,-0.0015096459537744522,0.0021845519077032804
1772649307682884000,5.563884033203125,0.00011219270527362823,0.0008661295287311077,-0.00024734099861234426
1772649307692928000,5.573927978515625,-0.00010884960647672415,-0.0010619992390275002,0.00040832930244505405
1772649307702972200,5.58397216796875,0.0011459292145445943,-0.00008842814713716507,0.0013600607635453343
1772649307713016000,5.59401611328125,0.0003861293662339449,0.0018040142022073269,0.00003700237721204758
1772649307723061000,5.60406103515625,-0.0003343034768477082,-0.0017378460615873337,0.0008272291161119938
1772649307733105200,5.614105224609375,0.0014657271094620228,-0.00034847483038902283,-0.00025108479894697666
1772649307743149000,5.624149169921875,0.0011956598609685898,-0.0008359178900718689,0.0012730873422697186
1772649307753193200,5.634193115234375,0.00039191788528114557,0.0004418669268488884,-0.00030110706575214863
1772649307763237000,5.644237060546875,0.0012314335908740759,0.0009057782590389252,0.001280222786590457
1772649307773281000,5.654281005859375,0.0012479450087994337,0.00025090714916586876,-0.002348866779357195
1772649307783326200,5.664326171875,-0.0004137598443776369,0.0007810811512172222,0.002111723879352212
1772649307793370000,5.6743701171875,0.00123766646720469,-0.002079420257359743,0.0009079750161617994
1772649307803414000,5.6844140625,-0.0003358186222612858,0.0010307887569069862,-0.00033169251400977373
1772649307813458200,5.694458251953125,0.0020817990880459547,0.00019428972154855728,0.0019301302963867784
1772649307823502000,5.704502197265625,0.0006633095908910036,-0.00031317584216594696,-0.00022096210159361362
1772649307833547000,5.714547119140625,-0.0017551069613546133,-0.0007291617803275585,0.0008395087206736207
1772649307843591000,5.7245908203125,-0.0003690396551974118,0.00041079800575971603,0.0006563804345205426
1772649307853635000,5.734635009765625,0.00018037052359431982,-0.0006046653725206852,0.00018952821847051382
1772649307863679200,5.74467919921875,-0.0005198123981244862,-0.0005791280418634415,-0.0012605085503309965
1772649307873723100,5.75472314453125,-0.00004363921470940113,0.0001862645149230957,-0.0018227017717435956
1772649307883767000,5.76476708984375,0.0007466602837666869,0.000059707555919885635,0.00036540941800922155
1772649307893812200,5.774812255859375,0.00029232504311949015,-0.001595979556441307,-0.0014721716288477182
1772649307903856000,5.784856201171875,-0.0002391031594015658,0.001454868819564581,-0.0029954612255096436
1772649307913900000,5.794900146484375,-0.00003430608194321394,0.0009595206938683987,-0.0015453699743375182
1772649307923944000,5.80494384765625,-0.0005923096323385835,-0.0019566183909773827,0.00048363651148974895
1772649307933988000,5.814988037109375,0.0001760123996064067,0.00045167841017246246,0.0010037519969046116
1772649307944033000,5.825032958984375,0.0001981636742129922,0.0009523737244307995,-0.00003165961243212223
1772649307954077000,5.835076904296875,0.0011949848849326372,-0.0004364647902548313,-0.00040396954864263535
1772649307964121000,5.84512109375,-0.0008552907966077328,0.0026434315368533134,-0.0016553837340325117
1772649307974165200,5.855165283203125,-0.0009351855842396617,-0.001981946639716625,0.000009358278475701809
1772649307984209200,5.865209228515625,0.0010297041153535247,0.0024321391247212887,0.0016761997248977423
1772649307994253000,5.875253173828125,-0.0009234582539647818,0.0003988160751760006,0.003238143865019083
1772649308004298200,5.88529833984375,-0.0015701674856245518,0.0012995488941669464,0.000681605888530612
1772649308014342100,5.895342041015625,0.0007017751922830939,-0.000478377565741539,0.001910122111439705
1772649308024386000,5.905385986328125,-0.0012521874159574509,0.0004638112150132656,-0.0001480072969570756
1772649308034430000,5.915429931640625,-0.0012210283894091845,0.004360015504062176,-0.00020313472487032413
1772649308044474000,5.92547412109375,0.0008476994698867202,-0.0006586778908967972,0.0002597386483103037
1772649308054518000,5.93551806640625,0.00009961763862520456,-0.00072072958573699,-0.0009794301586225629
1772649308064563000,5.94556298828125,0.000875720870681107,0.0008402718231081963,-0.0008977759862318635
1772649308074607000,5.955607177734375,-0.0003384141600690782,-0.0019099744968116283,-0.0003371805651113391
1772649308084651000,5.965651123046875,-0.0002587069175206125,0.0011597559787333012,0.0022002789191901684
1772649308094695200,5.975695068359375,0.0010744715109467506,0.0003996901214122772,0.000773889827542007
1772649308104739000,5.985739013671875,0.0021880939602851868,0.00015376880764961243,-0.00021047622431069613
1772649308114784000,5.995783935546875,-0.0003413765225559473,0.00023872358724474907,-0.0001433645375072956
1772649308124828200,6.005828125,0.0010394628625363111,-0.0013788966462016106,0.0006817895919084549
1772649308134872300,6.015872314453125,-0.0005847989814355969,0.000028317328542470932,0.0017960562836378813
1772649308144916000,6.025916015625,0.00011547817848622799,0.0007338239811360836,-0.00013146887067705393
1772649308154960100,6.035960205078125,0.0002041615080088377,0.0011311676353216171,-0.002044417429715395
1772649308165004000,6.046004150390625,0.0008372002048417926,-0.0006236592307686806,-0.001657723682001233
1772649308175049000,6.056049072265625,0.00028992060106247663,0.00007195817306637764,0.0012603019131347537
1772649308185093000,6.066093017578125,-0.00117187958676368,-0.0005305232480168343,0.001107619609683752
1772649308195137000,6.076136962890625,0.0004933950258418918,0.0016455450095236301,-0.0010263713775202632
1772649308205181200,6.08618115234375,-0.0011035638162866235,-0.00048087816685438156,0.0006121044280007482
1772649308215225000,6.09622509765625,-0.0005086137098260224,-0.00029019592329859734,-0.0016481203492730856
1772649308225270000,6.10627001953125,0.0008418074576184154,0.0004180474206805229,-0.0008792583248578012
1772649308235314200,6.116314208984375,0.001878842362202704,-0.0010610721074044704,0.0026691374368965626
1772649308245358000,6.126358154296875,0.0003709315788000822,-0.0019390997476875782,-0.002829934936016798
1772649308255402000,6.136402099609375,0.0003850463544949889,0.000046819448471069336,0.0008279168978333473
1772649308265446100,6.146446044921875,0.000004460569471120834,-0.0008695423603057861,0.0019043864449486136
1772649308275490000,6.156489990234375,0.0019091533031314611,0.0021616676822304726,-0.0019281686982139945
1772649308285535000,6.166534912109375,0.0022576157934963703,-0.001613108441233635,0.00003771856427192688
1772649308295579100,6.1765791015625,0.00016463769134134054,-0.0017196349799633026,-0.00026295240968465805
1772649308305623000,6.186623046875,-0.0011761033674702048,0.001141838263720274,-0.0003848500782623887
1772649308315667200,6.196667236328125,0.0006761250551789999,-0.00017402926459908485,0.0009139735484495759
1772649308325711600,6.206711669921875,-0.0013519827043637633,-0.00039489148184657097,0.0011934967478737235
1772649308335755500,6.216755615234375,0.001837685238569975,-0.0015187454409897327,-0.00159509910736233
1772649308345800700,6.22680078125,0.0013697687536478043,-0.0005961447022855282,0.0003204622771590948
1772649308355844600,6.2368447265625,-0.0011234825942665339,-0.000646744854748249,-0.00009019719436764717
1772649308365888500,6.246888427734375,0.002313139382749796,0.0009643100202083588,-0.0017703704070299864
1772649308375932700,6.2569326171875,0.00010884099174290895,0.0005227578803896904,0.0004887891700491309
1772649308385976600,6.2669765625,0.0014230567030608654,-0.0008227475918829441,-0.0006220397772267461
1772649308396021500,6.277021484375,0.0008424876723438501,0.0006864657625555992,-0.00043774908408522606
1772649308406065700,6.287065673828125,-0.0005847765714861453,-0.00018397578969597816,-0.0014993094373494387
1772649308416109600,6.297109619140625,0.000004580942913889885,-0.0009557595476508141,0.001002464210614562
1772649308426153700,6.30715380859375,-0.0006495557026937604,-0.0004127505235373974,-0.00024330406449735165
1772649308436197600,6.31719775390625,-0.00036113534588366747,0.0011172359809279442,-0.00242256885394454
1772649308446241500,6.327241455078125,-0.0009394553489983082,-0.00033993739634752274,-0.0006108650704845786
1772649308456286700,6.33728662109375,0.0004970537265762687,0.0019317385740578175,0.0030120990704745054
1772649308466330600,6.34733056640625,0.00009335181675851345,-0.0013157385401427746,0.0006377922836691141
1772649308476374500,6.35737451171875,0.0011082823621109128,0.0006105257198214531,-0.0010740876896306872
1772649308486418400,6.36741845703125,0.000568862771615386,0.0004968438297510147,0.0006735656643286347
1772649308496462600,6.377462646484375,0.0012724699918180704,0.00011814245954155922,0.00045199075248092413
1772649308506506800,6.3875068359375,0.0010708163026720285,-0.0007321201264858246,-0.001874682493507862
1772649308516551400,6.397551513671875,0.00019330461509525776,-0.001447977963835001,-0.002751395106315613
1772649308526595600,6.407595703125,-0.0012243010569363832,-0.00018557999283075333,0.0011215799022465944
1772649308536639700,6.4176396484375,-0.0008834165055304766,0.00023040547966957092,0.0016089382115751505
1772649308546683600,6.42768359375,0.00020296580623835325,0.00019398145377635956,-0.003014517482370138
1772649308556727600,6.4377275390625,-0.0009954565903171897,0.0010291486978530884,-0.0005447019939310849
1772649308566772700,6.447772705078125,0.0008584675379097462,0.0005176924169063568,-0.0010253031505271792
1772649308576816600,6.457816650390625,0.0003567278617992997,0.00003326358273625374,-0.0022695320658385754
1772649308586860500,6.467860595703125,0.0009883673628792167,0.0020437180064618587,-0.0003354613436385989
1772649308596904400,6.477904541015625,-0.0021605542860925198,0.0004918943159282207,-0.0017671766690909863
1772649308606948600,6.487948486328125,0.0023559327237308025,-0.002825693693011999,0.00007245736196637154
1772649308616992500,6.497992431640625,-0.0005293360445648432,0.00013334443792700768,-0.0007733626407571137
1772649308627037400,6.508037353515625,0.0007371605606749654,-0.002602340653538704,-0.0025453907437622547
1772649308637081600,6.51808154296875,-0.0019036298617720604,0.0005066334269940853,-0.0004076713230460882
1772649308647125500,6.52812548828125,-0.0005193373071961105,0.00034891627728939056,0.00019022764172405005
1772649308657169700,6.538169677734375,-0.0007265312597155571,0.00009564962238073349,0.0003004824975505471
1772649308667213600,6.548213623046875,0.0015629773261025548,-0.0022657616063952446,-0.0013049390399828553
1772649308677258500,6.558258544921875,-0.0012562449555844069,0.0012235119938850403,-0.0014828381827101111
1772649308687302700,6.568302734375,-0.0013116830959916115,-0.000243491493165493,-0.0017817695625126362
1772649308697346600,6.5783466796875,0.0013946210965514183,-0.001053358893841505,0.0011594254756346345
1772649308707390500,6.588390380859375,0.0024126111529767513,0.00009981496259570122,-0.0012374342186376452
1772649308717434600,6.5984345703125,-0.0010854509891942143,-0.0007827566005289555,-0.0013892344431951642
1772649308727478500,6.608478515625,0.0017061916878446937,-0.00021319417282938957,-0.0008989681955426931
1772649308737523500,6.6185234375,-0.00038465613033622503,0.0006296965293586254,0.0031860547605901957
1772649308747567600,6.628567626953125,-0.0003919396549463272,0.0008402056992053986,-0.0006191323045641184
1772649308757611500,6.638611572265625,0.00018383574206382036,-0.0015995162539184093,-0.000972001114860177
1772649308767655700,6.64865576171875,-0.001526500447653234,-0.001104237511754036,0.002416794653981924
1772649308777699600,6.658699462890625,-0.00024232419673353434,0.0015810281038284302,-0.002637085970491171
1772649308787743500,6.668743408203125,0.0002665382344275713,-0.00011029653251171112,-0.00017472077161073685
1772649308797788700,6.67878857421875,-0.0006908682407811284,0.0020979968830943108,-0.00124318094458431
1772649308807832600,6.68883251953125,0.0017464335542172194,0.0008019744418561459,0.002049126895144582
1772649308817876500,6.69887646484375,0.00013735168613493443,-0.000019078142940998077,0.000517010223120451
1772649308827920600,6.708920654296875,0.0007648837054148316,0.002115861512720585,0.0006418632110580802
1772649308837964500,6.718964599609375,-0.0007030507549643517,0.0007081148214638233,-0.0017648354405537248
1772649308848009500,6.729009521484375,0.0006131380796432495,-0.0029678295832127333,0.0006364055443555117
1772649308858053600,6.7390537109375,0.0011380471987649798,-0.0020117550157010555,0.001975975465029478
1772649308868097500,6.74909765625,0.0001498619094491005,0.0009098066948354244,-0.0009310805471614003
1772649308878141700,6.7591416015625,0.0004188412567600608,0.0005526770837605,0.0010383269982412457
1772649308888185600,6.769185546875,-0.0014145877212285995,0.0006456966511905193,-0.0019074282608926296
1772649308898229500,6.7792294921875,-0.0005988615448586643,-0.00025738123804330826,-0.0011284536449238658
1772649308908274700,6.789274658203125,-0.0004273476079106331,-0.0010387608781456947,-0.0029567547608166933
1772649308918318600,6.799318603515625,-0.001903005177155137,-0.0030041737481951714,-0.00006376288365572691
1772649308928362500,6.809362548828125,0.0013811917742714286,-0.0000075409188866615295,-0.00044952257303521037
1772649308938406700,6.81940673828125,-0.0038252882659435272,-0.00127733638510108,-0.0006753586349077523
1772649308948450600,6.829450439453125,0.002835808787494898,0.0006894865073263645,-0.0010441350750625134
1772649308958495700,6.839495849609375,0.0011428374564275146,-0.0005978858098387718,0.000980133656412363
1772649308968539400,6.849539306640625,-0.00022293784422799945,0.0014541815035045147,0.003738205647096038
1772649308978583600,6.85958349609375,0.0009509836090728641,-0.001787684392184019,-0.0027039810083806515
1772649308988627700,6.869627685546875,0.0008150392677634954,-0.0006798859685659409,0.0004837589804083109
1772649308998671600,6.879671630859375,0.000409173546358943,0.000420532189309597,0.002239048480987549
1772649309008715500,6.889715576171875,0.00008306012023240328,-0.0009697284549474716,-0.0009571428527124226
1772649309018760700,6.8997607421875,0.0003387235337868333,0.0014494871720671654,-0.0015438372502103448
1772649309028804600,6.9098046875,-0.0011943478602916002,0.000492490828037262,-0.0004412480047903955
1772649309038848500,6.9198486328125,-0.0014595987740904093,-0.0019477633759379387,-0.0009594991570338607
1772649309048892400,6.929892333984375,-0.0011925643775612116,0.0012154500000178814,-0.00031366641633212566
1772649309058936600,6.9399365234375,-0.000592820520978421,-0.0004514222964644432,-0.0006028856732882559
1772649309068980700,6.949980712890625,0.001188098220154643,-0.0016696946695446968,0.0010364517802372575
1772649309079025400,6.960025390625,-0.00015040661673992872,0.0019870917312800884,0.000655087293125689
1772649309089069600,6.970069580078125,0.0014164125313982368,-0.002848884090781212,-0.0015303565887734294
1772649309099113700,6.98011376953125,-0.0009351588087156415,0.0009162928909063339,-0.001320765819400549
1772649309109157600,6.99015771484375,0.000013278215192258358,-0.0030452681239694357,0.001945124357007444
1772649309119201500,7.000201416015625,-0.00028606102569028735,0.0015351022593677044,0.0027688401751220226
1772649309129246500,7.01024658203125,0.0018445299938321114,-0.000462427269667387,-0.0013489269185811281
1772649309139290600,7.02029052734375,0.0025563931558281183,0.002010850701481104,0.0006135563598945737
1772649309149334800,7.030334716796875,-0.0015664808452129364,-0.0010280557908117771,-0.002339927013963461
1772649309159378400,7.04037841796875,0.00034273939672857523,0.0003701038658618927,0.000657993252389133
1772649309169422600,7.050422607421875,0.00029656453989446163,-0.0008621392771601677,0.00017049605958163738
1772649309179466500,7.060466552734375,0.0005197373684495687,0.0005874191410839558,0.0004056532634422183
1772649309189511400,7.070511474609375,-0.0010173635091632605,0.0008328850381076336,0.00202429061755538
1772649309199555600,7.0805556640625,-0.0007262800354510546,0.0017253104597330093,-0.0016508717089891434
1772649309209599500,7.090599609375,0.0012266540434211493,-0.0013827742077410221,0.0001393937272951007
1772649309219643600,7.1006435546875,-0.002532131504267454,0.000769592821598053,-0.0028657172806560993
1772649309229687800,7.110687744140625,-0.0021575612481683493,-0.00519072450697422,-0.0016457031015306711
1772649309239732500,7.120732421875,-0.001817475538700819,0.0052169086411595345,-0.0005815039621666074
1772649309249776600,7.130776611328125,-0.00022592087043449283,-0.0021359105594456196,-0.003930238541215658
1772649309259820800,7.14082080078125,-0.00022778508719056845,0.0021198205649852753,0.0025883810594677925
1772649309269864400,7.150864501953125,-0.0010439965408295393,-0.0014417520724236965,0.0003178355982527137
1772649309279908600,7.16090869140625,0.00008837948553264141,0.0017471164464950562,-0.0012374504003673792
1772649309289952500,7.170952392578125,0.0020282065961509943,-0.002907266840338707,-0.00227171927690506
1772649309299997700,7.180997802734375,-0.0034342030994594097,0.0018283659592270851,-0.0010064513189718127
1772649309310041600,7.19104150390625,-0.0005118765402585268,-0.001439136452972889,-0.00034179934300482273
1772649309320085000,7.2010849609375,0.0024895058013498783,0.0017055240459740162,0.0029251002706587315
1772649309330129000,7.21112890625,-0.0014295090222731233,-0.0035904610995203257,0.0022362982854247093
1772649309340173000,7.221173095703125,0.00012870656792074442,0.0025324122980237007,-0.0005269976682029665
1772649309350217000,7.231217041015625,-0.0010383545886725187,-0.002283015288412571,0.0006140371551737189
1772649309360262000,7.241261962890625,0.00216489564627409,-0.0017096367664635181,0.0026955637149512768
1772649309370306000,7.25130615234375,-0.001320547889918089,-0.00019101658836007118,0.00033092719968408346
1772649309380350000,7.261349853515625,0.00032741622999310493,-0.001540440134704113,0.0001088195713236928
1772649309390393900,7.271393798828125,0.0001013302244246006,0.0011322195641696453,-0.00020568107720464468
1772649309400438000,7.28143798828125,0.00012370070908218622,0.0013700402341783047,0.00008833198808133602
1772649309410483000,7.29148291015625,-0.000052647897973656654,0.0018209363333880901,0.001828847685828805
1772649309420527000,7.301527099609375,0.0025087804533541203,-1.3364478945732117e-7,-0.0013765330659225583
1772649309430571000,7.311571044921875,0.0008419429650530219,-0.0007027792744338512,0.005207758862525225
1772649309440615000,7.321614990234375,-0.00046327232848852873,-0.0016407445073127747,0.0019816053099930286
1772649309450659000,7.3316591796875,-0.0007497949991375208,-0.0005584638565778732,-0.0014358640182763338
1772649309460703000,7.341702880859375,0.000032109091989696026,-0.000592818483710289,0.0010989326983690262
1772649309470748000,7.351747802734375,-0.0017972711939364672,-0.00018872879445552826,-0.00029146624729037285
1772649309480792000,7.3617919921875,0.0017636416014283895,-0.0001453189179301262,-0.000119426054880023
1772649309490836000,7.3718359375,-0.00013194617349654436,0.00006754789501428604,0.0034254961647093296
1772649309500880100,7.381880126953125,-0.002385779283940792,0.0032127411104738712,-0.0016992248129099607
1772649309510923800,7.391923828125,0.00014447595458477736,-0.001294577494263649,-0.0026595587842166424
1772649309520968000,7.401968017578125,-0.0023485091514885426,0.0017435569316148758,-0.0019373095128685236
1772649309531013000,7.41201318359375,-0.0007682560826651752,0.003514979500323534,0.0033873184584081173
1772649309541056800,7.422056884765625,0.000669584609568119,-0.001823060680180788,0.002612604759633541
1772649309551101000,7.432100830078125,0.00013886787928640842,-0.0005784472450613976,0.001090021338313818
1772649309561145000,7.44214501953125,-0.0011234704870730639,0.000908662099391222,-0.004013127647340298
1772649309571189000,7.45218896484375,-0.00038164021680131555,0.0013465462252497673,-0.0048925927840173244
1772649309581234000,7.46223388671875,-0.002412300556898117,0.0002844780683517456,0.001578888506628573
1772649309591278000,7.472278076171875,-0.00022784690372645855,-0.0013823951594531536,0.005685736425220966
1772649309601322000,7.482322021484375,0.0020832442678511143,0.0004706322215497494,-0.0003127674572169781
1772649309611366100,7.4923662109375,-0.0002928228350356221,0.0006220857612788677,-0.0028863968327641487
1772649309621409800,7.502409912109375,0.0008904197020456195,0.0015304898843169212,0.0003618608461692929
1772649309631454000,7.512453857421875,0.001144398469477892,-0.002403268124908209,-0.0003158717881888151
1772649309641499100,7.5224990234375,0.0008024484850466251,0.0006915912963449955,-0.0007361186435446143
1772649309651542800,7.532542724609375,-0.0023876475170254707,-0.00004159845411777496,-0.0037636428605765104
1772649309661587000,7.5425869140625,0.0001713838428258896,0.00042898207902908325,-0.0020498987287282944
1772649309671630800,7.552630859375,0.00044852716382592916,-0.000018615275621414185,0.0015642490470781922
1772649309681675000,7.562675048828125,0.000748665421269834,-0.0006862697191536427,0.0023062056861817837
1772649309691720000,7.572719970703125,-0.0019962633959949017,0.0006425147876143456,-0.001491459202952683
1772649309701763800,7.582763916015625,0.0014972712378948927,-0.0011929357424378395,-0.0010773376561701298
1772649309711808000,7.59280810546875,0.0005708442768082023,-0.00009892741218209267,0.00246296264231205
1772649309721852200,7.60285205078125,-0.0003567346720956266,-0.0014683245681226254,0.00038383284118026495
1772649309731895800,7.612895751953125,-0.00010022276546806097,0.0011153239756822586,-0.0028970902785658836
1772649309741940000,7.62293994140625,-0.00038464833050966263,0.0006189108826220036,-0.002235028427094221
1772649309751985200,7.632985107421875,0.0002439409727230668,-0.0013581314124166965,-0.0018089083023369312
1772649309762029000,7.643029052734375,0.0008785722311586142,0.0002288464456796646,0.0032921102829277515
1772649309772073000,7.653072998046875,-0.0025615645572543144,-0.0007807891815900803,-0.0005662480252794921
1772649309782116900,7.663116943359375,-0.0014824518002569675,0.0013393531553447247,-0.003340995404869318
1772649309792161000,7.6731611328125,-0.00040458538569509983,-0.0006314259953796864,0.002007265342399478
1772649309802205200,7.683205078125,-0.002275988692417741,0.00035820482298731804,-0.00047986075514927506
1772649309812249900,7.693249755859375,-0.0001625308650545776,-0.0004357374273240566,-0.0026696105487644672
1772649309822294000,7.7032939453125,0.0005288257962092757,0.0018971916288137436,-0.0006799627444706857
1772649309832338000,7.713337890625,-0.0010889978148043156,-0.002289529424160719,0.0007404271746054292
1772649309842382000,7.723382080078125,-0.0006421193829737604,0.00022715795785188675,0.002159093040972948
1772649309852426000,7.733426025390625,-0.0018173807766288519,0.0007686102762818336,0.0008646396454423666
1772649309862471000,7.743470947265625,-0.0010178997181355953,-0.001127560157328844,0.002249749843031168
1772649309872515000,7.75351513671875,0.0003761349944397807,0.0007621110416948795,0.0017451702151447535
1772649309882559000,7.76355908203125,-0.0007522463565692306,0.0016779717989265919,-0.00044607865856960416
1772649309892603000,7.773602783203125,-0.0005822555394843221,-0.0016522165387868881,0.00007468485273420811
1772649309902647000,7.78364697265625,-0.00021340773673728108,-0.0009371577762067318,0.001672048820182681
1772649309912691000,7.79369091796875,-0.0008433983894065022,0.0005310587584972382,-0.001313794869929552
1772649309922735900,7.80373583984375,0.0025223044212907553,-0.00017867330461740494,-0.0019723945297300816
1772649309932780000,7.813780029296875,0.00033790559973567724,0.0004753335379064083,0.0001718844287097454
1772649309942824000,7.823823974609375,0.0002612065291032195,0.00006866874173283577,-0.0017943273996934295
1772649309952868000,7.8338681640625,-0.002269938588142395,0.00014953268691897392,-0.0008312340942211449
1772649309962912000,7.843912109375,-0.0014353038277477026,0.0015703290700912476,0.002235395833849907
1772649309972956000,7.853955810546875,-0.0018341530812904239,-0.0005229548551142216,0.0006314237834885716
1772649309983001000,7.8640009765625,-0.00018459116108715534,-0.0016428139060735703,0.000753662665374577
1772649309993044700,7.874044677734375,0.0013224204303696752,0.001036107074469328,0.001809399458579719
1772649310003089000,7.8840888671875,0.00017619587015360594,-0.0019317199476063251,-0.00030887871980667114
1772649310013133000,7.894133056640625,0.0036782161332666874,-0.0009250650182366371,-0.0012350247707217932
1772649310023177000,7.904177001953125,-0.0015058934222906828,-0.00004329206421971321,-0.0011572603834792972
1772649310033222000,7.914221923828125,-0.00030956941191107035,-0.0005875672213733196,-0.0004099139478057623
1772649310043266000,7.92426611328125,0.0003729987656697631,-0.0004243152216076851,-0.002744174562394619
1772649310053310000,7.93431005859375,-0.0012521421303972602,-0.00183766707777977,-0.0012996371369808912
1772649310063354000,7.94435400390625,-0.00098342914134264,0.0020598690025508404,-0.00004502199590206146
1772649310073397800,7.954397705078125,0.00012621458154171705,-0.0009676241315901279,0.0012713391333818436
1772649310083442000,7.96444189453125,-0.00040322181303054094,0.0018550599925220013,0.00030620943289250135
1772649310093487000,7.974487060546875,-0.0005460214451886714,-0.0024315770715475082,0.0006491693202406168
1772649310103531000,7.984531005859375,-0.0007540143560618162,-0.0005844086408615112,-0.0023889648728072643
1772649310113575000,7.994574951171875,-0.0012511389795690775,-0.0015545720234513283,-0.0017646392807364464
1772649310123619000,8.004619140625,0.00005833734758198261,0.0009756973013281822,0.0010604418348520994
1772649310133663000,8.0146630859375,-0.0010246958117932081,-0.0020398693159222603,-0.0006070515955798328
1772649310143708000,8.0247080078125,0.00044297229032963514,0.0004027821123600006,-0.0005665715434588492
1772649310153751800,8.034751708984375,0.00018656114116311073,-0.0016266703605651855,-0.0001365195494145155
1772649310163796000,8.0447958984375,0.0014241320313885808,0.004060510545969009,0.0001985060516744852
1772649310173840100,8.054840087890625,-0.00042435619980096817,-0.001275402493774891,0.00042047747410833836
1772649310183884000,8.064884033203125,-0.0001820085453800857,0.00004738941788673401,0.0008279412286356091
1772649310193928000,8.074927978515625,-0.0010554423788562417,-0.0009557222947478294,0.0015712425811216235
1772649310203973000,8.08497314453125,0.0018615178996697068,-0.00039592571556568146,-0.001777416211552918
1772649310214017000,8.09501708984375,-0.0015320013044402003,0.0010114717297255993,-0.0010736618423834443
1772649310224061000,8.10506103515625,0.0014882896794006228,-0.000028492417186498642,-0.0011069513857364655
1772649310234104800,8.115104736328124,-0.0002016442595049739,0.001487202476710081,0.0021677082404494286
1772649310244149000,8.12514892578125,-0.0005228215013630688,0.001823293510824442,-0.0028414311818778515
1772649310254193200,8.135193115234374,-0.0002875657519325614,-0.0017183353193104267,0.0008747797692194581
1772649310264237800,8.14523779296875,0.001183031708933413,-0.00005172938108444214,0.003107307478785515
1772649310274282000,8.155281982421876,-0.002209623344242573,0.00016641896218061447,0.002158663235604763
1772649310284326100,8.165326171875,0.0003323639975860715,0.0009219576604664326,0.000020677573047578335
1772649310294370000,8.1753701171875,-0.00010907265823334455,-0.0009624036028981209,0.0020562387071549892
1772649310304414000,8.1854140625,0.0023341113701462746,-0.000028965529054403305,0.0013137494679540396
1772649310314459100,8.195459228515626,-0.00019369111396372318,-0.00042201392352581024,-0.002113338327035308
1772649310324503300,8.20550341796875,0.001503008883446455,0.0017487290315330029,-0.00232239649631083
1772649310334547200,8.215547119140625,-0.00026604608865454793,-0.0002269498072564602,-0.0025876988656818867
1772649310344591000,8.225591064453125,0.0017789952689781785,0.001834336668252945,0.0030576700810343027
1772649310354635300,8.23563525390625,0.0010580710368230939,-0.0015900391153991222,0.002817900385707617
1772649310364679200,8.24567919921875,-0.00009747454896569252,0.0007024100050330162,-0.0003379452973604202
1772649310374724000,8.25572412109375,-0.002090852940455079,0.0003865589387714863,-0.0015857182443141937
1772649310384768300,8.265768310546875,0.0015406333841383457,0.0033024544827640057,-0.0003212493611499667
1772649310394812200,8.275812255859375,-0.0023209243081510067,-0.0005679847672581673,0.0007528441492468119
1772649310404856300,8.285856201171875,0.0011861923849210143,0.0008054072968661785,0.0017579211853444576
1772649310414900200,8.295900146484374,-0.0013384936610236764,0.0006642821244895458,-0.003551578614860773
1772649310424945200,8.305945068359375,0.00038270733784884214,0.00029410235583782196,-0.00034246942959725857
1772649310434989300,8.3159892578125,0.00038808234967291355,0.0006326446309685707,0.0029389122501015663
1772649310445033200,8.326033203125,0.0009918210562318563,-0.001053935382515192,0.0003830766072496772
1772649310455077000,8.3360771484375,-0.0017251594690605998,0.0003090929239988327,-0.001822265679948032
1772649310465121300,8.346121337890626,-0.002385889645665884,0.001550392247736454,-0.001632116036489606
1772649310475165200,8.356165283203126,-0.0014014129992574453,0.001324627548456192,-0.0025827549397945404
1772649310485210000,8.366210205078126,-0.00019952835282310843,-0.0026051332242786884,0.0019981483928859234
1772649310495254300,8.376254150390626,0.0011559331323951483,-0.0016520055942237377,0.0010058102197945118
1772649310505298200,8.386298095703125,-0.0015961776953190565,-0.0017105950973927975,-0.001644034986384213
1772649310515342300,8.39634228515625,0.00014173414092510939,0.0024228417314589024,-0.00028551591094583273
1772649310525386200,8.40638623046875,0.0002677016891539097,-0.0027865679003298283,0.0008127717301249504
1772649310535430100,8.41643017578125,0.0016189940506592393,0.00025244010612368584,0.0016675252700224519
1772649310545475300,8.426475341796875,0.0012565379729494452,0.0005698888562619686,0.0011303656501695514
1772649310555519200,8.436519287109375,0.0008543170988559723,-0.0019063870422542095,0.0015047939959913492
1772649310565563100,8.446563232421875,-0.0017917996738106012,-0.0002493681386113167,-0.0020047195721417665
1772649310575607300,8.456607177734375,0.000741221010684967,0.0020211953669786453,-0.00016627809964120388
1772649310585651200,8.466651123046875,0.0008626611670479178,-0.0011357152834534645,-0.0015809492906555533
1772649310595696000,8.476696044921875,-0.0004909537965431809,-0.0013804915361106396,0.001117266365326941
1772649310605740300,8.486740234375,-0.0007170562166720629,-0.0004744837060570717,0.004468588624149561
1772649310615784200,8.4967841796875,-0.0022731460630893707,-0.0022209403105080128,0.00039713026490062475
1772649310625828400,8.506828369140624,0.000391346518881619,-0.0011189240030944347,0.00068049062974751
1772649310635872000,8.5168720703125,-0.0004653598298318684,0.0017390698194503784,0.0016283001750707626
1772649310645916200,8.526916259765626,-0.0008842750685289502,-0.001990686636418104,0.0006746223662048578
1772649310655961300,8.53696142578125,-0.001005937927402556,0.000022917985916137695,-0.00027812120970338583
1772649310666005200,8.547005126953126,0.001201289938762784,-0.0025049545802176,-0.0014432541793212295
1772649310676049200,8.557049072265626,0.00034572824370115995,0.0014287256635725498,0.0009078057482838631
1772649310686093300,8.56709326171875,0.00019765645265579224,0.002645257394760847,-0.0006445507751777768
1772649310696137200,8.57713720703125,0.0007763177854940295,-0.0003277626819908619,-0.0016246535815298557
1772649310706181400,8.587181396484375,0.0006093375850468874,-0.00048116082325577736,0.0006347722373902798
1772649310716226000,8.59722607421875,-0.0004362837062217295,-0.0012680459767580032,0.002648814581334591
1772649310726270200,8.607270263671875,-0.0005646480713039637,0.0011394517496228218,-0.0008148928754962981
1772649310736314400,8.617314453125,0.0010238855611532927,0.004376961849629879,0.0031342930160462856
1772649310746358300,8.627358154296875,-0.006423644721508026,-0.01653417944908142,0.07829082757234573
1772649310756402200,8.637402099609375,-0.01379280537366867,-0.03922516852617264,0.14127133786678314
1772649310766447400,8.647447265625,-0.018091678619384766,-0.10545718669891357,0.16347384452819824
1772649310776491300,8.6574912109375,-0.006673745810985565,-0.10650873929262161,0.1332685649394989
1772649310786535200,8.66753515625,-0.01862015388906002,-0.04006633162498474,0.03671886771917343
1772649310796579000,8.6775791015625,-0.003533493261784315,0.07021808624267578,-0.09248612076044083
1772649310806623200,8.687623291015624,0.022207289934158325,0.16105370223522186,-0.24311824142932892
1772649310816667400,8.69766748046875,0.030074698850512505,0.13634316623210907,-0.3451601564884186
1772649310826712000,8.707712158203124,0.007409865967929363,-0.242207869887352,-0.1542344093322754
1772649310836756200,8.717756103515624,-0.001320843119174242,-0.1286013275384903,0.008663281798362732
1772649310846800400,8.72780029296875,-0.008382214233279228,0.2270028442144394,0.1107662171125412
