time,seconds_elapsed,z,y,x
1772649369339095300,0.06409521484375,0.0031478109303861856,0.01678188145160675,0.01929430477321148
1772649369349139200,0.07413916015625,-0.0009680874645709991,0.0115163903683424,0.015045669861137867
1772649369359183400,0.084183349609375,-0.001146519323810935,-0.003323275363072753,-0.00577332591637969
1772649369369228300,0.094228271484375,0.002007417380809784,-0.019873907789587975,-0.02192903496325016
1772649369379271700,0.104271728515625,0.0018162025371566415,-0.020790301263332367,-0.025039341300725937
1772649369389315600,0.114315673828125,-0.0009656315669417381,-0.007079943083226681,-0.011898268945515156
1772649369399359700,0.12435986328125,-0.001202919171191752,0.0029889363795518875,0.006491657346487045
1772649369409403600,0.134403564453125,0.001479167491197586,0.0034463130868971348,0.002775388304144144
1772649369419447600,0.144447509765625,0.0005843454273417592,-0.0007103485986590385,0.0008440642850473523
1772649369429491700,0.15449169921875,-0.0037043853662908077,0.00377577543258667,0.007764003239572048
1772649369439536600,0.16453662109375,-0.0020127457100898027,0.014807919971644878,0.016991324722766876
1772649369449580500,0.17458056640625,-0.0011615883558988571,0.017208687961101532,0.0208684504032135
1772649369459624700,0.184624755859375,-0.00313365925103426,0.011854935437440872,0.01621910370886326
1772649369469668600,0.194668701171875,-0.000508083263412118,0.008362775668501854,0.011228795163333416
1772649369479712800,0.204712646484375,-0.00028491037664934993,0.004989881534129381,0.006008466240018606
1772649369489756700,0.214756591796875,-0.000990091823041439,0.00215231254696846,0.004302692599594593
1772649369499800600,0.224800537109375,-0.0014588081976398826,-0.0008251015096902847,0.00005921162664890289
1772649369509845800,0.234845703125,0.0009563603671267629,0.001981268171221018,-0.0003421120927669108
1772649369519889700,0.2448896484375,0.0009350551990792155,0.00015540467575192451,-0.000024397042579948902
1772649369529933600,0.25493359375,-0.0011217041173949838,0.00044888537377119064,-0.001226547872647643
1772649369539977500,0.2649775390625,0.001058093155734241,-0.00007202895358204842,0.000529007869772613
1772649369550021600,0.275021728515625,-0.0005206001223996282,0.000497128814458847,0.002027573063969612
1772649369560065800,0.285065673828125,-0.0004668042529374361,-0.0020318091847002506,0.005367442965507507
1772649369570109700,0.295109619140625,0.002253331243991852,-0.003222087863832712,0.008249343372881413
1772649369580154600,0.305154541015625,0.00042613642290234566,-0.0028670886531472206,0.008272779174149036
1772649369590198800,0.31519873046875,0.001292572938837111,-0.004044414963573217,0.007568152155727148
1772649369600242700,0.32524267578125,0.001296035130508244,-0.004638033919036388,0.007311157416552305
1772649369610286600,0.33528662109375,0.00282726576551795,-0.0012071109376847744,0.003937933128327131
1772649369620330500,0.34533056640625,-0.0025374055840075016,0.0008107665926218033,-0.0024552515242248774
1772649369630374700,0.355374755859375,0.0005002586403861642,0.0012019830755889416,-0.0013515547616407275
1772649369640418800,0.365418701171875,0.0025719315744936466,-0.004800516180694103,0.004331897012889385
1772649369650463500,0.37546337890625,-0.0015963962068781257,-0.00017719855532050133,0.005972389131784439
1772649369660507600,0.385507568359375,0.0013370757224038243,-0.0062494720332324505,0.0038040434010326862
1772649369670551800,0.3955517578125,-0.003068619640544057,0.0035234899260103703,-0.005164687521755695
1772649369680595700,0.405595703125,-0.004473703447729349,-0.000931179616600275,-0.0032818326726555824
1772649369690639600,0.4156396484375,-0.004522300325334072,0.0030229128897190094,-0.0055737001821398735
1772649369700683500,0.42568359375,-0.0014735136646777391,0.001817832700908184,0.003604085650295019
1772649369710727700,0.435727783203125,-0.0017794764135032892,-0.00408830214291811,0.007918751798570156
1772649369720772900,0.44577294921875,0.004452587105333805,0.0028550918214023113,-0.003968001343309879
1772649369730816500,0.45581640625,0.00014027522411197424,0.008280232548713684,-0.01825813390314579
1772649369740860700,0.465860595703125,-0.0019250060431659222,0.002546445932239294,-0.014034094288945198
1772649369750904600,0.475904541015625,0.0000723992707207799,-0.0001614987850189209,0.007470477372407913
1772649369760948700,0.48594873046875,-0.0003137590829282999,-0.0026603424921631813,0.007978608831763268
1772649369770992600,0.49599267578125,-0.0003355623339302838,0.0050577218644320965,-0.005305958446115255
1772649369781037600,0.50603759765625,0.001466865185648203,0.002322389278560877,-0.006514500826597214
1772649369791081700,0.516081787109375,0.0006309046875685453,-0.0028852378018200397,0.0014830457512289286
1772649369801126000,0.5261259765625,-0.002696448704227805,-0.002847154624760151,0.004353134427219629
1772649369811169500,0.53616943359375,-0.0010967458365485072,0.00032441597431898117,0.0006803100695833564
1772649369821213700,0.546213623046875,0.001102226204238832,0.0013185744173824787,-0.0039083161391317844
1772649369831257600,0.556257568359375,0.0009504955960437655,0.00017119990661740303,-0.0038351882249116898
1772649369841301800,0.5663017578125,0.00003490073140710592,0.00005854852497577667,0.00048365991096943617
1772649369851346700,0.5763466796875,-0.0009535955032333732,-0.0013415594585239887,0.0003714316990226507
1772649369861390600,0.586390625,0.001421145279891789,-0.00044274283573031425,0.0001423998037353158
1772649369871434800,0.596434814453125,0.0018459259299561381,0.0024965042248368263,0.003628286300227046
1772649369881478700,0.606478759765625,-0.004170687403529882,-0.0046258531510829926,0.0040834201499819756
1772649369891522600,0.6165224609375,-0.00015797559171915054,0.007471725810319185,-0.00652932608500123
1772649369901566700,0.626566650390625,-0.0019854367710649967,-0.004801185801625252,-0.004354855045676231
1772649369911610600,0.636610595703125,0.00030068354681134224,-0.004841499030590057,0.006786780897527933
1772649369921655600,0.646655517578125,0.0007294524693861604,0.005347488913685083,0.002738242968916893
1772649369931699700,0.65669970703125,-0.0008474265923723578,-0.0006350637413561344,-0.007053199224174023
1772649369941743600,0.66674365234375,-0.0028546510729938745,-0.0027983495965600014,-0.0057423911057412624
1772649369951787800,0.676787841796875,0.0010915595339611173,-0.004028621129691601,0.007254967465996742
1772649369961831700,0.686831787109375,-0.0013167369179427624,0.0019613606855273247,0.0018309070728719234
1772649369971875600,0.69687548828125,-0.001262888079509139,-0.001692241057753563,-0.002747350838035345
1772649369981920800,0.706920654296875,-0.002458381000906229,0.000683831050992012,-0.0018357508815824986
1772649369991964700,0.716964599609375,-0.004918957129120827,0.004064586944878101,0.003462844295427203
1772649370002008600,0.727008544921875,0.006106529850512743,-0.040230173617601395,-0.015511113218963146
1772649370012052700,0.737052734375,0.01332703698426485,-0.11244309693574905,-0.10884998738765717
1772649370022096600,0.7470966796875,-0.0032751092221587896,-0.09793712943792343,-0.16735830903053284
1772649370032140800,0.757140869140625,0.006953397765755653,-0.11227890849113464,-0.1252063512802124
1772649370042184700,0.767184814453125,-0.007665226235985756,-0.07424444705247879,-0.052964385598897934
1772649370052229600,0.777229736328125,-0.025076312944293022,0.03508700802922249,0.005093809217214584
1772649370062273800,0.787273681640625,-0.059396203607320786,0.04179311543703079,0.05027007684111595
1772649370072317700,0.797317626953125,-0.1443093866109848,0.015224339440464973,0.07614336162805557
1772649370082361600,0.807361572265625,-0.22819043695926666,0.007168810348957777,0.048127174377441406
1772649370092405500,0.817405517578125,-0.29210221767425537,0.01792674884200096,0.02115544304251671
1772649370102449700,0.82744970703125,-0.33298733830451965,0.006748129613697529,0.027206145226955414
1772649370112493800,0.837493896484375,-0.34453073143959045,0.021157456561923027,0.07372444123029709
1772649370122538500,0.84753857421875,-0.35602065920829773,0.06046890839934349,0.0957125574350357
1772649370132582700,0.857582763671875,-0.33566462993621826,0.051252104341983795,0.09111224859952927
1772649370142626800,0.867626708984375,-0.31785500049591064,0.02949780598282814,0.07061629742383957
1772649370152670700,0.877670654296875,-0.30248790979385376,0.04907095804810524,0.044657543301582336
1772649370162714600,0.887714599609375,-0.3104180097579956,-0.015215085819363594,-0.002624485408887267
1772649370172758500,0.897758544921875,-0.2967028319835663,0.004578607156872749,0.00232059508562088
1772649370182802700,0.907802734375,-0.23675589263439178,0.00030023837462067604,0.020539546385407448
1772649370192847600,0.91784765625,-0.17003676295280457,-0.017499951645731926,0.02964773029088974
1772649370202891500,0.9278916015625,-0.11464301496744156,-0.0169777050614357,0.025932088494300842
1772649370212935700,0.937935791015625,-0.07636092603206635,-0.0003732326440513134,0.014339628629386425
1772649370222979600,0.9479794921875,-0.04349672049283981,0.004501949530094862,0.021049994975328445
1772649370233023700,0.958023681640625,-0.023850511759519577,-0.005089509766548872,0.023918909952044487
1772649370243067600,0.968067626953125,-0.014684710651636124,0.0010173851624131203,0.009966076351702213
1772649370253112600,0.978112548828125,-0.01225826982408762,0.007741026114672422,0.005402563139796257
1772649370263156700,0.98815673828125,-0.007255255244672298,0.003965995740145445,0.0012914413819089532
1772649370273200600,0.99820068359375,-0.009158460423350334,0.00019916333258152008,0.004572943784296513
1772649370283244500,1.00824462890625,-0.02177571877837181,-0.007545841857790947,0.01843895949423313
1772649370293288700,1.018288818359375,-0.037493977695703506,-0.02577289566397667,0.03861729055643082
1772649370303332600,1.02833251953125,-0.05459227040410042,-0.03145155310630798,0.03718823939561844
1772649370313376800,1.038376708984375,-0.06712950766086578,-0.030304094776511192,0.03201393410563469
1772649370323421700,1.048421630859375,-0.07230962067842484,-0.011653976514935493,0.01769278571009636
1772649370333465600,1.058465576171875,-0.059639688581228256,-0.00454207556322217,0.01071904692798853
1772649370343509800,1.068509765625,-0.03993815556168556,-0.01530337706208229,0.017291460186243057
1772649370353553700,1.0785537109375,-0.027707435190677643,-0.023225989192724228,0.03271237388253212
1772649370363597600,1.08859765625,-0.018688641488552094,-0.031192036345601082,0.03943445906043053
1772649370373641700,1.098641845703125,-0.0162550900131464,-0.035490263253450394,0.04310039430856705
1772649370383685600,1.108685546875,-0.013561569154262543,-0.027063222602009773,0.03715222328901291
1772649370393730600,1.11873046875,-0.012620193883776665,-0.029175180941820145,0.03158782795071602
1772649370403774500,1.1287744140625,-0.013961628079414368,-0.020395802333950996,0.028733452782034874
1772649370413818600,1.138818603515625,-0.012387201189994812,-0.022468233481049538,0.026681140065193176
1772649370423862500,1.148862548828125,-0.012675621546804905,-0.0245865136384964,0.032750487327575684
1772649370433906400,1.158906494140625,-0.011425094678997993,-0.03160521760582924,0.04009534418582916
1772649370443950600,1.16895068359375,-0.010483667254447937,-0.02866508811712265,0.03208828344941139
1772649370453995500,1.17899560546875,-0.011773256585001945,-0.016122957691550255,0.0177319198846817
1772649370464039700,1.189039794921875,-0.007070646621286869,-0.00388706405647099,0.00745744351297617
1772649370474083600,1.19908349609375,-0.005305572412908077,-0.0011756154708564281,0.005276156589388847
1772649370484127500,1.20912744140625,-0.0025444072671234608,-0.010121705941855907,0.022574985399842262
1772649370494171600,1.219171630859375,0.0016241458943113685,-0.023502971976995468,0.0344323068857193
1772649370504215600,1.229215576171875,0.0029032621532678604,-0.027266282588243484,0.042770396918058395
1772649370514259500,1.239259521484375,0.002904808148741722,-0.021189285442233086,0.029749685898423195
1772649370524304600,1.2493046875,0.0070955585688352585,0.013148447498679161,-0.001092383754439652
1772649370534348500,1.2593486328125,0.0013860072940587997,0.01694052293896675,-0.020727602764964104
1772649370544392700,1.269392822265625,0.0038259956054389477,0.032000429928302765,-0.02641531638801098
1772649370554436600,1.2794365234375,0.004569705575704575,0.017612380906939507,-0.02082618698477745
1772649370564480500,1.28948046875,0.002397099044173956,-0.001091531477868557,0.0037167067639529705
1772649370574524700,1.299524658203125,0.003811759641394019,-0.013127082958817482,0.013764183968305588
1772649370584568600,1.309568603515625,0.001570443157106638,-0.006263584829866886,0.0033136731944978237
1772649370594613500,1.319613525390625,0.005526562221348286,0.014653762802481651,-0.017067838460206985
1772649370604657700,1.32965771484375,0.004957444965839386,0.02625635638833046,-0.033922720700502396
1772649370614701600,1.33970166015625,0.006959876045584679,0.03726426884531975,-0.04519321769475937
1772649370624745700,1.349745849609375,0.013522437773644924,0.03656305745244026,-0.04307999834418297
1772649370634789400,1.359789306640625,0.018714003264904022,0.02860100567340851,-0.028385208919644356
1772649370644833500,1.36983349609375,0.02232019044458866,0.022087711840867996,-0.030407346785068512
1772649370654877700,1.379877685546875,0.02639642357826233,0.03480084240436554,-0.044928766787052155
1772649370664922400,1.38992236328125,0.03428151085972786,0.050358496606349945,-0.07639854401350021
1772649370674966500,1.399966552734375,0.04983223229646683,0.0764535516500473,-0.11678387969732285
1772649370685010700,1.4100107421875,0.030877981334924698,0.11053375899791718,-0.15805383026599884
1772649370695054600,1.4200546875,0.01918831840157509,0.056237343698740005,-0.12738043069839478
1772649370705098800,1.4300986328125,0.030833790078759193,-0.04680461809039116,-0.03804788365960121
1772649370715142400,1.440142333984375,0.030173057690262794,-0.054967209696769714,-0.0308698620647192
1772649370725186600,1.4501865234375,0.026404419913887978,-0.014935902319848537,-0.05718269571661949
1772649370735231700,1.460231689453125,0.029884904623031616,-0.03290984034538269,-0.062441371381282806
1772649370745275400,1.470275390625,0.03503713756799698,-0.058836936950683594,-0.05997316539287567
1772649370755319600,1.480319580078125,0.03865453228354454,-0.04816216230392456,-0.06759621202945709
1772649370765363700,1.49036376953125,0.03547924757003784,-0.036876216530799866,-0.06790540367364883
1772649370775407600,1.50040771484375,0.02696288377046585,-0.035777535289525986,-0.050776463001966476
1772649370785451800,1.51045166015625,0.028014833107590675,-0.04033207148313522,-0.04604296013712883
1772649370795496400,1.520496337890625,0.044609300792217255,-0.041883211582899094,-0.05813965946435928
1772649370805540600,1.53054052734375,0.05756185203790665,-0.042912259697914124,-0.06926900148391724
1772649370815584800,1.540584716796875,0.059213850647211075,-0.05741382762789726,-0.077267125248909
1772649370825628400,1.55062841796875,0.07904481142759323,-0.07954256236553192,-0.08996082097291946
1772649370835672600,1.560672607421875,0.12153852730989456,-0.089802585542202,-0.09593642503023148
1772649370845716500,1.570716552734375,0.10484157502651215,-0.0697585716843605,-0.07714223116636276
1772649370855760600,1.5807607421875,0.0412602424621582,-0.029625127092003822,-0.053199201822280884
1772649370865805600,1.5908056640625,-0.01904251053929329,0.007214379962533712,0.0012975962599739432
1772649370875849500,1.600849365234375,0.0013695129891857505,0.024401215836405754,0.05426345393061638
1772649370885893600,1.6108935546875,-0.003979445900768042,0.06847413629293442,0.06385856121778488
1772649370895937800,1.620937744140625,0.0027162390761077404,0.07061589509248734,0.058576636016368866
1772649370905981400,1.6309814453125,-0.0013333638198673725,0.058729138225317,0.07059282064437866
1772649370916025600,1.641025634765625,-0.0003227287670597434,0.09429170191287994,0.09920787066221237
1772649370926069500,1.651069580078125,-0.0007445734809152782,0.11907907575368881,0.12969334423542023
1772649370936114400,1.661114501953125,0.00016271346248686314,0.10444067418575287,0.13399143517017365
1772649370946158600,1.67115869140625,0.001744897454045713,0.07594192028045654,0.11024775356054306
1772649370956202500,1.681202392578125,-0.0004462128272280097,0.05261778458952904,0.06163099408149719
1772649370966246700,1.69124658203125,-0.0016499615740031004,0.014883987605571747,0.020645746961236
1772649370976290600,1.70129052734375,-0.0016822204925119877,-0.02061297744512558,-0.013631877489387989
1772649370986334500,1.71133447265625,-0.0014816845068708062,-0.027734003961086273,-0.024363882839679718
1772649370996379600,1.721379638671875,-0.0034390906803309917,-0.011162638664245605,-0.016956396400928497
1772649371006423600,1.731423583984375,-0.00001080334186553955,-0.0008311718702316284,-0.0014858264476060867
1772649371016467500,1.741467529296875,-0.0022374202962964773,0.01115818228572607,0.0031145026441663504
1772649371026511600,1.75151171875,-0.0014770878478884697,0.008233766071498394,0.002433266257867217
1772649371036555500,1.761555419921875,-0.002707271371036768,-0.0070585529319942,-0.005774486809968948
1772649371046599700,1.771599609375,0.0011591059155762196,-0.010738775134086609,-0.009532207623124123
1772649371056643600,1.7816435546875,-0.0034768381156027317,-0.008015931583940983,-0.00556536577641964
1772649371066688500,1.7916884765625,-0.0011255332501605153,-0.005883805453777313,-0.001944798044860363
1772649371076732700,1.801732666015625,0.002104939427226782,-0.13001854717731476,-0.0803239643573761
1772649371086776600,1.811776611328125,0.004771562293171883,-0.26535719633102417,-0.21752895414829254
1772649371096820500,1.821820556640625,-0.0070044612511992455,-0.25913098454475403,-0.2943148910999298
1772649371106864600,1.83186474609375,-0.01081784162670374,-0.2187982201576233,-0.29580092430114746
1772649371116908500,1.841908447265625,0.007320716045796871,-0.18485546112060547,-0.20240511000156403
1772649371126952700,1.85195263671875,0.0091817332431674,-0.1941850334405899,-0.05554749444127083
1772649371136997400,1.861997314453125,0.0036344104446470737,-0.028568511828780174,0.013923879712820053
1772649371147041500,1.87204150390625,-0.0015060232253745198,0.10986446589231491,0.03634236752986908
1772649371157085700,1.882085693359375,0.0012274279724806547,0.10013608634471893,0.01612534187734127
1772649371167129600,1.892129638671875,0.00400377344340086,-0.07413478195667267,-0.030168652534484863
1772649371177173500,1.902173583984375,0.00290635391138494,-0.17529504001140594,-0.08652497828006744
1772649371187217400,1.912217529296875,0.006645431742072105,-0.16750583052635193,-0.08937296271324158
1772649371197261600,1.922261474609375,-0.00002028688322752714,-0.10927548259496689,-0.013810966163873672
1772649371207306500,1.932306396484375,-0.006094424985349178,0.06476129591464996,0.021419990807771683
1772649371217350400,1.942350341796875,-0.01704077422618866,0.1887235939502716,0.03868328779935837
1772649371227394600,1.95239453125,-0.022472023963928223,0.11316385865211487,0.0576535165309906
1772649371237438700,1.962438720703125,-0.00955258496105671,0.05954720452427864,0.019075434654951096
1772649371247482600,1.972482666015625,0.00023666233755648136,-0.009553037583827972,-0.003206968307495117
1772649371257526500,1.982526611328125,0.002659651916474104,-0.047106917947530746,-0.019477907568216324
1772649371267570400,1.9925703125,0.005777680780738592,-0.05042548105120659,-0.028703896328806877
1772649371277615600,2.00261572265625,0.007470531389117241,-0.026898304000496864,-0.012264877557754517
1772649371287659500,2.012659423828125,0.013464774005115032,0.007322249934077263,0.008134137839078903
1772649371297703400,2.022703369140625,0.0025774710811674595,0.03225373849272728,0.012890730053186417
1772649371307747600,2.03274755859375,0.00029913673643022776,0.03654249384999275,0.01303374208509922
1772649371317791500,2.04279150390625,-0.009123213589191437,0.024158237501978874,0.015257418155670166
1772649371327835600,2.052835693359375,0.006944968365132809,0.015612419694662094,0.013158314861357212
1772649371337879600,2.062879638671875,-0.00928478129208088,0.11318348348140717,0.051437858492136
1772649371347924500,2.072924560546875,0.0036722966469824314,0.10448985546827316,0.05732930451631546
1772649371357968600,2.08296875,0.006487952545285225,0.01389616634696722,0.011682484298944473
1772649371368012500,2.093012451171875,-0.007848641835153103,-0.0017943806014955044,0.0034213585313409567
1772649371378056400,2.103056396484375,0.004278130829334259,0.04327767342329025,0.02311905473470688
1772649371388101000,2.11310107421875,-0.005863719154149294,0.11711195111274719,0.08271899819374084
1772649371398145300,2.123145263671875,-0.006201054900884628,0.15376771986484528,0.14106066524982452
1772649371408190200,2.133190185546875,-0.0035120612010359764,0.173382967710495,0.19029027223587036
1772649371418234000,2.143234130859375,0.0018677905900403857,0.16983723640441895,0.2010939121246338
1772649371428278300,2.1532783203125,0.011372879147529602,0.12249768525362015,0.16115449368953705
1772649371438322200,2.163322265625,0.006330380216240883,0.11853045970201492,0.11784147471189499
1772649371448366000,2.173365966796875,0.005003859288990498,0.06965000927448273,0.07336269319057465
1772649371458410200,2.18341015625,0.0053096311166882515,0.01777336560189724,0.03262100741267204
1772649371468454100,2.1934541015625,0.00927507784217596,-0.010010062716901302,-0.003804113483056426
1772649371478499000,2.2034990234375,0.005099948029965162,-0.016879364848136902,-0.017656682059168816
1772649371488543200,2.213543212890625,0.002435455098748207,-0.006391038186848164,-0.004623439162969589
1772649371498587100,2.223587158203125,0.0021618788596242666,-0.0037626801058650017,0.00657606078311801
1772649371508631300,2.23363134765625,0.0026830595452338457,-0.004529138095676899,0.002908355090767145
1772649371518675200,2.24367529296875,0.003743634559214115,-0.010669982060790062,-0.007394113577902317
1772649371528719000,2.253718994140625,-0.003975005354732275,-0.018625376746058464,-0.008866840973496437
1772649371538763000,2.263762939453125,-0.005510421469807625,-0.018671054393053055,-0.01886511594057083
1772649371548808200,2.27380810546875,-0.0066816797479987144,-0.03831612691283226,-0.03300277516245842
1772649371558852000,2.28385205078125,-0.009865274652838707,-0.04018333926796913,-0.030773695558309555
1772649371568896000,2.29389599609375,-0.005488103721290827,-0.02115798555314541,-0.021319739520549774
1772649371578940200,2.303940185546875,-0.022535212337970734,-0.06533975899219513,-0.043989378958940506
1772649371588984300,2.313984375,-0.03538868948817253,-0.10859748721122742,-0.09235744178295135
1772649371599028200,2.3240283203125,-0.021004213020205498,-0.1071261614561081,-0.11829927563667297
1772649371609072000,2.334072021484375,-0.006134186405688524,-0.06807515770196915,-0.09992160648107529
1772649371619117300,2.344117431640625,-0.0029579265974462032,-0.041882917284965515,-0.04569019749760628
1772649371629161200,2.3541611328125,-0.005703113041818142,-0.023527078330516815,-0.01179827656596899
1772649371639205000,2.364205078125,-0.0070510078221559525,0.02201652340590954,0.01563984900712967
1772649371649249000,2.3742490234375,-0.010990622453391552,0.04940074309706688,0.04114227741956711
1772649371659293200,2.384293212890625,-0.022844688966870308,0.011779680848121643,0.026965048164129257
1772649371669337300,2.39433740234375,-0.04241839051246643,0.0031036357395350933,0.005145237315446138
1772649371679381200,2.40438134765625,-0.04436197131872177,0.03205334395170212,0.0184942577034235
1772649371689426200,2.41442626953125,-0.01812157779932022,0.04475369304418564,0.051741961389780045
1772649371699470000,2.424469970703125,0.009751863777637482,0.09348315000534058,0.09567692875862122
1772649371709514200,2.43451416015625,-0.004775678738951683,0.11210157722234726,0.11735186725854874
1772649371719558100,2.44455810546875,0.0036983781028538942,0.0877203494310379,0.11243791878223419
1772649371729602000,2.45460205078125,0.0012272309977561235,0.06365682929754257,0.08510030806064606
1772649371739646200,2.464646240234375,-0.000722504046279937,0.04178246110677719,0.04581061378121376
1772649371749690000,2.474690185546875,0.000008000992238521576,-0.0016976376064121723,0.01384815201163292
1772649371759735000,2.484735107421875,0.0024401964619755745,-0.018519677221775055,-0.00889034103602171
1772649371769779200,2.494779296875,0.0005094049265608191,-0.012585887685418129,-0.014160470105707645
1772649371779823000,2.504822998046875,0.00030002230778336525,-0.006304009817540646,-0.005768643692135811
1772649371789867300,2.5148671875,0.0008622155291959643,0.0034687258303165436,0.010278766043484211
1772649371799911200,2.5249111328125,-0.0008466941071674228,0.01661183312535286,0.0204391460865736
1772649371809955000,2.534955078125,0.00043055799324065447,0.016413427889347076,0.016741612926125526
1772649371820000300,2.545000244140625,0.0013789033982902765,0.008304186165332794,0.009984033182263374
1772649371830044200,2.555044189453125,0.0018894313834607601,0.0018188557587563992,0.003606827463954687
1772649371840088000,2.565088134765625,-0.0002636066055856645,-0.0026428350247442722,-0.007616846822202206
1772649371850132200,2.57513232421875,0.0024259197525680065,-0.004745666868984699,-0.007879701443016529
1772649371860176100,2.585176025390625,0.0009000905556604266,-0.006184713449329138,-0.010816872119903564
1772649371870220300,2.59522021484375,0.00104097172152251,-0.003952984698116779,-0.00597657635807991
1772649371880264000,2.605263916015625,0.00006961275357753038,0.0014616153202950954,-0.003376769833266735
1772649371890309000,2.61530908203125,-0.0003101539914496243,0.0019066291861236095,-0.00037645240081474185
1772649371900353300,2.625353271484375,0.001042517484165728,-0.0007524667307734489,0.0045876652002334595
1772649371910397000,2.63539697265625,0.00025182508397847414,0.0016800644807517529,0.006688898894935846
1772649371920441000,2.645441162109375,-0.00023373874137178063,0.007502617780119181,0.009138582274317741
1772649371930485200,2.6554853515625,0.001984141767024994,-0.0007515833713114262,0.009172936901450157
1772649371940529200,2.665529052734375,0.0020999140106141567,0.002337052021175623,0.007151101250201464
1772649371950573300,2.6755732421875,0.0011302571510896087,0.005313134286552668,0.0057920897379517555
1772649371960618200,2.6856181640625,-0.0003892673412337899,0.0022772294469177723,0.005490052048116922
1772649371970662100,2.695662109375,0.0023343474604189396,-0.00026289327070116997,0.002743800636380911
1772649371980706300,2.705706298828125,0.0012923507019877434,0.006361409556120634,0.003305890131741762
1772649371990750000,2.71575,0.002680922858417034,-0.0013857260346412659,0.001080819289200008
1772649372000794000,2.725794189453125,0.0036675031296908855,-0.003413708647713065,0.002594950143247843
1772649372010838300,2.73583837890625,-0.001360811642371118,0.0021437755785882473,0.0004399202298372984
1772649372020882200,2.745882080078125,0.0017385751707479358,-0.000005395151674747467,0.0011845401022583246
1772649372030927000,2.755927001953125,0.0004908842965960503,-0.0030752208549529314,0.002764859702438116
1772649372040971000,2.765970947265625,0.00025929324328899384,0.0026962552219629288,0.0006667914567515254
1772649372051015200,2.77601513671875,0.000863298075273633,0.00014121830463409424,0.003973372280597687
1772649372061059300,2.786059326171875,0.0009136553853750229,0.00026055751368403435,0.0031203427352011204
1772649372071103000,2.79610302734375,0.00044121057726442814,0.006136556155979633,0.005331565160304308
1772649372081147100,2.806147216796875,0.0003261794336140156,0.005148901604115963,0.0030755079351365566
1772649372091191000,2.81619091796875,0.0003581373021006584,0.0009911740198731422,0.002699203323572874
1772649372101236200,2.826236328125,0.0014800862409174442,0.0016882484778761864,0.0025059704203158617
1772649372111280000,2.836280029296875,0.000021206680685281754,0.0013854466378688812,0.00004893809091299772
1772649372121324000,2.846323974609375,0.0016459723701700568,-0.003080447670072317,-0.00031059334287419915
1772649372131368200,2.8563681640625,0.00015433586668223143,0.0015302826650440693,0.0026468471623957157
1772649372141412400,2.866412353515625,0.0004109201254323125,0.0013233409263193607,0.000008064089342951775
1772649372151456000,2.8764560546875,0.0003488684305921197,0.0013086930848658085,0.0015391154447570443
1772649372161500200,2.886500244140625,0.002224989701062441,-0.00040488410741090775,0.004247317556291819
1772649372171545300,2.89654541015625,0.00023640727158635855,0.0043358090333640575,0.0013705712044611573
1772649372181589200,2.90658935546875,-0.0009099211893044412,0.003371605183929205,0.00016978220082819462
1772649372191633200,2.916633056640625,0.0008171388180926442,-0.0011043697595596313,0.00026485708076506853
1772649372201677000,2.926677001953125,-0.00043077795999124646,0.0017062057740986347,0.0021971329115331173
1772649372211721200,2.93672119140625,0.00034500088077038527,-0.0023207603953778744,0.0026224395260214806
1772649372221765000,2.94676513671875,-0.00019899598555639386,-0.000282882247120142,0.002710921224206686
1772649372231810000,2.95681005859375,0.0012862490257248282,0.002898263745009899,0.0007303282618522644
1772649372241854200,2.966854248046875,-0.0006958203157410026,0.0019829212687909603,0.0028860336169600487
1772649372251898000,2.976898193359375,0.0003036640118807554,-0.0030563122127205133,0.0024985438212752342
1772649372261942300,2.9869423828125,-0.0019404370104894042,0.003920651040971279,0.000012872624211013317
1772649372271986200,2.996986083984375,-0.0002509275800548494,-0.0007992689497768879,0.0018176969606429338
1772649372282030000,3.007030029296875,-0.000699748401530087,0.0015335055068135262,0.00017975899390876293
1772649372292074200,3.01707421875,-0.0015607483219355345,0.002658424898982048,0.0003222381928935647
1772649372302119200,3.027119140625,-0.0015358618693426251,0.0008024112321436405,0.003372312057763338
1772649372312163000,3.0371630859375,0.0010117179481312633,0.0009392974898219109,-0.00041576841613277793
1772649372322207200,3.047207275390625,0.0011048432206735015,0.0015399949625134468,0.0030512285884469748
1772649372332251100,3.057251220703125,-0.0005636272253468633,0.0005186726339161396,0.000308438902720809
1772649372342295300,3.06729541015625,-0.0035086842253804207,0.0027938238345086575,0.000762180658057332
1772649372352339200,3.077339111328125,0.0004583606496453285,0.0020966087467968464,0.0005440677050501108
1772649372362383000,3.087383056640625,0.001126580173149705,-0.0009936667047441006,0.0029305722564458847
1772649372372428300,3.09742822265625,-0.0003362942370586097,-0.002671191468834877,0.002559593878686428
1772649372382472200,3.10747216796875,-0.0007711563957855105,0.004119644872844219,-0.001876778551377356
1772649372392516400,3.117516357421875,-0.00157330057118088,0.002240518108010292,0.0014905224088579416
1772649372402560300,3.127560302734375,0.0008708095410838723,-0.0022484068758785725,-0.0006373777869157493
1772649372412604400,3.1376044921875,-0.002689037937670946,-0.000765558797866106,-0.0006229967111721635
1772649372422648000,3.14764794921875,0.00027615728322416544,0.0040599205531179905,0.0022189118899405003
1772649372432692200,3.157692138671875,0.0025113483425229788,-0.0020637521520256996,-0.0018144457135349512
1772649372442737400,3.1677373046875,0.002275289036333561,-0.0035214670933783054,0.000817521708086133
1772649372452781300,3.17778125,0.0010744697647169232,0.003483977634459734,-0.0009670625440776348
1772649372462825200,3.1878251953125,0.00021000253036618233,0.0005668210797011852,-0.0009423097362741828
1772649372472869400,3.197869384765625,0.0008699338650330901,-0.002597014419734478,-0.0006432367372326553
1772649372482913300,3.207913330078125,0.0018632004503160715,0.0008870302699506283,0.00122422119602561
1772649372492957400,3.21795751953125,0.00026583659928292036,0.001702489797025919,-0.003042162861675024
1772649372503001000,3.2280009765625,0.002334162825718522,-0.0015215878374874592,0.0013929373817518353
1772649372513046300,3.23804638671875,-0.0001356526045128703,0.0020086984150111675,0.0017751009436324239
1772649372523090400,3.24809033203125,-0.0006354884244501591,0.0009615998715162277,-0.0010132089955732226
1772649372533134300,3.25813427734375,-0.002292773686349392,0.0011331066489219666,-0.0014776643365621567
1772649372543178200,3.26817822265625,-0.00015750550664961338,0.003040631301701069,-0.0003651580773293972
1772649372553222100,3.27822216796875,-0.001530897687189281,-0.0003437139093875885,0.0006548326928168535
1772649372563266300,3.288266357421875,-0.0015983758494257927,-0.000045855995267629623,0.002270624041557312
1772649372573310500,3.298310546875,-0.0005890378961339593,0.00009822100400924683,-0.0016567397397011518
1772649372583355100,3.308355224609375,0.00044863263610750437,0.00024688150733709335,0.00038662366569042206
1772649372593399300,3.3183994140625,0.0008150837384164333,0.0004335693083703518,0.001987183466553688
1772649372603443500,3.328443359375,0.0003232336603105068,-0.0003500254824757576,0.00046772509813308716
1772649372613487400,3.3384873046875,0.0006542645860463381,0.0011474699713289738,0.0010885079391300678
1772649372623531300,3.34853125,-0.0006569663528352976,0.0016273283399641514,0.00013995356857776642
1772649372633575200,3.3585751953125,0.001266634906642139,-0.0025610248558223248,0.0021953813266009092
1772649372643619300,3.368619384765625,-0.00033100444125011563,0.0010651694610714912,-0.002651466988027096
1772649372653664300,3.378664306640625,0.0017324128421023488,0.0005951216444373131,0.0029675369150936604
1772649372663708200,3.388708251953125,0.002024268265813589,-0.0002880808897316456,0.002270099241286516
1772649372673752300,3.39875244140625,0.00019334512762725353,0.0021295365877449512,-0.0004841418704017997
1772649372683796200,3.408796142578125,0.002354702912271023,0.000654563307762146,0.00007214630022644997
1772649372693840400,3.41884033203125,-0.0012855719542130828,-0.002608874347060919,0.00047215307131409645
1772649372703884300,3.42888427734375,0.0012109755771234632,0.0037972982972860336,0.002356338081881404
1772649372713929200,3.43892919921875,0.0007310739019885659,-0.0020709773525595665,0.0013230317272245884
1772649372723973400,3.448973388671875,0.00011124741286039352,-0.0010458729229867458,-0.0017793008591979742
1772649372734017300,3.459017333984375,0.001377314212732017,0.0030655148439109325,0.0007048957049846649
1772649372744061200,3.469061279296875,0.0012762160040438175,0.001935475505888462,0.000034219236113131046
1772649372754105300,3.479105224609375,0.0003792633069679141,-0.0006075766868889332,0.000058986712247133255
1772649372764149200,3.489149169921875,-0.0021750102750957012,-0.0020031542517244816,-0.0006048279465176165
1772649372774193400,3.499193359375,-0.00015447009354829788,0.0013300580903887749,-0.0013079025084152818
1772649372784238300,3.50923828125,0.002342610154300928,-0.002463238313794136,0.00018792913760989904
1772649372794282200,3.5192822265625,0.00018917827401310205,-0.0006656046025454998,0.0019749102648347616
1772649372804326400,3.529326416015625,-0.000650031550321728,0.003388820681720972,-0.0014144775923341513
1772649372814370300,3.539370361328125,-0.0012351280311122537,0.00024309474974870682,-0.0025473861023783684
1772649372824414200,3.549414306640625,-0.002142355777323246,-0.0008107805624604225,0.00026302121113985777
1772649372834458400,3.559458251953125,0.0009983100462704897,-0.0008707013912498951,-0.0018757634097710252
1772649372844502300,3.569502197265625,0.001678230706602335,0.00300774909555912,0.0007389895617961884
1772649372854547200,3.579547119140625,-0.00112634408287704,0.0017086584120988846,0.00080876424908638
1772649372864591400,3.58959130859375,0.0005450815660879016,-0.0008665267378091812,-0.0007352983811870217
1772649372874635300,3.59963525390625,0.0024665521923452616,0.0005454812198877335,0.0009787119925022125
1772649372884679400,3.609679443359375,0.0004100877558812499,0.00015938887372612953,0.0020438143983483315
1772649372894723000,3.61972314453125,-0.00003279594238847494,-0.00008242623880505562,0.0025823060423135757
1772649372904767200,3.629767333984375,-0.0015845941379666328,-0.0009801541455090046,0.002237879205495119
1772649372914811400,3.639811279296875,-0.0020234831608831882,0.0002733957953751087,0.000031450181268155575
1772649372924856000,3.64985595703125,0.0024187250528484583,0.0011721067130565643,-0.0026495084166526794
1772649372934900200,3.659900146484375,-0.0004646794404834509,0.0008168406784534454,0.0005388280842453241
1772649372944944400,3.6699443359375,-0.00004301511216908693,0.0010976968333125114,0.001146475551649928
1772649372954988300,3.67998828125,-0.00043290184112265706,0.0006958260200917721,-0.000008537317626178265
1772649372965032400,3.690032470703125,0.0011925107100978494,-0.0019336366094648838,-0.0013602887047454715
1772649372975076000,3.700076171875,0.00020554312504827976,0.0028296932578086853,0.00048261869233101606
1772649372985120300,3.710120361328125,-0.00012665253598242998,0.003566543571650982,0.00038595707155764103
1772649372995165400,3.72016552734375,0.00042222486808896065,-0.00017679575830698013,0.0013428308302536607
1772649373005209000,3.730208984375,-0.0016633046325296164,0.0019553890451788902,0.000369798275642097
1772649373015253200,3.740253173828125,0.001199593534693122,0.0007937182672321796,-0.00197697919793427
1772649373025297200,3.750297119140625,0.0014079581014811993,-0.002120045479387045,-0.0000695955241099
1772649373035341300,3.76034130859375,-0.0014831696171313524,0.002594015561044216,0.002175715519115329
1772649373045385500,3.770385498046875,-0.001564487931318581,-0.00006776954978704453,-0.00002195697743445635
1772649373055429000,3.78042919921875,-0.0025882069021463394,-0.000004652887582778931,0.003173036966472864
1772649373065474300,3.790474365234375,0.002545911818742752,0.002831528428941965,0.0006108814850449562
1772649373075518500,3.8005185546875,-0.001996641978621483,-0.00404395442456007,0.0019307441543787718
1772649373085562000,3.81056201171875,-0.0006575880106538534,0.0006541837938129902,-0.0010215844959020615
1772649373095606300,3.820606201171875,0.0011834553442895412,-0.00004809163510799408,-0.00021837500389665365
1772649373105650200,3.830650146484375,-0.0007363670156337321,0.00023212935775518417,-0.0005833764444105327
1772649373115694300,3.8406943359375,0.0011243835324421525,-0.00003818143159151077,0.002080317120999098
1772649373125738500,3.850738525390625,0.0018923046300187707,-0.005331362597644329,-0.000729429186321795
1772649373135783200,3.860783203125,-0.001170863164588809,0.00040135812014341354,-0.0009283673134632409
1772649373145827300,3.870827392578125,-0.0005735496524721384,0.0004648761823773384,0.000580253079533577
1772649373155871500,3.88087158203125,-0.0013450674014165998,-0.003126929048448801,-0.0010730372741818428
1772649373165915100,3.8909150390625,-0.0024058902636170387,0.00031901756301522255,0.00245346175506711
1772649373175959300,3.900959228515625,-0.0027435789816081524,0.0014244960620999336,0.00038445170503109694
1772649373186003200,3.911003173828125,-0.00009710772428661585,0.0009533208794891834,0.003820790909230709
1772649373196047400,3.92104736328125,-0.0008057748782448471,-0.0000661374069750309,-0.0005470598116517067
1772649373206092300,3.93109228515625,0.0005099179688841105,0.001927532721310854,0.0008827282581478357
1772649373216136200,3.94113623046875,0.0007658477406948805,0.001824467908591032,-0.003093104809522629
1772649373226180400,3.951180419921875,-0.0013648498570546508,0.00186969805508852,-0.0021435124799609184
1772649373236224300,3.961224365234375,-0.000172552652657032,-0.00031569134443998337,-0.000731504347641021
1772649373246268200,3.97126806640625,-0.00024332967586815357,0.0033341129310429096,-0.00035185087472200394
1772649373256312300,3.981312255859375,-0.0010990033624693751,0.00019078422337770462,0.0010590918827801943
1772649373266356200,3.991356201171875,-0.000047449604608118534,-0.001609905157238245,-0.0016078910557553172
1772649373276401400,4.0014013671875,-0.0017598620615899563,-0.0013049733825027943,0.0012456860858947039
1772649373286445300,4.0114453125,-0.0005972349317744374,0.001117535401135683,0.000897255027666688
1772649373296489200,4.0214892578125,0.0006171665154397488,-0.00011817179620265961,0.0016386790666729212
1772649373306533400,4.031533447265625,0.0010835600551217794,-0.0011001047678291798,0.00008843757677823305
1772649373316577300,4.041577392578125,-0.0009540245519019663,-0.0009048953652381897,0.0020911346655339003
1772649373326621200,4.05162109375,0.00021698628552258015,0.0008038999512791634,-0.0020342355128377676
1772649373336665300,4.061665283203125,-0.0026653530076146126,-0.0017213094979524612,0.0007301255827769637
1772649373346710300,4.071710205078125,-0.001481523271650076,-0.002054870128631592,0.0010634693317115307
1772649373356754200,4.081754150390625,-0.0009933658875524998,0.0009816656820476055,0.001367602264508605
1772649373366798300,4.09179833984375,0.0019528112607076764,-0.0006148787215352058,-0.00016469205729663372
1772649373376842200,4.10184228515625,0.0005674348212778568,0.0029476312920451164,0.0003682065289467573
1772649373386886000,4.111885986328125,-0.00014253612607717514,0.00014114566147327423,-0.0008500259718857706
1772649373396930000,4.121929931640625,0.0011208675568923354,0.0009030764922499657,-0.0017507070442661643
1772649373406974000,4.131973876953125,0.0005764705128967762,0.0004793447442352772,-0.0018583249766379595
1772649373417019000,4.142018798828125,-0.000718358380254358,-0.0011680866591632366,0.0018221635837107897
1772649373427063000,4.15206298828125,0.0004887412069365382,-0.0015467735938727856,-0.0005043686833232641
1772649373437107000,4.16210693359375,0.00015451456420123577,-0.00011452566832304001,0.0008775455644354224
1772649373447150800,4.17215087890625,-0.001663445495069027,0.0014533018693327904,-0.00009086960926651955
1772649373457195000,4.182195068359375,-0.0010756858391687274,-0.0006332849152386189,-0.0005401449743658304
1772649373467239000,4.192239013671875,0.00112214928958565,0.0007396736182272434,0.0016660529654473066
1772649373477283000,4.202282958984375,0.00014157348778098822,-0.001052633859217167,-0.0001891050487756729
1772649373487328000,4.212327880859375,0.002536043291911483,-0.0008652345277369022,0.0008887214353308082
1772649373497372000,4.222371826171875,-0.0005641425959765911,-0.0001134243793785572,-0.0002646935172379017
1772649373507416000,4.232416015625,-0.00035633600782603025,0.00012961495667696,0.0008937020320445299
1772649373517460000,4.2424599609375,-0.0007592723122797906,0.0030934475362300873,0.003561390796676278
1772649373527504000,4.25250390625,0.0009469960350543261,-0.001196607481688261,0.0009500922169536352
1772649373537548000,4.262548095703125,0.0011469994205981493,0.002998670097440481,0.0008137384429574013
1772649373547592000,4.272592041015625,-0.002338554710149765,0.004511418752372265,-0.0034334466326981783
1772649373557636900,4.282636962890625,-0.0003923166077584028,-0.002536370884627104,-0.0009316731593571603
1772649373567680800,4.2926806640625,0.0010809210361912847,-0.00012580305337905884,-0.0001014849403873086
1772649373577725000,4.302724853515625,0.002164294943213463,0.00004011159762740135,0.0008346161339432001
1772649373587769000,4.31276904296875,0.0003059754380956292,-0.0004589594900608063,0.0003789969487115741
1772649373597813000,4.32281298828125,-0.001343053882010281,0.0016702376306056976,-0.0014252946712076664
1772649373607857000,4.33285693359375,-0.0005711633712053299,0.0009785895235836506,0.0001703612506389618
1772649373617902000,4.342902099609375,0.001362557988613844,-0.0025450391694903374,-0.00030368147417902946
1772649373627946000,4.352946044921875,0.000587059766985476,-0.002059594262391329,-0.0015370947076007724
1772649373637990000,4.362989990234375,-0.0032633384689688683,0.0030113309621810913,0.0020832065492868423
1772649373648033800,4.37303369140625,0.000516786240041256,-0.0022229766473174095,0.0008817678317427635
1772649373658078000,4.383077880859375,-0.0014510233886539936,0.0006484435871243477,0.0005502041894942522
1772649373668122000,4.3931220703125,-0.00413177814334631,0.0013128183782100677,0.0007951096631586552
1772649373678166000,4.403166015625,-0.0005759253399446607,0.0017165541648864746,0.00022625853307545185
1772649373688211000,4.4132109375,-0.00011264055501669645,-0.003153763944283128,-0.0007454717415384948
1772649373698255000,4.423255126953125,0.001986729446798563,-0.0001313425600528717,-0.00041124504059553146
1772649373708299000,4.433299072265625,0.0008233461994677782,0.0015765288844704628,0.0011511414777487516
1772649373718343000,4.443343017578125,-0.001310911145992577,-0.0009452188387513161,-0.0005639342125505209
1772649373728386800,4.45338671875,0.0009201021166518331,-0.0022332845255732536,-0.0022307992912828922
1772649373738431000,4.463430908203125,-0.0003126751398667693,-0.0015869354829192162,-0.002265686634927988
1772649373748475000,4.473474853515625,0.0023409624118357897,-0.0019446383230388165,-0.0027587744407355785
1772649373758519800,4.483519775390625,0.0007345437770709395,-0.0011736531741917133,-0.0012506264029070735
1772649373768564000,4.49356396484375,-0.00015873706433922052,0.00014664605259895325,0.0004169309977442026
1772649373778607900,4.50360791015625,-0.00019255914958193898,-0.002211050596088171,-0.000795339816249907
1772649373788652000,4.513652099609375,-0.00022624986013397574,0.002008582465350628,-0.0005174920661374927
1772649373798696000,4.523696044921875,-0.002252649050205946,-0.002800553571432829,-0.00039338867645710707
1772649373808739800,4.53373974609375,-0.0022093155421316624,-0.0018909084610641003,-0.00013000238686800003
1772649373818784000,4.543783935546875,-0.0016860044561326504,0.001307282131165266,-0.002293021883815527
1772649373828829000,4.553828857421875,0.0010920321801677346,0.0016283500008285046,0.0014342761132866144
1772649373838872800,4.563872802734375,0.001506952685303986,-0.002667861059308052,0.002770916558802128
1772649373848917000,4.5739169921875,0.0011629174696281552,-0.00298171304166317,0.0022836970165371895
1772649373858961000,4.5839609375,0.0008635780541226268,0.000995185226202011,0.0007643635617569089
1772649373869005000,4.594005126953125,0.0014655046397820115,0.0006138891912996769,-0.000864380388520658
1772649373879049000,4.604049072265625,0.001181611674837768,-0.002354470081627369,-0.0004923368105664849
1772649373889092900,4.6140927734375,0.000010145595297217369,0.001453472301363945,0.0008146278560161591
1772649373899138000,4.624137939453125,-0.000922493461985141,0.0006888783536851406,0.0003360577393323183
1772649373909182000,4.634181884765625,-0.00030002370476722717,-0.0015591904520988464,-0.0005655286367982626
1772649373919225900,4.644225830078125,-0.0011509036412462592,-0.0008545182645320892,-0.003499266691505909
1772649373929270000,4.65427001953125,0.0005645947530865669,0.0030155163258314133,-0.0019692410714924335
1772649373939314000,4.66431396484375,0.0011486258590593934,-0.0015185149386525154,0.0003162836655974388
1772649373949358000,4.674358154296875,0.0014392839511856437,-0.001915073487907648,-0.0008446943247690797
1772649373959401700,4.684401611328125,-0.0007386492798104882,0.0023835343308746815,0.0019992953166365623
1772649373969447000,4.694447021484375,-0.0016062486683949828,0.002907891757786274,0.0017750617116689682
1772649373979491000,4.704490966796875,0.00005396595224738121,-0.002157973125576973,0.0007550711743533611
1772649373989535000,4.714534912109375,-0.00025357730919495225,0.001716475933790207,0.0009028301574289799
1772649373999579000,4.724578857421875,-0.0004956586053594947,0.00013056350871920586,0.00009935442358255386
1772649374009623000,4.734623046875,-0.000748320366255939,-0.0015682135708630085,0.001648406614549458
1772649374019667000,4.7446669921875,-0.001480157021433115,0.0003319517709314823,0.00011096370872110128
1772649374029711000,4.754711181640625,0.0008786788675934076,-0.00035429513081908226,-0.001325317658483982
1772649374039756000,4.764756103515625,0.00008825270924717188,-0.0021580541506409645,-0.001824926701374352
1772649374049800000,4.774800048828125,-0.002398412674665451,-0.0007220716215670109,-0.0025023191701620817
1772649374059844000,4.784843994140625,-0.00023672485258430243,0.0013192412443459034,0.0003672369057312608
1772649374069888000,4.794887939453125,0.00005653791595250368,0.0007807435467839241,-0.0015434619272127748
1772649374079932000,4.804931884765625,0.0003633340820670128,-0.003159669693559408,-0.00008458236698061228
1772649374089975800,4.814975830078125,0.0006279671797528863,0.0016909539699554443,-0.00036420393735170364
1772649374100020000,4.82502001953125,0.00026497826911509037,-0.000600163359194994,-0.0010670121992006898
1772649374110065000,4.83506494140625,-0.0010194741189479828,-0.000544216949492693,0.00028483662754297256
1772649374120108800,4.84510888671875,-0.00031373644014820457,-0.0007532751187682152,0.0005578105337917805
1772649374130153000,4.855153076171875,-0.0004112703609280288,0.0016763722524046898,0.0024611519183963537
1772649374140197000,4.865197021484375,-0.002321555744856596,0.0006803502328693867,-0.000668062421027571
1772649374150241000,4.875240966796875,-0.00027989159571006894,-0.002090676687657833,-0.0008805796387605369
1772649374160285000,4.885284912109375,-0.0014042782131582499,0.0013522575609385967,-0.004217253997921944
1772649374170328800,4.895328857421875,0.00007724657189100981,-0.000273117795586586,0.00007634260691702366
1772649374180374000,4.9053740234375,0.0008708686800673604,0.0017580753192305565,-0.0006610867567360401
1772649374190418000,4.91541796875,0.0013392246328294277,0.0015026372857391834,0.0007198097882792354
1772649374200461800,4.9254619140625,0.0006630481220781803,0.0008443030528724194,-0.002344423206523061
1772649374210506000,4.935506103515625,-0.0025023203343153,-0.0026946580037474632,-0.0014766574604436755
1772649374220550100,4.945550048828125,-0.0023246873170137405,0.0008193831890821457,-0.00018209486734122038
1772649374230593800,4.95559375,0.00028938986361026764,0.003714214079082012,-0.0019526435062289238
1772649374240638000,4.965637939453125,-0.0009521758183836937,-0.0006808005273342133,-0.0031207059510052204
1772649374250683000,4.975682861328125,-0.0006882541929371655,-0.005193781107664108,0.0015017447294667363
1772649374260727000,4.98572705078125,0.00024385214783251286,0.0024849106557667255,0.0003432695521041751
1772649374270771000,4.99577099609375,0.0011237941216677427,0.002021679189056158,0.0028137140907347202
1772649374280814800,5.00581494140625,0.0018841265700757504,-0.004960329737514257,0.0020448595751076937
1772649374290859000,5.01585888671875,-0.0014801810029894114,0.0019761244766414165,0.00007765565533190966
1772649374300903000,5.02590283203125,0.0019502368522807956,0.0009548026137053967,0.0010068326955661178
1772649374310946800,5.03594677734375,0.002449274528771639,-0.002892301883548498,0.003722994588315487
1772649374320992000,5.045991943359375,-0.00018139590974897146,-0.003404161660000682,-0.0010896037565544248
1772649374331036000,5.056035888671875,-0.0013226084411144257,0.001810648012906313,0.0006659822538495064
1772649374341080000,5.066080078125,-0.001332462183199823,-0.0020634522661566734,-0.0010112766176462173
1772649374351124000,5.0761240234375,-0.0001444515073671937,-0.0051377397030591965,0.0014785424573346972
1772649374361168000,5.08616796875,0.0011272078845649958,-0.00018079765141010284,0.0006449731299653649
1772649374371212000,5.0962119140625,0.0004239458357915282,0.004559521097689867,0.0009510607924312353
1772649374381256000,5.106255859375,-0.000047167413868010044,-0.00044269440695643425,0.0015966109931468964
1772649374391301400,5.11630126953125,-0.0011847735149785876,-0.0028998609632253647,0.0021569905802607536
1772649374401345500,5.126345458984375,0.0005492107011377811,0.0037322095595300198,-0.0009756859508343041
1772649374411389400,5.136389404296875,-0.0009644695674069226,0.0013556997291743755,0.0003973328275606036
1772649374421433300,5.146433349609375,0.0003042604075744748,-0.005134955979883671,0.00024153792764991522
1772649374431477500,5.1564775390625,0.0009123861091211438,0.0018414389342069626,-0.0015102431643754244
1772649374441521400,5.166521484375,-0.0013406481593847275,0.00004353886470198631,-0.0021174438297748566
1772649374451565600,5.176565673828125,0.0008469371823593974,-0.002348958980292082,0.0006236374611034989
1772649374461610500,5.186610595703125,0.0017968866741284728,-0.000049851834774017334,-0.002821427769958973
1772649374471654400,5.196654296875,-0.001627558609470725,0.0004002288915216923,0.00044799386523664
1772649374481698600,5.206698486328125,0.0013370723463594913,0.0005424418486654758,-0.001492119044996798
1772649374491742500,5.216742431640625,0.0002714205766096711,0.00033675041049718857,-0.0024503981694579124
1772649374501786400,5.226786376953125,0.0021268450655043125,-0.0013333181850612164,-0.0001214639050886035
1772649374511830500,5.23683056640625,-0.002566177863627672,-0.0003354721702635288,0.0009909393265843391
1772649374521874400,5.24687451171875,-0.0005666767247021198,0.002629424910992384,-0.0015483847819268703
1772649374531919400,5.25691943359375,-0.00014136172831058502,-0.002534052822738886,0.0005205771885812283
1772649374541963300,5.26696337890625,0.0007116487249732018,0.0003687925636768341,-0.0003942186012864113
1772649374552007400,5.27700732421875,0.00017595605459064245,-0.0005265930667519569,-0.0008960681152530015
1772649374562051600,5.287051513671875,-0.0003446919145062566,-0.0031261048279702663,-0.0006611773278564215
1772649374572095500,5.297095458984375,-0.0005722664063796401,0.0009791762568056583,0.0008418607758358121
1772649374582139400,5.307139404296875,-0.001437793718650937,0.002812763210386038,-0.00013764970935881138
1772649374592183300,5.317183349609375,-0.002626048866659403,-0.001578500960022211,0.0007407206576317549
1772649374602228500,5.327228515625,-0.002546420320868492,0.0012812013737857342,-0.0027618687599897385
1772649374612272400,5.3372724609375,-0.0004504179232753813,-0.0006555994041264057,-0.0007864458602853119
1772649374622316300,5.34731640625,-0.0006645360845141113,-0.0003184434026479721,0.0012261050287634134
1772649374632360400,5.3573603515625,0.001073937863111496,-0.0015799729153513908,0.0007661903509870172
1772649374642404600,5.367404541015625,0.00001826067455112934,-0.0006081857718527317,-0.0006380944396369159
1772649374652448500,5.377448486328125,0.0014479662058874965,0.0005266605876386166,-0.0010892325080931187
1772649374662492400,5.387492431640625,-0.00045992236118763685,-0.0013143825344741344,0.00035313551779836416
1772649374672537600,5.39753759765625,-0.00012305076234042645,0.00045365607365965843,-0.00002487108577042818
1772649374682581500,5.40758154296875,0.0000939968740567565,0.0020140018314123154,0.0020811567083001137
1772649374692624400,5.417624267578125,0.0003198308404535055,-0.0014475607313215733,0.0007058318005874753
1772649374702669300,5.42766943359375,-0.002443198813125491,-0.0008510127663612366,0.0006560307228937745
1772649374712713500,5.43771337890625,0.00034503324422985315,-0.0020009572617709637,0.0000969393877312541
1772649374722757400,5.44775732421875,0.000389241729862988,-0.0008858917281031609,-0.0010194577043876052
1772649374732801500,5.457801513671875,-0.00019358284771442413,-0.0002190917730331421,0.0010066378163173795
1772649374742845400,5.467845458984375,-0.00007906695827841759,-0.002634312491863966,-0.0018786308355629444
1772649374752889300,5.477889404296875,0.0014779922785237432,-0.002097275573760271,0.0009771214099600911
1772649374762933500,5.48793359375,0.00012191070709377527,0.002466317731887102,-0.0008780364878475666
1772649374772978400,5.497978515625,0.0004840438487008214,-0.002973994705826044,0.0020060078240931034
1772649374783022300,5.508022216796875,-0.0005897426162846386,0.002749138977378607,-0.0010435779113322496
1772649374793066500,5.51806640625,0.0018598909955471754,0.0017005829140543938,0.0009034199174493551
1772649374803110400,5.5281103515625,-0.0014725223882123828,-0.0021383636631071568,-0.0011397572234272957
1772649374813154600,5.538154541015625,-0.002634391188621521,-0.0017526079900562763,-0.0023400546051561832
1772649374823198500,5.548198486328125,-0.0007073278538882732,0.003469318151473999,0.00030180125031620264
1772649374833242400,5.558242431640625,0.0012631590943783522,0.0002842009998857975,0.00029514951165765524
1772649374843287600,5.56828759765625,0.0014517109375447035,-0.0029078638181090355,0.0017159458948299289
1772649374853331500,5.57833154296875,-0.0001137822400778532,-0.0010077226907014847,-0.00014767341781407595
1772649374863375400,5.588375244140625,-0.001148420269601047,-0.000638874713331461,-0.0013189315795898438
1772649374873419500,5.59841943359375,0.0004923510132357478,-0.0009616310708224773,-0.00014466000720858574
1772649374883463400,5.60846337890625,-0.0008983517182059586,-0.0005770702846348286,0.0018881309079006314
1772649374893507600,5.618507568359375,-0.00008192250970751047,0.000260018277913332,-0.00045955448877066374
1772649374903551200,5.62855126953125,-0.00022546685067936778,-0.0002803374081850052,0.0015585890505462885
1772649374913596400,5.638596435546875,-0.0013315139804035425,0.000481440220028162,-0.00040873175021260977
1772649374923640600,5.648640625,0.0004565323470160365,0.0009136712178587914,-0.0008987534092739224
1772649374933684200,5.658684326171875,-0.0009589216206222773,0.0009822649881243706,-0.001279317308217287
1772649374943728400,5.668728271484375,0.0003545493818819523,-0.000709108542650938,0.0007287062471732497
1772649374953772500,5.6787724609375,-0.0006603087531402707,-0.0005249450914561749,-0.0006995449075475335
1772649374963816400,5.68881640625,-0.0013037285534664989,0.0001301923766732216,-0.000014313613064587116
1772649374973860600,5.698860595703125,-0.0008351740543730557,0.0003536762669682503,0.0009413610678166151
1772649374983905500,5.708905517578125,0.0002186388010159135,-0.0020399726927280426,-0.00019474350847303867
1772649374993949400,5.718949462890625,-0.0003657917841337621,-0.00004096422344446182,-0.0006079753511585295
1772649375003993600,5.72899365234375,0.0002470015315338969,0.0007984638214111328,-0.0028354432433843613
1772649375014037200,5.739037353515625,-0.0025031601544469595,0.0020338883623480797,-0.00005452113691717386
1772649375024081400,5.749081298828125,0.0030492644291371107,-0.002224505878984928,0.00200436869636178
1772649375034125600,5.75912548828125,-0.00017203681636601686,0.0019420045427978039,-0.00044070149306207895
1772649375044169500,5.76916943359375,-0.0012711234157904983,0.0003600870259106159,-0.001422342611476779
1772649375054214400,5.77921435546875,0.0003198749618604779,-0.0015777312219142914,-0.0007837475859560072
1772649375064258300,5.78925830078125,-0.0013392744585871696,-0.00011485675349831581,0.0010847263038158417
1772649375074302500,5.799302490234375,-0.0021104805637151003,0.002976364456117153,-0.0017768321558833122
1772649375084346600,5.8093466796875,-0.0011924889404326677,0.0008951034396886826,-0.00017893558833748102
1772649375094390300,5.819390380859375,0.0023703728802502155,0.001473505049943924,0.002973400056362152
1772649375104434400,5.829434326171875,0.000518410699442029,0.0007097106426954269,-0.000528390402905643
1772649375114478300,5.839478271484375,-0.0006645858520641923,-0.0021470258943736553,0.0008713385323062539
1772649375124523500,5.8495234375,-0.00011144729796797037,-0.0007723025046288967,-0.0008855489431880414
1772649375134567400,5.8595673828125,-0.003643220756202936,0.0006339843384921551,-0.0009778065141290426
1772649375144611300,5.869611328125,-0.0022605075500905514,-0.0013327598571777344,-0.0010158896911889315
1772649375154655500,5.879655517578125,0.0011064887512475252,-0.0019989912398159504,0.0002396240597590804
1772649375164699600,5.88969970703125,0.0018061010632663965,0.001047398429363966,-0.00011644058395177126
1772649375174743300,5.899743408203125,0.000016719684936106205,-0.0019608461298048496,-0.001778885954990983
1772649375184787500,5.909787353515625,0.0004398960154503584,0.0021894238889217377,-0.0023149801418185234
1772649375194832600,5.91983251953125,0.0011967308819293976,0.0006272983737289906,-0.00160471152048558
1772649375204876500,5.92987646484375,0.001614847220480442,-0.0020276065915822983,0.00011435896158218384
1772649375214920400,5.93992041015625,0.001461853040382266,-0.0010575521737337112,0.0019145287806168199
1772649375224964400,5.94996435546875,-0.0032213155645877123,-0.000047415029257535934,-0.00032785278744995594
1772649375235008500,5.960008544921875,0.0012324582785367966,-0.0015155021101236343,-0.0006260807858780026
1772649375245052400,5.970052490234375,-0.00020218646386638284,0.00041795242577791214,0.0016144366236403584
1772649375255096300,5.980096435546875,0.00032458745408803225,-0.0018145116046071053,0.0014176679542288184
1772649375265141500,5.9901416015625,0.0015363256679847836,0.0008704876527190208,0.0000040620798245072365
1772649375275185400,6.000185302734375,-0.0010524700628593564,0.002282508183270693,0.00006860808935016394
1772649375285229600,6.0102294921875,0.000016522826626896858,-0.0024209003895521164,0.000978876487351954
1772649375295273500,6.0202734375,-0.0011821527732536197,0.0007836776785552502,0.0018963346956297755
1772649375305317400,6.0303173828125,0.0002863141708076,0.00037514884024858475,0.0014457280049100518
1772649375315361500,6.040361572265625,0.002445821650326252,-0.00047703366726636887,0.0021610758267343044
1772649375325405400,6.050405517578125,-0.0007342589669860899,-0.0002535944804549217,0.0008247015066444874
1772649375335450400,6.060450439453125,0.0009770814795047045,-0.00044691329821944237,-0.0008852761820890009
1772649375345494500,6.07049462890625,0.00040876283310353756,-0.0011963266879320145,0.00023298512678593397
1772649375355538400,6.080538330078125,0.00010449427645653486,0.00013173557817935944,0.0006630284478887916
1772649375365582600,6.09058251953125,0.0005878580268472433,-0.0005606859922409058,0.0016625126590952277
1772649375375626500,6.10062646484375,-0.0010726414620876312,0.0012298892252147198,-0.00020330690313130617
1772649375385670100,6.110670166015625,-0.001548015745356679,0.0007523847743868828,0.0029341629706323147
1772649375395714300,6.12071435546875,-0.00020657101413235068,-0.0010881279595196247,0.0014209700748324394
1772649375405759200,6.13075927734375,-0.0018553340341895819,0.0031476295553147793,-0.0007316630217246711
1772649375415803100,6.14080322265625,0.002249718178063631,0.001990352291613817,0.0008700892794877291
1772649375425847300,6.150847412109375,-0.00020491733448579907,-0.0008078315295279026,-0.0003568290267139673
1772649375435891500,6.160891357421875,0.002463364042341709,0.0002432498149573803,-0.0010960798244923353
1772649375445935400,6.170935302734375,-0.0008088620379567146,-0.0005370564758777618,-0.0013762443559244275
1772649375455979300,6.180979248046875,-0.0012007952900603414,-0.00000868411734700203,0.0004368174122646451
1772649375466023200,6.191023193359375,-0.0035638180561363697,0.0014715013094246387,0.0012530763633549213
1772649375476068400,6.201068359375,-0.00011264067143201828,0.0011577075347304344,0.0000661754747852683
1772649375486112300,6.2111123046875,-0.0010942817898467183,-0.0020383521914482117,-0.0008640667656436563
1772649375496156200,6.22115625,0.0013663778081536293,0.0010339492000639439,-0.002067224122583866
1772649375506200300,6.231200439453125,0.00007687520701438189,-0.0008893855847418308,-0.002492797328159213
1772649375516244200,6.241244140625,-0.0001905900426208973,-0.000093814916908741,-0.0007264498271979392
1772649375526288400,6.251288330078125,-0.0002915238728746772,0.0009815697558224201,0.0014442928368225694
1772649375536332300,6.261332275390625,-0.0016415358986705542,0.0027482295408844948,0.00006434251554310322
1772649375546377200,6.271377197265625,-0.0009674897301010787,-0.00012665335088968277,-0.0013031905982643366
1772649375556421400,6.28142138671875,-0.0010457467287778854,0.00030735181644558907,0.0005889843450859189
1772649375566465300,6.29146533203125,0.0002394948387518525,0.0003848499618470669,0.0023109843023121357
1772649375576509200,6.30150927734375,-0.0004696875112131238,0.002740595955401659,0.0008261158363893628
1772649375586553300,6.31155322265625,-0.0005221518222242594,0.0007235179655253887,-0.0008902914705686271
1772649375596597200,6.32159716796875,-0.0003193800803273916,0.00018057040870189667,-0.0011742921778932214
1772649375606641400,6.331641357421875,-0.0015827836468815804,0.0028192303143441677,0.0019730315543711185
1772649375616686300,6.341686279296875,0.0006197512848302722,0.001819258090108633,-0.0018136721337214112
1772649375626730200,6.351730224609375,-0.00004257692489773035,-0.0013352562673389912,0.0008976922836154699
1772649375636774400,6.3617744140625,-0.0011068929452449083,0.0008562938310205936,0.00002308189868927002
1772649375646818300,6.371818359375,0.00012428651098161936,-0.0001623653806746006,0.0010960694635286927
1772649375656862200,6.3818623046875,-0.00023592711659148335,-0.0018972866237163544,0.0010451088892295957
1772649375666906400,6.39190625,0.002424304373562336,-0.0010759676806628704,-0.0012409486807882786
1772649375676950300,6.4019501953125,0.0021547956857830286,0.0014939624816179276,-0.0006442016456276178
1772649375686995200,6.4119951171875,-0.0011411324376240373,-0.00017211120575666428,-0.0010090547148138285
1772649375697039400,6.422039306640625,-0.0009012838709168136,0.0013101687654852867,0.0007635066285729408
1772649375707083300,6.432083251953125,-0.0013598802033811808,0.0009469138458371162,-0.0006202718359418213
1772649375717127400,6.44212744140625,-0.0003303278353996575,0.0013795355334877968,-0.0009987112134695053
1772649375727171000,6.452171142578125,-0.0011098351096734405,0.0016804728657007217,-0.001768631162121892
1772649375737215200,6.46221533203125,-0.0009218258201144636,0.0014938507229089737,-0.004186827223747969
1772649375747259400,6.47225927734375,0.0006734076887369156,-0.0002369377762079239,0.001759745180606842
1772649375757304000,6.482303955078125,-0.0008470554021187127,0.0018286090344190598,-0.00016423489432781935
1772649375767348200,6.49234814453125,-0.00013013242278248072,-0.00021456880494952202,0.0005766566609963775
1772649375777392400,6.502392333984375,-0.000799852074123919,-0.00011955201625823975,-0.00005521462298929691
1772649375787436300,6.512436279296875,0.0011570386122912169,-0.000821561086922884,0.0018034055829048157
1772649375797480400,6.52248046875,0.0011997082037851214,0.00035079196095466614,-0.001669595018029213
1772649375807524000,6.532524169921875,-0.002242693677544594,-0.0005584112368524075,0.0002806377597153187
1772649375817569300,6.5425693359375,0.0006561785703524947,-0.0009652017615735531,0.0006469389190897346
1772649375827613400,6.552613525390625,0.002030902309343219,0.0023264652118086815,-0.0028761569410562515
1772649375837657000,6.562656982421875,0.00031779706478118896,-0.0004497789777815342,0.0011295160511508584
1772649375847701200,6.572701171875,0.001528736436739564,-0.0005613653920590878,0.00020193716045469046
1772649375857745200,6.5827451171875,0.001375727355480194,0.0001279423013329506,0.000594025943428278
1772649375867789300,6.592789306640625,-0.001674124738201499,0.002600154373794794,-0.0007940136711113155
1772649375877833500,6.60283349609375,-0.0009874352253973484,-0.003569331718608737,-0.0000956038711592555
1772649375887878100,6.612878173828125,0.0002770336577668786,-0.0005003046244382858,0.0015166737139225006
1772649375897922300,6.62292236328125,0.00038081174716353416,-0.00034757936373353004,0.0010437904857099056
1772649375907966500,6.632966552734375,-0.0001512878225184977,0.0021960055455565453,0.000925546046346426
1772649375918010000,6.643010009765625,0.0006653877208009362,-0.0006858515553176403,-0.0011021425016224384
1772649375928054300,6.65305419921875,0.00047763483598828316,-0.0017780140042304993,-0.0015865715686231852
1772649375938098200,6.66309814453125,-0.00017099431715905666,0.0010368642397224903,-0.000119377626106143
1772649375948142300,6.673142333984375,-0.00007804995402693748,0.0019109142012894154,-0.001678125816397369
1772649375958187300,6.683187255859375,0.0006834638770669699,-0.0009043142199516296,-0.00031944666989147663
1772649375968231200,6.693231201171875,-0.000028931768611073494,-0.00020789774134755135,0.001303217257373035
1772649375978275300,6.703275390625,-0.0008376920595765114,0.0007034768350422382,0.00009391293860971928
1772649375988319500,6.713319580078125,-0.00024567131185904145,-0.00007842713966965675,0.0010244215372949839
1772649375998363100,6.723363037109375,-0.00046863150782883167,0.0006471867673099041,0.00027444178704172373
1772649376008407300,6.7334072265625,-0.000213766994420439,-0.0005485727451741695,-0.002923482097685337
1772649376018451200,6.743451171875,0.001265310449525714,-0.0018554870039224625,-0.0025301948189735413
1772649376028496400,6.753496337890625,-0.00030515569960698485,-0.0016008890233933926,-0.00009739713277667761
1772649376038540300,6.763540283203125,0.0009164378279820085,0.001804256346076727,-0.00022777228150516748
1772649376048584200,6.773584228515625,-0.000212209764868021,-0.0008551762439310551,0.0005168474745005369
1772649376058628400,6.78362841796875,-0.0014589173952117562,0.0008864430710673332,0.0012509425869211555
1772649376068672300,6.79367236328125,0.0017906718421727419,-0.0008597914129495621,0.001360132242552936
1772649376078716200,6.803716064453125,-0.0009213966550305486,0.0005025751888751984,0.003657327266409993
1772649376088760300,6.81376025390625,-0.0006891689845360816,0.001977966632694006,-0.001451148185878992
1772649376098805200,6.82380517578125,0.00005830673035234213,-0.0008989730849862099,-0.0009461886947974563
1772649376108849400,6.833849365234375,-0.0010991031304001808,-0.0021123094484210014,-0.0007954537868499756
1772649376118893300,6.843893310546875,0.0014070351608097553,0.00033777160570025444,-0.0021145849023014307
1772649376128937200,6.853937255859375,0.0000629377318546176,-0.0002641030587255955,-0.0019444089848548174
1772649376138981400,6.8639814453125,-0.0005149617791175842,-0.0015680058859288692,-0.0008136943215504289
1772649376149025300,6.874025390625,-0.0003727489383891225,-0.0012233932502567768,0.001325090299360454
1772649376159069200,6.884069091796875,-0.00022088392870500684,0.002871271688491106,-0.0005379886133596301
1772649376169114400,6.8941142578125,0.0008635552367195487,-0.0018715518526732922,-0.000776075292378664
1772649376179158300,6.904158203125,-0.000025567947886884212,-0.0018583228811621666,0.002651357790455222
1772649376189202400,6.914202392578125,0.00041891366709023714,0.0005382555536925793,-0.00027652131393551826
1772649376199246000,6.92424609375,-0.0011178971035405993,-0.0016179364174604416,-0.00033075548708438873
1772649376209290200,6.934290283203125,-0.00003665371332317591,-0.0038123810663819313,0.00020214298274368048
1772649376219334400,6.94433447265625,-0.005310141481459141,-0.00036743562668561935,-0.0018777752993628383
1772649376229378300,6.95437841796875,-0.0006967477966099977,0.0015026358887553215,0.00046580645721405745
1772649376239423200,6.96442333984375,0.0005776280304417014,0.0007712342776358128,0.0007373235421255231
1772649376249467400,6.97446728515625,0.000016233650967478752,-0.000872734934091568,-0.001274161972105503
1772649376259511300,6.98451123046875,0.0013026684755459428,-0.0009817793034017086,0.0021770664025098085
1772649376269555500,6.994555419921875,0.001650743535719812,0.0012685921974480152,0.00024227984249591827
1772649376279599000,7.00459912109375,0.0002355028409510851,-0.0014978861436247826,-0.0017424165271222591
1772649376289643300,7.014643310546875,-0.0010071281576529145,-0.0008712443523108959,0.0014698883751407266
1772649376299687400,7.0246875,-0.0002955279196612537,0.0013868804089725018,-0.001271051587536931
1772649376309732000,7.034732177734375,0.0009508313378319144,-0.0005132844671607018,0.0028059817850589752
1772649376319776300,7.0447763671875,-0.0002901785192079842,0.00011852104216814041,-0.0002817498752847314
1772649376329820400,7.0548203125,-0.001027874182909727,0.00014568539336323738,-0.0004764270270243287
1772649376339864300,7.0648642578125,0.0006503948243334889,-0.0004173009656369686,-0.0006098618032410741
1772649376349908200,7.074908203125,-0.0005978287081234157,0.00002558249980211258,-0.0006045355112291873
1772649376359952100,7.0849521484375,0.0012088343501091003,-0.0014038961380720139,0.0000619885977357626
1772649376369996300,7.094996337890625,0.00041627767495810986,0.0016422271728515625,-0.003358309157192707
1772649376380041500,7.10504150390625,-0.00040139799239113927,0.00019965553656220436,0.0003237042110413313
1772649376390084600,7.115084716796875,-0.0006112551200203598,0.0012231082655489445,-0.0007301086443476379
1772649376400128300,7.125128173828125,-0.00029876927146688104,0.0005334587767720222,0.00027083465829491615
1772649376410172400,7.13517236328125,-0.0003445756738074124,-0.0020194477401673794,-0.0018820647383108735
1772649376420216300,7.14521630859375,0.00025337282568216324,0.0005022375844419003,0.0010261564748361707
1772649376430260500,7.155260498046875,-0.00022146879928186536,0.001638075802475214,0.0009513216791674495
1772649376440304600,7.1653046875,-0.0005109981866553426,-0.0019401758909225464,-0.001124595757573843
1772649376450349300,7.175349365234375,0.0006485421909019351,-0.001216062344610691,-0.0025294132065027952
1772649376460393500,7.1853935546875,-0.000012593693099915981,-0.0006889053620398045,-0.0006799903349019587
1772649376470437600,7.195437744140625,0.0018646684475243092,-0.001031121239066124,-0.00031167513225227594
1772649376480481300,7.205481201171875,0.002707070205360651,-0.0018422254361212254,-0.003691484220325947
1772649376490525400,7.215525390625,0.0010721554281190038,-0.0027144108898937702,0.0002712995046749711
1772649376500569300,7.2255693359375,-0.0024622026830911636,0.0030036470852792263,-0.0003259850200265646
1772649376510613500,7.235613525390625,0.0022766259498894215,0.00010612793266773224,-0.0009733994957059622
1772649376520658400,7.245658447265625,0.00016010168474167585,0.001791476272046566,-0.00011583534069359303
1772649376530702300,7.255702392578125,0.0009763605194166303,-0.0029654623940587044,0.0007403709460049868
1772649376540746500,7.26574658203125,0.00007456506136804819,0.0006026965565979481,-0.0031886266078799963
1772649376550790400,7.275790283203125,0.001019720803014934,-0.0008399374783039093,0.00002447725273668766
1772649376560834300,7.285834228515625,-0.0022485535591840744,-0.000361801590770483,-0.0003332823980599642
1772649376570878500,7.29587841796875,-0.0006964633357711136,0.00023767584934830666,0.0010651435004547238
1772649376580922400,7.30592236328125,0.0009031645022332668,0.00036649731919169426,0.0026602321304380894
1772649376590967300,7.31596728515625,-0.0009980661561712623,-0.00017305929213762283,0.00200269790366292
1772649376601011500,7.326011474609375,-0.00009418511763215065,0.00041398731991648674,-0.0007599586388096213
1772649376611055400,7.336055419921875,-0.0012071201344951987,-0.00020360015332698822,0.0007769516669213772
1772649376621099500,7.346099609375,-0.0000779739348217845,-0.0010997713543474674,0.00015460967551916838
1772649376631143400,7.356143310546875,0.0001526557607576251,-0.0011136196553707123,-0.0013700500130653381
1772649376641187300,7.366187255859375,0.00021403329446911812,-0.000019317492842674255,-0.0012791106710210443
1772649376651231200,7.376231201171875,-0.00042725587263703346,0.0014339694753289223,0.00012117938604205847
1772649376661276400,7.3862763671875,0.0008208381477743387,0.0041330731473863125,0.0009166420204564929
1772649376671320300,7.3963203125,-0.00020341353956609964,-0.0008715391159057617,0.0008708356181159616
1772649376681364200,7.4063642578125,-0.0010950599098578095,0.0010738917626440525,-0.0034645856358110905
1772649376691408400,7.416408447265625,-0.0009453903185203671,0.0010403362102806568,0.0021634725853800774
1772649376701452500,7.42645263671875,-0.0005218254518695176,-0.0014835856854915619,0.001822474761866033
1772649376711496400,7.436496337890625,0.001535466406494379,-0.001499032136052847,0.00006265786942094564
1772649376721540400,7.446540283203125,0.0009107890073210001,-0.00037392135709524155,-0.002140984870493412
1772649376731585500,7.45658544921875,-0.0005811137380078435,0.0017241169698536396,0.0007349627558141947
1772649376741629400,7.46662939453125,0.00027350964955985546,-0.0018732291646301746,0.0005022247787564993
1772649376751673300,7.47667333984375,0.0001810978865250945,-0.0006324625574052334,0.00014030118472874165
1772649376761717200,7.48671728515625,-0.0005168983479961753,0.0022420817986130714,-0.00046412297524511814
1772649376771761400,7.496761474609375,-0.00032461812952533364,-0.0008735503070056438,-0.002391452668234706
1772649376781805600,7.5068056640625,0.0007574169430881739,0.0028300434350967407,-0.0028646765276789665
1772649376791849500,7.516849365234375,-0.0007928090635687113,0.0008374662138521671,-0.0017394910100847483
1772649376801894400,7.526894287109375,0.0011449283920228481,0.0008146730251610279,-0.0000488645164296031
1772649376811938600,7.5369384765625,-0.0005030357860960066,0.00022025546059012413,-0.00005738670006394386
1772649376821982500,7.546982421875,-0.0004336397396400571,-0.001559440977871418,-0.0019478171598166227
1772649376832026400,7.5570263671875,-0.00023656582925468683,0.00024618208408355713,-0.0012295626802369952
1772649376842070300,7.5670703125,-0.0004909559502266347,-0.0016558761708438396,0.0008234623819589615
1772649376852114400,7.577114501953125,0.0016116098267957568,0.002498122863471508,-0.0002487263409420848
1772649376862158300,7.587158447265625,-0.0003481111489236355,0.000053783878684043884,-0.00003875431139022112
1772649376872203300,7.597203369140625,-0.0013353449758142233,0.00005165301263332367,0.0007695150561630726
1772649376882247400,7.607247314453125,0.0011623372556641698,-0.0016877800226211548,-0.00043097534216940403
1772649376892291300,7.617291259765625,0.0010752518428489566,-0.003386344062164426,-0.0020147571340203285
1772649376902335500,7.62733544921875,-0.0023358650505542755,0.0007285089232027531,0.0032989622559398413
1772649376912379400,7.63737939453125,0.0014921627007424831,-0.000534628052264452,-0.00040895678102970123
1772649376922423300,7.64742333984375,-0.00009111850522458553,-0.0003209812566637993,0.0010747909545898438
1772649376932467500,7.657467529296875,0.0002782619558274746,-0.0004179202951490879,-0.0019154064357280731
1772649376942512600,7.6675126953125,-0.0010892264544963837,0.00033683981746435165,-0.0013382420875132084
1772649376952556300,7.677556396484375,0.003869046922773123,-0.00008580414578318596,-0.001387510565109551
1772649376962600400,7.687600341796875,-0.0001340711023658514,-0.0005140053108334541,-0.0008674210403114557
1772649376972644400,7.697644287109375,-0.0017431529704481363,-0.0003946959041059017,-0.000009883195161819458
1772649376982688500,7.7076884765625,-0.0028535176534205675,0.0002947477623820305,-0.0013779207365587354
1772649376992732400,7.717732421875,-0.0005213874974288046,-0.0006506745703518391,-0.0017672748072072864
1772649377002776300,7.7277763671875,0.0011674423003569245,-0.0035478142090141773,0.002502639312297106
1772649377012821500,7.737821533203125,0.00011815689504146576,0.00018860073760151863,-0.001337905297987163
1772649377022865400,7.747865478515625,-0.0006751214386895299,0.0032927640713751316,-0.0008870915626175702
1772649377032909300,7.757909423828125,-0.0002111988142132759,0.0030773147009313107,0.0013134783366695046
1772649377042953500,7.767953369140625,0.0007006226805970073,-0.0028562904335558414,0.0018880210118368268
1772649377052997400,7.777997314453125,-0.0012948838993906975,-0.00015264935791492462,-0.00026594370137900114
1772649377063041500,7.78804150390625,-0.0011332833673804998,-0.0006268518045544624,-0.00013786926865577698
1772649377073085200,7.798085205078125,-0.0003995824372395873,0.0009742407128214836,0.0027266270481050014
1772649377083130400,7.80813037109375,-0.00015480571892112494,0.00008170399814844131,0.0010351872770115733
1772649377093174500,7.818174560546875,0.0015160616021603346,-0.00024346821010112762,0.000316932681016624
1772649377103218400,7.828218505859375,-0.0010824768105521798,-0.0017180494032800198,0.0002804659307003021
1772649377113262300,7.838262451171875,0.00026668061036616564,0.0005821227096021175,-0.0004513707244768739
1772649377123306500,7.848306396484375,0.00020884687546640635,-0.00037781940773129463,0.00012114201672375202
1772649377133350400,7.858350341796875,0.0006863516755402088,0.000528720673173666,-0.0012410648632794619
1772649377143394600,7.86839453125,-0.0006644926615990698,-0.0009077633731067181,0.0021984269842505455
1772649377153439500,7.878439453125,-0.0007092338055372238,0.0005750847049057484,0.0002673688577488065
1772649377163483400,7.8884833984375,0.0023726338986307383,0.0027015460655093193,0.003331518266350031
1772649377173527600,7.898527587890625,0.00012732285540550947,0.0009768828749656677,0.00011575152166187763
1772649377183571500,7.908571533203125,-0.0011793235316872597,0.0014360789209604263,-0.000584640190936625
1772649377193615400,7.918615478515625,0.0015112682012841105,0.00018758885562419891,-0.0027079787105321884
1772649377203659300,7.9286591796875,0.0023636543191969395,-0.0037036186549812555,-0.001115173101425171
1772649377213703400,7.938703369140625,0.0004166171420365572,-0.001596259418874979,-0.002776186680421233
1772649377223748400,7.948748291015625,0.002432009670883417,0.00215111393481493,0.0010398951126262546
1772649377233792300,7.958792236328125,0.0008239930029958487,0.0014128852635622025,0.001300085918046534
1772649377243836400,7.96883642578125,-0.0001511668087914586,0.0005998872220516205,-0.00021295039914548397
1772649377253880600,7.978880615234375,0.00024830736219882965,0.0011333180591464043,-0.00029071466997265816
1772649377263924500,7.988924560546875,0.0013876250013709068,0.0007826662622392178,-0.001500366604886949
1772649377273968400,7.998968505859375,0.0011972091160714626,0.000967755913734436,0.000653065275400877
1772649377284012300,8.00901220703125,0.00045416061766445637,-0.0003879815340042114,-0.0031573795713484287
1772649377294057500,8.019057373046875,0.00030449090991169214,-0.0011943867430090904,-0.0002691812114790082
1772649377304101400,8.029101318359375,-0.0012202374637126923,0.00016642827540636063,0.00015203841030597687
1772649377314145300,8.039145263671875,-0.0008556506363674998,-0.002965981839224696,0.0015664432430639863
1772649377324189400,8.049189453125,0.0023975400254130363,0.0010720607824623585,-0.002473068656399846
1772649377334233600,8.059233642578125,-0.0006373982178047299,-0.001155673060566187,-0.00030046177562326193
1772649377344277500,8.069277587890625,0.0003742646658793092,0.001527364831417799,-0.0019251580815762281
1772649377354321400,8.0793212890625,-0.0010057854233309627,0.0004146960563957691,0.00010949699208140373
1772649377364366300,8.089366455078125,-0.00004886440001428127,-0.0013094930909574032,0.0010697132674977183
1772649377374410500,8.099410400390624,0.0004659246187657118,0.003747317474335432,-0.0010573534527793527
1772649377384454400,8.109454345703124,-0.0006672182353213429,0.002605623099952936,0.001104716444388032
1772649377394498300,8.119498291015624,0.0009988552192226052,-0.00289913103915751,0.0020839606877416372
1772649377404542500,8.12954248046875,0.003703203983604908,0.0010770224034786224,0.0012310626916587353
1772649377414586400,8.13958642578125,0.00012711144518107176,0.002342289313673973,0.0002944289008155465
1772649377424630500,8.149630615234376,-0.0004127518623135984,0.0007082680240273476,0.0009754521306604147
1772649377434675500,8.159675537109376,0.0025854348205029964,-0.000221974216401577,0.001720871077850461
1772649377444719400,8.16971923828125,-0.0003143560606986284,0.000216697808355093,-0.0007446430972777307
1772649377454763500,8.179763427734375,0.00037806585896760225,0.0009509311057627201,-0.002217637374997139
1772649377464807400,8.189807373046875,-0.0008897167863324285,-0.001555879134684801,0.002189227379858494
1772649377474851300,8.199851318359375,-0.0014668237417936325,0.0008795815519988537,-0.0018497226992622018
1772649377484895500,8.2098955078125,-0.00013513118028640747,0.000837565865367651,0.0010227711172774434
1772649377494939400,8.219939453125,-0.0007921330397948623,0.0020711426623165607,0.0005636421265080571
1772649377504984300,8.229984375,-0.00035918608773499727,-0.0016025686636567116,0.0006782195996493101
1772649377515028500,8.240028564453125,0.0014192729722708464,-0.0004611378535628319,0.0002963223960250616
1772649377525072400,8.250072265625,0.000388380722142756,-0.000009484589099884033,-0.001222129794768989
1772649377535116500,8.260116455078125,-0.0007953944150358438,-0.0007604961283504963,-0.0006460880395025015
1772649377545160200,8.27016015625,0.00047738233115524054,-0.0019681723788380623,-0.0017430587904527783
1772649377555204400,8.280204345703124,0.0022939243353903294,-0.0009058373980224133,-0.0014423879329115152
1772649377565248500,8.29024853515625,-0.00002489506732672453,0.0012157871387898922,0.0010691514471545815
1772649377575293200,8.300293212890624,0.004583172500133514,0.00138436583802104,0.002354659140110016
1772649377585337300,8.31033740234375,-0.001506691100075841,0.0007706903852522373,-0.0005703476490452886
1772649377595381500,8.320381591796876,0.0000030549708753824234,-0.0024767685681581497,0.00022300798445940018
1772649377605425400,8.33042529296875,-0.0024484549649059772,-0.0004055146127939224,0.00009438116103410721
1772649377615469600,8.340469482421875,0.00047036970499902964,0.0033785710111260414,-0.0033972891978919506
1772649377625513200,8.35051318359375,0.0002820214722305536,-0.0011789225973188877,0.00005748111288994551
1772649377635557400,8.360557373046875,-0.001311614061705768,-0.0010313834063708782,0.002209048718214035
1772649377645602600,8.3706025390625,0.001619483344256878,-0.0009479490108788013,-0.0017568081384524703
1772649377655646200,8.380646240234375,-0.0004204980796203017,0.00004780711606144905,-0.0027746683917939663
1772649377665690400,8.3906904296875,-0.00017488718731328845,0.000791650265455246,-0.0013429120881482959
1772649377675734500,8.400734619140625,0.0008693382842466235,-0.0016725724563002586,0.0009127854136750102
1772649377685778400,8.4107783203125,-0.00046448386274278164,-0.000008734408766031265,0.0002739321207627654
1772649377695822600,8.420822509765625,-0.0018911391962319613,0.0019739889539778233,0.0021037899423390627
1772649377705866200,8.4308662109375,0.0012599531328305602,-0.0007266364991664886,0.0009527804795652628
1772649377715911400,8.440911376953125,-0.00014699494931846857,-0.00007762433961033821,0.000775147695094347
1772649377725955600,8.45095556640625,0.00019499717745929956,-0.0019223778508603573,0.002060122787952423
1772649377735999200,8.460999267578124,-0.002296656370162964,0.0006789974868297577,0.00041082710959017277
1772649377746043400,8.47104345703125,-0.001071709324605763,0.00031578075140714645,-0.0005706550437025726
1772649377756087300,8.48108740234375,0.0006380401318892837,-0.00035134144127368927,0.0014112693024799228
1772649377766131500,8.49113134765625,0.0010498376796022058,-0.0008768416009843349,0.002893183846026659
1772649377776175600,8.501175537109376,0.0005417066859081388,-0.0016190647147595882,-0.00016572268214076757
1772649377786220300,8.51122021484375,0.0006760346004739404,-0.0008047991432249546,0.000812961719930172
1772649377796264400,8.521264404296875,0.0018004211597144604,-0.0009416858665645123,-0.00020889309234917164
1772649377806308600,8.53130859375,0.00022126559633761644,-0.0017024376429617405,-0.004971233196556568
1772649377816352300,8.541352294921875,0.00017652439419180155,0.0010334276594221592,-0.001626569195650518
1772649377826396400,8.551396484375,0.00011315976735204458,0.0017851199954748154,-0.0013586257118731737
1772649377836440300,8.5614404296875,0.0008050489705055952,0.000543287955224514,-0.0011847212444990873
1772649377846484500,8.571484375,0.0005270306719467044,-0.0006522135809063911,0.0005774754099547863
1772649377856529400,8.581529296875,0.0004615169018507004,-0.0011377078481018543,-0.003525923239067197
1772649377866573300,8.5915732421875,-0.0010764208855107427,0.0009172484278678894,-0.004003909416496754
1772649377876617500,8.601617431640625,-0.0009629702544771135,-0.0020050383172929287,-0.001990825869143009
1772649377886661400,8.611661376953125,0.0009353196946904063,0.0009795846417546272,0.0013084824895486236
1772649377896705300,8.621705322265624,-0.0004505892866291106,0.0011921050027012825,0.0005699879257008433
1772649377906749400,8.63174951171875,0.000548607436940074,-0.0009854449890553951,0.0002744451630860567
1772649377916793300,8.64179345703125,0.002512688748538494,-0.0017236731946468353,-0.00291761988773942
1772649377926838300,8.65183837890625,-0.0004609866882674396,-0.0001195915974676609,-0.0017796177417039871
1772649377936882400,8.66188232421875,-0.00039174454286694527,-0.0023806155659258366,0.00014638039283454418
1772649377946926300,8.67192626953125,0.0009474839316681027,-0.0018368717283010483,0.00002592511009424925
1772649377956970500,8.681970458984376,-0.00012071005767211318,0.0010944698005914688,-0.001851603388786316
1772649377967014400,8.692014404296875,0.0011807060800492764,-0.000817085150629282,0.0009478852152824402
1772649377977058300,8.702058349609375,0.001415597042068839,0.0009571127593517303,0.0023319299798458815
1772649377987102500,8.7121025390625,0.0007718760753050447,-0.0009068758226931095,-0.0003736696671694517
1772649377997147400,8.7221474609375,-0.0005647644284181297,0.00083509786054492,0.0007059758063405752
1772649378007191300,8.73219140625,0.0002780766226351261,0.0018857675604522228,-0.0030776469502598047
1772649378017235500,8.7422353515625,0.002143088262528181,-0.00008710240945219994,0.0008971209172159433
1772649378027279400,8.752279296875,-0.00002366025000810623,-0.003105351235717535,-0.0019104459788650274
1772649378037323500,8.762323486328125,0.0024336385540664196,0.00004410324618220329,-0.0006403845036402345
1772649378047367400,8.772367431640625,0.000482780858874321,-0.00045014638453722,0.0018563609337434173
1772649378057411300,8.782411376953124,-0.0002176304697059095,-0.00012390920892357826,-0.0022006987128406763
1772649378067456500,8.79245654296875,0.001257781870663166,0.000858725979924202,0.0009115956490859389
1772649378077500400,8.80250048828125,-0.00219420762732625,0.0010784361511468887,-0.0015238651540130377
1772649378087544300,8.81254443359375,0.0008187569910660386,-0.0004780818708240986,0.0009964279597625136
1772649378097588200,8.822588134765626,0.00029917422216385603,-0.0019982140511274338,0.0010680669220164418
1772649378107632400,8.83263232421875,0.0013242395361885428,-0.0028437976725399494,-0.0004831833066418767
1772649378117676500,8.842676513671876,0.0005399386864155531,0.0010894248262047768,0.0011573238298296928
1772649378127720400,8.852720458984376,0.0004549170844256878,-0.001264018937945366,-0.00006813125219196081
1772649378137765400,8.862765380859376,-0.0011051626643165946,0.000615640077739954,0.004031272605061531
1772649378147809500,8.8728095703125,0.0015719207003712654,-0.00027585774660110474,-0.0010754704708233476
1772649378157853400,8.882853515625,0.0023961688857525587,-0.001033260952681303,0.000905122491531074
1772649378167897300,8.8928974609375,0.002652352210134268,-0.000660319346934557,0.001087301061488688
1772649378177941200,8.902941162109375,-0.0008204099722206593,-0.0016483520157635212,-0.0016538907075300813
1772649378187985400,8.9129853515625,0.0007176984800025821,-0.00025133509188890457,-0.0007461637142114341
1772649378198029600,8.923029541015625,0.0001405914081260562,-0.00018582120537757874,0.0005854167975485325
1772649378208074200,8.93307421875,0.0006272441241890192,-0.0006780140101909637,0.0006466578925028443
1772649378218118400,8.943118408203125,0.0015910421498119831,0.0010642255656421185,-0.0015070404624566436
1772649378228162300,8.953162353515625,-0.0009480274165980518,0.0009740223176777363,0.00005637947469949722
1772649378238206500,8.96320654296875,0.001062392839230597,-0.001073415856808424,-0.0009739975212141871
1772649378248250400,8.97325048828125,-0.001980523345991969,0.00039206165820360184,0.00033631164114922285
1772649378258294300,8.983294189453124,-0.0006942166364751756,-0.0008380524814128876,0.000911021837964654
1772649378268338400,8.99333837890625,0.0013297377154231071,0.0005742744542658329,0.0019508986733853817
1772649378278383600,9.003383544921874,-0.0007746921619400382,-0.00007606949657201767,-0.0014195980038493872
1772649378288427300,9.01342724609375,0.002300223335623741,-0.0032391208223998547,0.00012618093751370907
1772649378298471400,9.023471435546876,0.0008583879098296165,-0.0006611808203160763,0.000554150901734829
1772649378308515300,9.033515380859376,-0.0011380646610632539,0.0013064215891063213,-0.0012255427427589893
1772649378318559500,9.0435595703125,-0.00195458997040987,0.0030036545358598232,0.0003473202232271433
1772649378328603400,9.053603271484375,0.0027148323133587837,-0.0005653649568557739,0.0020669675432145596
1772649378338647300,9.063647216796875,0.0010881737107411027,-0.0006053121760487556,-0.002416464267298579
1772649378348692500,9.0736923828125,0.0016486914828419685,0.005341874901205301,0.014865126460790634
1772649378358736600,9.083736572265625,-0.00021392334019765258,-0.01375325582921505,0.02386954054236412
1772649378368780300,9.0937802734375,0.0009649067651480436,-0.0018584015779197216,0.011478571221232414
1772649378378824400,9.103824462890625,0.00007940572686493397,-0.007437457796186209,0.009414621628820896
1772649378388868900,9.113868896484375,-0.002850972581654787,0.0007243719883263111,0.015972331166267395
1772649378398912800,9.123912841796875,-0.0024525639601051807,-0.007124496158212423,0.023973798379302025
1772649378408956700,9.133956787109375,0.0009025788167491555,-0.006948475725948811,0.026424314826726913
1772649378419001900,9.144001953125,-0.003183509223163128,-0.0063998643308877945,0.016807908192276955
1772649378429045800,9.154045654296874,-0.00298731098882854,-0.010109184309840202,0.011898299679160118
1772649378439089700,9.164089599609374,-0.0008455968927592039,-0.0046334583312273026,-0.0005429239245131612
1772649378449133800,9.1741337890625,0.0016787186032161117,0.013544520363211632,-0.020413827151060104
1772649378459177700,9.184177734375,0.0019706012681126595,0.0296060461550951,-0.04463847354054451
1772649378469222000,9.194221923828126,0.002151071559637785,0.01291836891323328,-0.046084754168987274
1772649378479265800,9.204265869140626,0.0022488092072308064,-0.006897146813571453,-0.023002075031399727
1772649378489310700,9.214310791015626,0.000371550559066236,-0.015016254037618637,-0.007695656269788742
1772649378499355000,9.22435498046875,-0.0012428577756509185,0.004294859245419502,0.0006126073421910405
