time,seconds_elapsed,z,y,x
1772793987984057000,0.08105712890625,0.15335750106573104,0.09875117387026548,0.03706365624219179
1772793987994102000,0.09110205078125,0.1900491091251373,0.10651304004341364,0.047613984090089795
1772793988004147000,0.10114697265625,0.20829145278036593,0.10935030929595231,0.031197979079186915
1772793988014192000,0.111192138671875,0.17350480155944822,0.09359802889078855,-0.012233750890195369
1772793988024237000,0.121237060546875,0.14036065684854984,0.07847089464664458,-0.04988514389246702
1772793988034282200,0.1312822265625,0.0884042596399784,0.05349924273639917,-0.027072131320834157
1772793988044327000,0.141326904296875,0.06937690308690071,0.06474018319696187,-0.06558160245716571
1772793988054372000,0.1513720703125,0.0865261908084154,0.07247691492885351,-0.08749474357962608
1772793988064416300,0.161416259765625,-0.037844285225868225,-0.026331834347546098,-0.08295037814825773
1772793988074461000,0.1714609375,0.0018400749087333678,0.11777297746539116,-0.09645634093135595
1772793988084506000,0.181506103515625,0.14092179786264897,0.25947949596494435,-0.011610066033899783
1772793988094551000,0.191551025390625,0.20271452943086624,0.23183599449694156,0.09659224227070808
1772793988104596200,0.20159619140625,0.2523760937005281,0.2728893048971891,0.19484511123001574
1772793988114641200,0.21164111328125,0.04244564154148102,0.002323474511504173,0.05270224713981151
1772793988124686000,0.22168603515625,-0.02423778467774391,0.05861848544627428,-0.050496553789079184
1772793988134731000,0.23173095703125,0.2328103924870491,0.27024522012919183,-0.1477323546603322
1772793988144776200,0.241776123046875,0.38128129055500026,0.1959033881112933,-0.02828238389343023
1772793988154821000,0.251821044921875,0.40742987729012964,0.1433902338027954,0.146949387589097
1772793988164866000,0.261865966796875,0.4809522096186876,0.1682207236766815,0.18111907595545051
1772793988174911000,0.271910888671875,0.4699608600050211,0.21812895618379113,0.17768997828960417
1772793988184956200,0.2819560546875,0.2907680759370327,0.21432488772571084,0.17805150507837533
1772793988195001000,0.2920009765625,0.10816928281784056,0.20130700072050092,0.07370601833239197
1772793988205046300,0.30204638671875,-0.0624801293104887,0.2341863570153713,-0.01833615941852331
1772793988215091000,0.312091064453125,-0.1847515872389078,0.29235359156280755,-0.09679609427973628
1772793988225136000,0.32213623046875,-0.11627426334023475,0.3342342926979065,-0.13506474239751695
1772793988235181000,0.33218115234375,0.06870353386998176,0.4839852937042713,0.03840191910862922
1772793988245226200,0.342226318359375,0.23925591536462307,0.4591249932140112,0.17292627101913094
1772793988255270000,0.352269775390625,0.34744039575159547,0.16743512625694273,0.06596621786057949
1772793988265315000,0.362315185546875,0.513167549046874,0.09091653472185135,-0.06627572220116854
1772793988275360000,0.372360107421875,0.6855354555308818,0.23583587778806686,-0.08110577319487929
1772793988285405200,0.3824052734375,0.7644353892445563,0.2901905683100223,-0.053889557228237385
1772793988295449900,0.392449951171875,0.8312006485283374,0.26530221076905725,-0.060542146985232824
1772793988305495000,0.4024951171875,0.9820493816435336,0.36104864986538887,-0.13001841879338025
1772793988315540000,0.4125400390625,1.0568003789842129,0.4288344843685627,-0.10108969982042908
1772793988325585200,0.422585205078125,1.0865104575932025,0.49613516570329663,-0.11367591741010546
1772793988335630000,0.432630126953125,0.93731475238204,0.6775485484302044,-0.2518850953131914
1772793988345675000,0.442675048828125,0.7960995245307684,1.0303899264425038,-0.6101658879004418
1772793988355720000,0.452719970703125,0.7021592580735683,1.2665326782226562,-0.907907163850963
1772793988365765000,0.46276513671875,0.7580874815225601,1.1129501362293959,-0.6720636872783303
1772793988375810000,0.47281005859375,1.0123463202297687,1.0320318484306334,-0.34183614600375295
1772793988385855200,0.482855224609375,1.1987129414498805,0.9332868120402097,-0.007238134559988975
1772793988395900000,0.49289990234375,1.3022650858610867,0.6745680713146924,0.14143091642856598
1772793988405945000,0.502945068359375,1.3017840243458747,0.2664823604643345,0.27432532904967666
1772793988415990000,0.512989990234375,1.3057009055286646,-0.017328735941648483,0.41000031230002637
1772793988426035200,0.52303515625,1.2943109119862317,-0.16994915490448473,0.532825750849396
1772793988436079900,0.533079833984375,1.2785223912239074,-0.16354864021241663,0.7657964484646916
1772793988446125000,0.543125,1.4085089535742998,0.2568488552004099,0.628295418830961
1772793988456169200,0.553169189453125,1.4340128126651048,0.6666372783154249,0.21626973818317055
1772793988466214100,0.563214111328125,1.2087854226529597,0.7784837883412837,0.025076427458971737
1772793988476259000,0.573259033203125,0.9054571403503417,0.8017261322408914,-0.048193099152296776
1772793988486304000,0.583303955078125,0.6699187842041253,0.8562865744680166,-0.14282090948224066
1772793988496349200,0.59334912109375,0.6305769538968801,1.0290759212344884,-0.1902298725195229
1772793988506394000,0.60339404296875,0.6950795289456844,1.1157464889496564,-0.15007541065514088
1772793988516439300,0.613439208984375,0.7910135995686054,1.04807755882442,-0.05215411173775792
1772793988526484000,0.62348388671875,0.8334627482414245,0.8709142347574234,0.08980813508853316
1772793988536529200,0.633529052734375,0.7997884421765804,0.7033569434255361,0.06090761929675936
1772793988546574000,0.643573974609375,0.5434539662390947,0.5424783992052078,0.06067702541127801
1772793988556619300,0.653619384765625,0.1643564494639635,0.5035667770087718,0.1478267549455166
1772793988566664000,0.663663818359375,-0.30711715319156646,0.3003963205039501,-0.20450988841503856
1772793988576709000,0.673709228515625,-1.2061568277150392,-0.5978010579764843,-0.1506777604624629
1772793988586754000,0.683754150390625,-2.143494960972667,-1.453035493043065,-0.09713701667189598
1772793988596799200,0.69379931640625,-2.974020486718416,-2.1721493930488824,-0.1037266972605139
1772793988606844200,0.70384423828125,-3.4829987673819063,-2.581387781065702,-0.1052875168364495
1772793988616889000,0.71388916015625,-3.6525866877585647,-2.1680366970330476,-0.4828500060640275
1772793988626934000,0.72393408203125,-3.6027743168413635,-1.7304764698952435,-0.4773383299704641
1772793988636979200,0.733979248046875,-3.4388685337543485,-1.569195190092921,0.2006304166331887
1772793988647024000,0.744024169921875,-3.0305712259799242,-1.1051181274294852,0.525782408209145
1772793988657068000,0.754068115234375,-2.549190561816096,-0.8479308340549468,1.4887848518162965
1772793988667113000,0.764113037109375,-2.202892321836948,-0.6345388432651757,1.9815338822126387
1772793988677158100,0.774158203125,-2.098572115662694,-0.13148878360688684,1.827052491683513
1772793988687203000,0.784203125,-2.1770038473427293,0.2227536933749914,1.4771508203849195
1772793988697248000,0.794248046875,-2.1553888123840093,0.5279577064216137,0.9169215143032371
1772793988707293000,0.80429296875,-1.7176438763290642,0.8732552449256181,0.7328957571208476
1772793988717338000,0.814338134765625,-1.0179559768050908,1.0290484487056732,0.7954838037852198
1772793988727383000,0.824383056640625,-0.4211117811620235,1.2390098805248737,0.3219945504583418
1772793988737428200,0.83442822265625,-0.1896048724889755,1.2139058344066143,0.05774652491733431
1772793988747473000,0.844472900390625,-0.12513152353465556,0.9664064068317413,0.3490686545405537
1772793988757518000,0.85451806640625,0.09729133045077323,0.9322142143726349,0.16240020082965492
1772793988767563000,0.86456298828125,0.33732056827545165,0.9956927070707082,-0.7617497303571552
1772793988777608200,0.874608154296875,0.16219722560346125,1.0136597409158945,-0.9150872115481644
1772793988787653000,0.884653076171875,0.5316115527540445,0.7326233699202537,-1.128088084128499
1772793988797698000,0.894697998046875,0.6523264288902282,0.6185539231479168,-1.2677540367111564
1772793988807743000,0.904742919921875,0.8009913882255554,0.46680619536638257,-0.6920597427330911
1772793988817788200,0.9147880859375,1.3575912517637014,0.1535685134679079,-0.15947192882541567
1772793988827833000,0.9248330078125,1.5058078828096388,0.25407412979006766,-0.5871003618724644
1772793988837878000,0.9348779296875,0.950412718886137,0.3174772191643715,0.09966445279028266
1772793988847923000,0.9449228515625,1.2844319075286388,0.1847597705453634,0.7216133156061172
1772793988857968000,0.954968017578125,1.1545306853741406,0.33998540357053275,0.8624678203862159
1772793988868012300,0.96501220703125,0.5408592735707759,0.21940555199086664,1.3949905697010456
1772793988878057000,0.975056884765625,0.40434301719069476,-0.022971125742793082,1.3269029757723212
1772793988888102100,0.98510205078125,0.34948914497494693,0.22365853326022625,0.5206322954369709
1772793988898147000,0.99514697265625,0.07167582767903805,0.25893793643414975,-0.11826052352031692
1772793988908192300,1.005192138671875,-0.12334522463977336,0.2052946090519428,-0.45395661413278426
1772793988918237000,1.01523681640625,-0.2807277434378862,0.1997790605008602,-0.4001302948664874
1772793988928282000,1.0252822265625,-0.47726036936342714,-0.021730185770988463,-0.04934395882100798
1772793988938327000,1.0353271484375,-0.5062812966644764,-0.010174772533774376,0.12928678005058317
1772793988948372200,1.045372314453125,-0.44513504630625245,0.10607318732142448,0.1828721667004749
1772793988958417200,1.055417236328125,-0.5793757589697838,-0.015314473509788512,0.10402560714185237
1772793988968462000,1.065462158203125,-0.8999275632739067,-0.2548264094620943,-0.16089359565898775
1772793988978507000,1.075507080078125,-1.1141636036723852,-0.3422165236234665,-0.46745117873903363
1772793988988552200,1.08555224609375,-1.1889520104140043,-0.37205987322330475,-0.6901232217125595
1772793988998597000,1.09559716796875,-1.1449188074201344,-0.2973036151856184,-0.7508421865694225
1772793989008642300,1.105642333984375,-1.0634440547823905,-0.21967150945067404,-0.7265816055379808
1772793989018687000,1.11568701171875,-0.9479103806763887,-0.173214294180274,-0.6349973276223987
1772793989028732200,1.125732177734375,-0.8311848664373159,-0.14007541016638278,-0.5085357245277613
1772793989038777000,1.135777099609375,-0.7605272758901119,-0.15092998165786264,-0.4463188127307221
1772793989048822300,1.145822265625,-0.7021843925148248,-0.1702203730612993,-0.46338243146277963
1772793989058867000,1.155866943359375,-0.6130839673042296,-0.1599070688396692,-0.466066081056185
1772793989068911000,1.1659111328125,-0.47863574936985964,-0.12252280234098434,-0.4210159195721149
1772793989078956000,1.1759560546875,-0.2904103485405445,-0.10032266097068786,-0.3568720217678696
1772793989089001200,1.186001220703125,-0.15129530783891676,-0.10090659833848475,-0.22977438579201698
1772793989099046000,1.1960458984375,-0.011648352217674254,-0.06354162106215953,-0.10877871995307505
1772793989109091000,1.206091064453125,0.12288929756581783,-0.046454877182841296,-0.010761340250074863
1772793989119136000,1.216135986328125,0.18699264416396616,-0.038678982484340665,0.021556290508806704
1772793989129181200,1.22618115234375,0.1510451324701309,-0.12966449078917502,-0.07160276244282722
1772793989139226000,1.23622607421875,0.1737590685814619,-0.09873685308396815,-0.20801248970851302
1772793989149271000,1.24627099609375,0.2458814709842205,0.0023228899896144866,-0.23606230695508418
1772793989159316000,1.25631591796875,0.30016484983563424,-0.07042144370377064,-0.0010579846203327178
1772793989169361200,1.266361083984375,0.31591011597812174,-0.046160862672328946,0.13848894469253717
1772793989179406000,1.276406005859375,0.3563713057041168,0.04786474398076534,0.10884360188283025
1772793989189451000,1.286450927734375,0.34191374128460883,0.05942483339309692,0.15537790097743273
1772793989199496000,1.296495849609375,0.27400398814082144,0.013816928428411483,0.26309176817797125
1772793989209541000,1.306541015625,0.22895137897133827,0.043189153385162354,0.1253363984569907
1772793989219586000,1.3165859375,0.22729250584840774,0.1097971762806177,0.0040850042913109065
1772793989229631200,1.32663134765625,0.19145663783550262,0.13196049277186392,0.009481748768314719
1772793989239676000,1.336676025390625,0.133224813619256,0.1749789657652378,0.01968465141803026
1772793989249720600,1.346720458984375,0.11240648199617861,0.125486912843585,0.23096388783752916
1772793989259765500,1.356765625,0.08891513177156447,0.3005652473300695,0.4581397085037082
1772793989269810400,1.366810546875,0.0701005411863327,0.4733411500930786,0.4795210808370262
1772793989279854600,1.3768544921875,-0.15913842255473135,0.12058452775478362,0.26656170931085943
1772793989289899500,1.3868994140625,-0.18576222558617592,0.07309855395853519,0.215385794955492
1772793989299944400,1.3969443359375,-0.1582826825082302,0.22771803778409958,0.08102876243591309
1772793989309989400,1.4069892578125,-0.11851122861206531,0.3406488359153271,-0.046354997004941105
1772793989320034600,1.41703466796875,-0.09583119477033615,0.3450993855834007,-0.17696882440820336
1772793989330079500,1.42707958984375,-0.1677279717236757,0.22712182545661924,-0.04775470773503184
1772793989340124700,1.437124755859375,-0.22041092964112757,0.21032851156592366,0.043877574040740726
1772793989350169300,1.44716943359375,-0.22755437165498732,0.2802098570436239,0.023455840519815682
1772793989360214500,1.457214599609375,-0.2771393635571003,0.307946005231142,0.026341113632544873
1772793989370259500,1.467259521484375,-0.31384909179508685,0.2857651530832052,0.0649171471990645
1772793989380304600,1.4773046875,-0.356934200283885,0.2577799985706806,0.08821670117862522
1772793989390349300,1.487349365234375,-0.3549520865559578,0.22784780164361,0.06606069121100008
1772793989400394500,1.49739453125,-0.3146148154705763,0.1775450168609619,0.0038854631312191484
1772793989410439400,1.507439453125,-0.2859720738321543,0.1436345639526844,-0.06890512085668742
1772793989420484600,1.517484619140625,-0.24451193619668482,0.12712591222226619,-0.10311141490638255
1772793989430529500,1.527529541015625,-0.17532558724582195,0.11787936044931412,-0.0942437794484198
1772793989440574500,1.537574462890625,-0.1073182189464569,0.08132511503398418,-0.0730945353705436
1772793989450619400,1.547619384765625,-0.06489478923678398,0.0500233833193779,-0.044240708264708516
1772793989460664600,1.55766455078125,-0.029131401938199995,0.06393208168447018,-0.022214462156593798
1772793989470709500,1.56770947265625,0.023124854999780654,0.06991817035675048,-0.033465924011170864
1772793989480753400,1.57775341796875,0.06631576195061206,0.07180383797287941,-0.012436799181625246
1772793989490798600,1.587798583984375,0.09879998144805431,0.0803922180980444,-0.011588146463036537
1772793989500843500,1.597843505859375,0.1196703355193138,0.08484335228800773,0.05404745120368898
1772793989510888700,1.607888671875,0.15946809290051459,0.08450432959198952,0.11303630433231592
1772793989520933400,1.617933349609375,0.15270166750550268,0.0412263288795948,0.17302366697899996
1772793989530978600,1.627978515625,0.10652385369837283,0.025299860951304435,0.1863717357866466
1772793989541023500,1.6380234375,0.08004676566123962,0.007709843724966049,0.1848973523851484
1772793989551068700,1.648068603515625,0.035572833162546155,-0.022940146082639692,0.14113690191805361
1772793989561113600,1.658113525390625,-0.024576222851872442,-0.05111000951230526,0.05852108948640525
1772793989571158500,1.668158447265625,-0.09175532363355159,-0.0921253259897232,-0.021289090939983723
1772793989581203500,1.678203369140625,-0.1423842716306448,-0.09167582865655421,-0.10838855159170925
1772793989591248600,1.68824853515625,-0.16774433833658695,-0.08296294536888599,-0.2107560162629932
1772793989601293600,1.69829345703125,-0.14129998352527617,-0.07896832277476787,-0.27829876272529364
1772793989611338500,1.70833837890625,-0.12656535573005676,-0.07057458843886852,-0.2902688211780041
1772793989621383400,1.718383544921875,-0.11516425627171993,-0.06871230169832707,-0.24316738971993326
1772793989631428600,1.7284287109375,-0.08399871815741061,-0.04109714954197406,-0.17808862221837043
1772793989641473500,1.7384736328125,-0.05065875861346721,-0.03247954332232475,-0.10799904081746935
1772793989651518500,1.7485185546875,-0.0041594577670097345,-0.027453824114799498,-0.07961341574527322
1772793989661563400,1.7585634765625,0.05872223808169365,0.0048848494321107865,-0.08237287052124738
1772793989671608600,1.768608642578125,0.11245733540058135,0.0340939927816391,-0.08155775474607944
1772793989681652500,1.778652587890625,0.16712182252407073,0.05247019194960594,-0.09219532248601317
1772793989691697700,1.78869775390625,0.20519699389636514,0.08003916687667369,-0.08112403950393199
1772793989701742300,1.798742431640625,0.22314473851919173,0.08951718931794166,-0.11030103414952755
1772793989711787500,1.80878759765625,0.25074177049696444,0.07349953597486018,-0.10959858496859669
1772793989721832400,1.81883251953125,0.2555874569624662,0.08679273279011249,-0.06869717719443141
1772793989731877600,1.828877685546875,0.2252548625409603,0.0886702170997858,-0.03289608823396265
1772793989741922600,1.838922607421875,0.173341135430336,0.08126549380123614,0.01904445381835103
1772793989751967500,1.848967529296875,0.13152970013916493,0.10632453173398972,0.04451587194427847
1772793989762012400,1.859012451171875,0.04018354182839393,0.08450432959198952,-0.02107026055753231
1772793989772057600,1.8690576171875,-0.12556874590814113,0.05605214208960533,-0.18753135415054856
1772793989782102500,1.8791025390625,-0.17762509635984897,0.0764221454232931,-0.2846357106618583
1772793989792147500,1.8891474609375,-0.1736146916747093,0.07744798133969306,-0.21670710668712853
1772793989802192400,1.8991923828125,-0.1857020198315382,0.05834580598473549,-0.05860431079044938
1772793989812237600,1.909237548828125,-0.16042787784337997,0.014461071550846099,0.04723908636309206
1772793989822282500,1.919282470703125,-0.10667875199913977,0.021029928547143934,0.0945481692224741
1772793989832327700,1.92932763671875,-0.03947568581998348,0.07843699237704277,0.16707126138061285
1772793989842372400,1.939372314453125,-0.03539923016130924,0.07822071927785873,0.1769448590107262
1772793989852417500,1.94941748046875,-0.053472062468528744,0.04561433470547199,0.13367606451809405
1772793989862461400,1.95946142578125,-0.055746437141299246,0.0826923117339611,0.06880619052685796
1772793989872506600,1.969506591796875,-0.024455811342597007,0.13360767545700072,0.011181684553995729
1772793989882551600,1.979551513671875,0.0094809450507164,0.1650748268663883,0.03099171591736376
1772793989892596500,1.989596435546875,0.017462591454386712,0.18122984285354612,0.06818995832465588
1772793989902641400,1.999641357421875,0.05011515325605869,0.213987034073472,0.06939085854701697
1772793989912686600,2.0096865234375,0.09809270996153355,0.2352852581679821,0.06415178884975611
1772793989922731500,2.0197314453125,0.13124679154455662,0.23656010040938852,0.0638728988431394
1772793989932776400,2.0297763671875,0.1110258412927389,0.21847265505492686,0.01496975172534585
1772793989942821400,2.0398212890625,0.10510580359399319,0.21265724677443504,-0.0114960842654109
1772793989952866600,2.049866455078125,0.08742693904042244,0.1818891835451126,0.005362915272638201
1772793989962911500,2.059911376953125,0.037063948503136636,0.16226619918644428,0.04556808441095054
1772793989972956400,2.069956298828125,-0.07514496509432793,0.15419278284609317,0.08697904914245008
1772793989983001300,2.08000146484375,-0.1834282296806574,0.1384364107877016,0.08792188295051455
1772793989993046500,2.090046630859375,-0.22940204534828662,0.11540332572460174,0.07917612030655145
1772793990003091500,2.100091552734375,-0.257868845897913,0.10018237571716308,0.07494922332651913
1772793990013136400,2.110136474609375,-0.2795090152978897,0.07067746429145336,0.058998863065987825
1772793990023181300,2.120181396484375,-0.3225596369951963,0.061356093716621395,0.00804104844070971
1772793990033226500,2.1302265625,-0.3067489044010639,0.0687760145843029,-0.053379927205666894
1772793990043271400,2.140271484375,-0.276259658113122,0.09651099372804164,-0.030475144697353244
1772793990053316600,2.150316650390625,-0.27919688060879705,0.07027531323134899,0.02193316099718213
1772793990063361300,2.160361328125,-0.2445435003787279,0.0671855305224657,0.04684358423948288
1772793990073405400,2.170405517578125,-0.2571089674413204,0.0828010328054428,0.013738383299484848
1772793990083450600,2.18045068359375,-0.21728023039996622,0.09688099608421324,-0.015027254066243766
1772793990093495600,2.19049560546875,-0.17501462160050868,0.11901041030585766,-0.024648849696666
1772793990103540500,2.20054052734375,-0.1299438922524452,0.1345762282282114,-0.028896862529963253
1772793990113585400,2.21058544921875,-0.06123334411978721,0.15024316843748092,-0.004783434884250164
1772793990123630600,2.220630615234375,-0.014424246671795845,0.15027473261952398,0.0246009189017117
1772793990133675500,2.230675537109375,0.03218669785559177,0.1532201384216547,0.0513620845772326
1772793990143720400,2.240720458984375,0.04253156625926494,0.16528057857155798,0.0839506412319839
1772793990153765400,2.250765380859375,0.028086861321330068,0.18656594318449496,0.10533712813183664
1772793990163810600,2.260810546875,-0.016249124011397362,0.1949035634189844,0.12864055456891654
1772793990173855500,2.27085546875,-0.03185761203169823,0.17490823861658572,0.10323204561136662
1772793990183900700,2.280900634765625,-0.05491524701416492,0.18285948988199233,0.0701835432946682
1772793990193945300,2.2909453125,-0.027772388544678686,0.1888695439517498,0.08678308817893267
1772793990203990500,2.300990478515625,-0.02062719296514988,0.16948738261163235,0.09488434237428009
1772793990214035500,2.311035400390625,-0.040116906332969667,0.15674188280701637,0.08993022709824144
1772793990224080600,2.32108056640625,-0.07535773106217383,0.13859598526358605,0.08239910094104706
1772793990234125600,2.33112548828125,-0.11310673922002315,0.13104513149261474,0.059581558324769135
1772793990244170200,2.341170166015625,-0.11326514465212821,0.14477028998434543,0.04735065697878599
1772793990254215000,2.35121484375,-0.09455401444137096,0.14764906029105185,0.05918284133076667
1772793990264259000,2.361259033203125,-0.12849544700980187,0.15698329034745692,0.08796937535405158
1772793990274304300,2.37130419921875,-0.1357879421055317,0.14822715243995188,0.10318930244818329
1772793990284349200,2.38134912109375,-0.14658581497371195,0.1584738211661577,0.11608334387801587
1772793990294394000,2.39139404296875,-0.1359568689316511,0.16921324184536932,0.09130904117077589
1772793990304439000,2.40143896484375,-0.1313385614812374,0.1511988617271185,0.05976166413202882
1772793990314484200,2.411484130859375,-0.1299351244240999,0.16702537641227244,0.04094393174163997
1772793990324529200,2.421529052734375,-0.10242869333922862,0.17292320227921007,0.022768735038489103
1772793990334574000,2.431573974609375,-0.06948737772405147,0.16826456281840801,0.02239391037672758
1772793990344619000,2.441618896484375,-0.015216273832321166,0.15793781459331513,0.05050291046462953
1772793990354664200,2.451664306640625,0.012953005075454712,0.12776245656013488,0.05472520433478057
1772793990364709000,2.461709228515625,-0.015100538498163223,0.12329846288859843,0.014096110695973038
1772793990374754300,2.47175439453125,-0.009192191237211227,0.10336685097217559,-0.013827595952898264
1772793990384799000,2.481799072265625,-0.04161445141434669,0.10228197834491728,-0.011268778315559029
1772793990394844200,2.49184423828125,-0.08288461943566798,0.11905483396947383,0.011047317584604024
1772793990404889000,2.50188916015625,-0.09922843599319457,0.09621464112997055,0.00750577252022922
1772793990414934300,2.511934326171875,-0.10241641837954521,0.07248480597436428,-0.013411124106496572
1772793990424979000,2.52197900390625,-0.105579850846529,0.04506722221672535,-0.03565517768375576
1772793990435024100,2.532024169921875,-0.12016601008176803,0.05414309359788894,-0.051407969545572994
1772793990445068000,2.542068115234375,-0.1148515370607376,0.04317863199114799,-0.04251753773391247
1772793990455113200,2.55211328125,-0.10104805263578891,0.051613282859325406,-0.041355508217215536
1772793990465158000,2.562157958984375,-0.0646451983898878,0.085350132766366,-0.023039660934358833
1772793990475203000,2.572203125,-0.032732056778669354,0.11048223593533038,0.011774828141555189
1772793990485248000,2.582248046875,0.0022726211071014404,0.08140168740153313,0.026911680062115192
1772793990495293200,2.592293212890625,0.01679331389069557,0.08100830416977405,0.032672289415448905
1772793990505338000,2.602338134765625,0.03488894255161285,0.07697510313093661,0.0011778846729546784
1772793990515383000,2.612383056640625,0.06374678824543953,0.06550035391449928,-0.02287175702154636
1772793990525428000,2.622427978515625,0.11827800437808036,0.05789689317345619,-0.03087444621324539
1772793990535473200,2.63247314453125,0.12830781548321246,0.05348842908143997,-0.043402430809661746
1772793990545518000,2.64251806640625,0.1818067659586668,0.05437222617864609,-0.027693989546224474
1772793990555563000,2.65256298828125,0.20405191551446913,0.03858779706954956,0.01305675771087408
1772793990565608000,2.66260791015625,0.20647943492233753,0.051034021666646,-0.005072846284881234
1772793990575653000,2.672653076171875,0.20431611940860747,0.053342298609018325,-0.026277181550860403
1772793990585698000,2.682697998046875,0.16080664802789688,0.04014788599312305,-0.037684491554275154
1772793990595743200,2.6927431640625,0.10483926161229609,0.040810733816027636,-0.043217868022993204
1772793990605788000,2.702787841796875,0.0287783507168293,0.05407704262435436,-0.06459434498548507
1772793990615833000,2.7128330078125,-0.0449777903676033,0.0685229166060686,-0.06670249624587594
1772793990625878000,2.7228779296875,-0.09351882617473602,0.07657178302705288,-0.03908975524231791
1772793990635923200,2.732923095703125,-0.16634557745456693,0.08414017245471477,-0.0036583763770759105
1772793990645967000,2.742967041015625,-0.17792612513303754,0.09453530974090099,-0.004425999748706817
1772793990656012000,2.753011962890625,-0.17806991751790047,0.11609656868577002,0.035410628338158126
1772793990666057200,2.76305712890625,-0.21610651044547557,0.11186989090144633,0.02027867178842425
1772793990676102100,2.77310205078125,-0.1990729580581188,0.13292203128039837,0.005885550907254219
1772793990686147000,2.78314697265625,-0.18820318899750707,0.1516910291582346,0.019902458887174724
1772793990696192000,2.79319189453125,-0.13299392747282981,0.16321721630096434,0.05006503050401807
1772793990706237200,2.8032373046875,-0.10970657538771629,0.15714344934523106,0.04695201305001974
1772793990716282000,2.8132822265625,-0.09118833740055561,0.14895079053938387,0.04037270772494375
1772793990726327300,2.823327392578125,-0.07466331905722617,0.16554653603136538,0.0487697299964726
1772793990736372000,2.8333720703125,-0.04819733693599701,0.16460136413574217,0.04840659577250481
1772793990746417200,2.843417236328125,-0.03332008579969406,0.17503332630097865,0.09983268549665808
1772793990756462000,2.853462158203125,-0.016889760002493856,0.18405191453695297,0.12179361128360032
1772793990766507300,2.86350732421875,0.0005254851788282394,0.17848258997201918,0.12164470433220266
1772793990776552200,2.87355224609375,0.030831191593408584,0.1885416271716356,0.11597513426318765
1772793990786597000,2.88359716796875,0.048586628514528274,0.17100246334969996,0.12450542752556502
1772793990796642000,2.89364208984375,0.06893617358207703,0.18939853626191616,0.12249511061646043
1772793990806687200,2.903687255859375,0.020068390038609503,0.17638415638804433,0.12057400636076926
1772793990816732200,2.913732177734375,-0.0338888255983591,0.18630173929035662,0.08883987457826734
1772793990826777000,2.923777099609375,-0.07071721177995205,0.1696066250771284,0.0707000414494425
1772793990836821000,2.933821044921875,-0.07834463791847228,0.1617471437484026,0.05370674800723791
1772793990846866200,2.9438662109375,-0.07194178513884544,0.1637543919175863,0.07747961858697235
1772793990856911000,2.9539111328125,-0.10995149005949496,0.13461246858537196,0.036665377639606596
1772793990866956000,2.9639560546875,-0.08655366333723068,0.1312432844132185,0.003062821636721492
1772793990877001000,2.9740009765625,-0.09357026410102844,0.13878186322450636,-0.013006634958833455
1772793990887046100,2.984046142578125,-0.09541559970676898,0.08742284738719462,-0.0056521074775606394
1772793990897091000,2.994091064453125,-0.06512625990509986,0.07981529499292374,-0.014522446349263191
1772793990907136300,3.00413623046875,-0.054800096201896666,0.06316928061842918,-0.007048164945840835
1772793990917181000,3.014180908203125,-0.057747255569696426,0.05582943924963474,-0.04179156154692173
1772793990927226000,3.02422607421875,-0.028941432324051854,0.047881110593676564,-0.04323613433204591
1772793990937271000,3.03427099609375,-0.04044423859119415,0.07360650348067284,-0.04200659253709018
1772793990947316200,3.044316162109375,-0.043863107123970985,0.06579904460012913,-0.05636982973664999
1772793990957361000,3.05436083984375,-0.032110710009932514,0.07560381477773188,-0.046764819914847607
1772793990967406000,3.064406005859375,-0.05673077200353145,0.09173661893308162,-0.05954100711867213
1772793990977451000,3.074450927734375,-0.06721241852939129,0.11498714613914489,-0.06332140244022011
1772793990987496200,3.08449609375,-0.06218728384375572,0.16610416991412638,-0.01019391562566161
1772793990997541000,3.094541015625,-0.06830839707255364,0.190782684096694,0.044422421507164835
1772793991007586000,3.1045859375,-0.09470131395757198,0.22724866670668123,0.08290602754987776
1772793991017631000,3.114630859375,-0.10166530775129795,0.247902163156867,0.10493702289834618
1772793991027676200,3.12467626953125,-0.15150164406597613,0.26938977234363554,0.13223872519135474
1772793991037721000,3.13472119140625,-0.18924597604870796,0.28018589164614677,0.11593224496953189
1772793991047765000,3.144764892578125,-0.22658991053700445,0.27398586796224117,0.11176694198362529
1772793991057810200,3.15481005859375,-0.23725743502378463,0.27947686659395693,0.07178805588185787
1772793991067855000,3.164855224609375,-0.21748013688623904,0.27237024945914745,0.06274769420549273
1772793991077900300,3.174900390625,-0.16507774947583675,0.2429705519735813,0.048432460866123433
1772793991087945000,3.184945068359375,-0.08956862724423408,0.23897826746702192,0.03770991825647652
1772793991097990100,3.194990234375,-0.04248597355186939,0.23127485348284244,0.027980989794060586
1772793991108035000,3.20503515625,0.01640168422460556,0.21864801162183284,0.014351692892238498
1772793991118080300,3.215080322265625,0.047027124112844466,0.2080541368931532,0.001979848705604672
1772793991128125200,3.225125244140625,0.0775683928489685,0.21112229229211807,-0.027818346578255295
1772793991138170000,3.235170166015625,0.08514262749552726,0.2202303123772144,0.0025149784956127403
1772793991148215000,3.245215087890625,0.1023947910696268,0.19224398882091046,-0.022220088179782032
1772793991158260200,3.25526025390625,0.07479659004807472,0.1545364817172289,-0.03561192306391894
1772793991168305200,3.26530517578125,0.037273791861534115,0.11356441985964774,-0.023876038693264125
1772793991178350000,3.27535009765625,0.05280220038294792,0.0644230800718069,-0.004762245965749025
1772793991188395000,3.28539501953125,0.025590368330478667,0.036705636584758755,0.012583660306409
1772793991198440200,3.295440185546875,0.002846621602773666,0.008168693408370018,0.019802797904983162
1772793991208485000,3.305485107421875,-0.0010386953979730606,-0.039836920347809786,-0.011143909826874732
1772793991218530300,3.3155302734375,0.014970190116763114,-0.058335869112610815,-0.054692909500375385
1772793991228575000,3.325574951171875,0.03097381493449211,-0.09211422007381916,-0.09015702159143983
1772793991238620200,3.3356201171875,0.031441432446241376,-0.12239070039391517,-0.1345971248857677
1772793991248665600,3.34566552734375,0.04077975415587425,-0.165662855887413,-0.13251535017564892
1772793991258709500,3.35570947265625,0.05292319641411304,-0.17070552622973917,-0.10681289977282285
1772793991268754400,3.36575439453125,0.05898819554150104,-0.16009879201948643,-0.04831161096543073
1772793991278799600,3.375799560546875,0.06243161399364471,-0.18000000879764555,0.014424904258921742
1772793991288844500,3.385844482421875,0.0812502962321043,-0.1852431701481342,0.041790465568378565
1772793991298889500,3.395889404296875,0.09981880310177803,-0.15878011063635347,0.05923391393087804
1772793991308934400,3.405934326171875,0.10972703365385532,-0.15803718331456185,0.0660074997190386
1772793991318979600,3.4159794921875,0.12992284946441648,-0.141020582062006,0.07241846273988485
1772793991329024500,3.4260244140625,0.13559914153516292,-0.12276362535953521,0.07747114301957189
1772793991339069700,3.436069580078125,0.11099076997935771,-0.11491641899049282,0.1251547582797706
1772793991349114400,3.4461142578125,0.07828618572950363,-0.07580313674211502,0.1965858904827386
1772793991359159600,3.45615966796875,0.057820905327796934,-0.021665303841233254,0.21535634966529904
1772793991369204500,3.46620458984375,0.045101709008216855,0.055041503742337225,0.22166962446533142
1772793991379249700,3.476249755859375,0.08580956697165966,0.13090835337042808,0.2174379782449454
1772793991389294600,3.486294677734375,0.12455986112654209,0.21039514706134796,0.21885873176306486
1772793991399339500,3.496339599609375,0.13870470633506773,0.25485446651279925,0.23458069009520113
1772793991409384400,3.506384521484375,0.14932605359256268,0.2930319292157888,0.21271745252907276
1772793991419429600,3.5164296875,0.1402320620328188,0.31677988454997535,0.15976970619559286
1772793991429474600,3.526474609375,0.10927578275501727,0.3102110275536775,0.08646123581342399
1772793991439519500,3.53651953125,0.05990998656153679,0.2870522702842951,0.01063764080516994
1772793991449564400,3.546564453125,-0.007193710896372794,0.2542664374917745,-0.08003017985261976
1772793991459609600,3.556609619140625,-0.051823710739612575,0.25309856275618076,-0.13308200761508196
1772793991469654500,3.566654541015625,-0.09628829088807106,0.23390286389887333,-0.19154990560952573
1772793991479698400,3.576698486328125,-0.1621826125562191,0.2191197207868099,-0.20528207836393267
1772793991489743400,3.586743408203125,-0.2177998703598976,0.2151724444657564,-0.1996629233079031
1772793991499788500,3.59678857421875,-0.26918168255090713,0.19682313330471515,-0.2021749791940674
1772793991509833500,3.60683349609375,-0.315711963057518,0.1730138031721115,-0.2236913030186668
1772793991519878400,3.61687841796875,-0.3323158918559551,0.1729956829935312,-0.1976571729760617
1772793991529923300,3.62692333984375,-0.3466647352039814,0.1672229448109865,-0.1402639550084248
1772793991539968500,3.636968505859375,-0.3328641733884811,0.15892857919633388,-0.05900390456728637
1772793991550013400,3.647013427734375,-0.30498481733798977,0.15085691642165183,0.04955156455654651
1772793991560058600,3.65705859375,-0.27452888879776,0.12733400201499462,0.08204415002353489
1772793991570103300,3.667103271484375,-0.28855273797512054,0.11310849278569221,0.05497793698683381
1772793991580148500,3.6771484375,-0.27185996184945105,0.08946633591353893,0.004585793420299887
1772793991590193400,3.687193359375,-0.23425123894512653,0.09415712407827377,-0.03275214971862733
1772793991600238600,3.697238525390625,-0.16078852784931658,0.10768296060562133,-0.0028241905752569435
1772793991610283500,3.707283447265625,-0.08682137436270713,0.09590016835331916,0.043012664307095105
1772793991620328400,3.717328369140625,-0.03617372166514397,0.1011006596058607,0.08736465092655271
1772793991630373400,3.727373291015625,0.016414543706178664,0.11060732361972331,0.1192274505900219
1772793991640418600,3.73741845703125,0.059469841578602786,0.11118950742185116,0.15520648993328212
1772793991650463500,3.74746337890625,0.09825228443741797,0.07363105340003967,0.15220763691086323
1772793991660508400,3.75750830078125,0.12583353432416916,0.03772621180415153,0.13174542524907737
1772793991670553300,3.76755322265625,0.16269816086292266,0.01998188079893589,0.09508600242622196
1772793991680598500,3.7775986328125,0.19253449620008467,-0.020483985102176666,0.07336969905011355
1772793991690642700,3.787642578125,0.2153518926858902,-0.054957917112112044,0.07134670532252639
1772793991700687400,3.797687255859375,0.2166407634526491,-0.039214989057183264,0.07519041167125105
1772793991710732500,3.807732666015625,0.16968202840089797,-0.0681926617383957,0.0277292800553143
1772793991720777500,3.817777587890625,0.14334990179240703,-0.08652443724274635,-0.04853402154445648
1772793991730822700,3.82782275390625,0.11305880842506885,-0.07719897501468657,-0.07675335013903677
1772793991740867600,3.83786767578125,0.05278408020436764,-0.02326923190653324,-0.043603542872332035
1772793991750912500,3.84791259765625,-0.002101940715312958,0.029889526829123495,-0.003472534948773682
1772793991760957400,3.85795751953125,-0.04018529539406299,0.10813304246068,0.06391122155953198
1772793991771002600,3.868002685546875,-0.07166238367557526,0.17553367703855036,0.11383713585380464
1772793991781047600,3.878047607421875,-0.1118541088104248,0.2396437456384301,0.12504570841472595
1772793991791092500,3.888092529296875,-0.16157003361582756,0.2907809354186058,0.1066998678524047
1772793991801137400,3.898137451171875,-0.1771311753630638,0.3139014065042138,0.08881313270181417
1772793991811182600,3.9081826171875,-0.1827747342079878,0.30889936043322086,0.12265333338547497
1772793991821227500,3.9182275390625,-0.20703239262998102,0.30260347515940667,0.1491992854077369
1772793991831272700,3.928272705078125,-0.21833763049840926,0.26886341038197276,0.09648626114558428
1772793991841317400,3.9383173828125,-0.22563538629114627,0.2178539386346936,0.04171550063602626
1772793991851362600,3.948362548828125,-0.24075989018678665,0.1598825189203024,0.012582381664775311
1772793991861407500,3.958407470703125,-0.2428402035921812,0.14276567216366529,0.04129526592995971
1772793991871452700,3.96845263671875,-0.22548516416549683,0.10950783794522286,0.10855711309164762
1772793991881497600,3.97849755859375,-0.2182055285513401,0.0852630390048027,0.1529569574408233
1772793991891541500,3.98854150390625,-0.20951953327059744,0.0584302693977952,0.15430015221070498
1772793991901586400,3.99858642578125,-0.18213935891389846,0.04501812237799167,0.09082198830619453
1772793991911631600,4.008631591796875,-0.15820669466257095,0.016132219633460045,0.024510500671900807
1772793991921676300,4.01867626953125,-0.10099661470949649,0.024160335527360438,-0.00876110634356737
1772793991931721500,4.028721435546875,-0.05048866274356842,0.019651333670318124,0.005829582936316728
1772793991941766400,4.038766357421875,0.015177695387601851,0.03749824826717377,-0.03469100882671773
1772793991951811600,4.0488115234375,0.07209492987394332,0.11111702670753001,-0.08599434895403682
1772793991961856500,4.0588564453125,0.11116671106815337,0.18100655549168584,-0.10824633010942489
1772793991971900400,4.068900390625,0.1340624334871769,0.18685118986666202,-0.12612130175698547
1772793991981945600,4.078945556640625,0.1324018067985773,0.18830401902347801,-0.08558953101281076
1772793991991990500,4.088990478515625,0.1612239966571331,0.21148001968860625,-0.042298524688370524
1772793992002035700,4.09903564453125,0.164234284389019,0.2058662714600563,0.022550233449600637
1772793992012080400,4.109080322265625,0.1430763455480337,0.18242752820551394,0.0722439829558134
1772793992022125600,4.11912548828125,0.13010931194722652,0.1677650888636708,0.07540657517258077
1772793992032170500,4.12917041015625,0.12052958269715308,0.15701719261705874,0.053722712761349975
1772793992042215700,4.139215576171875,0.0648591334015131,0.142991882134974,0.05124689723234623
1772793992052260400,4.14926025390625,0.013101473635435103,0.09486264199912547,0.031135873628407716
1772793992062305500,4.159305419921875,-0.028601240584254263,0.0752244600713253,0.027794052387215197
1772793992072350500,4.1693505859375,-0.051859951096773146,0.03996288481503725,0.06278426335621624
1772793992082395600,4.179395751953125,-0.0938420667797327,0.019362872117757796,0.1033844231614843
1772793992092440600,4.189440673828125,-0.13422200796306133,0.0013248188629746435,0.11430617813766002
1772793992102485500,4.199485595703125,-0.1530938816934824,0.02679536020606756,0.13202329234238713
1772793992112530400,4.209530517578125,-0.17100421691536902,0.021490531796216964,0.12480225504767149
1772793992122575600,4.21957568359375,-0.17737024481594563,0.04435790490359068,0.09316310807224362
1772793992132620500,4.22962060546875,-0.18272037367224692,0.060950727786123746,0.056376296010054644
1772793992142665500,4.23966552734375,-0.15901684200167654,0.05985416472107172,0.06316595615018158
1772793992152710400,4.24971044921875,-0.147272043672204,0.07709551464021205,0.09052947163302451
1772793992162754600,4.259754638671875,-0.1197621054559946,0.08675736921578645,0.09967778719589114
1772793992172799500,4.269799560546875,-0.05212941568791866,0.09308686449825763,0.08933540301024913
1772793992182844400,4.279844482421875,-0.017122984236478806,0.09056845193654298,0.08999185762498527
1772793992192889300,4.289889404296875,-0.009371639457345008,0.06558598637133836,0.06086798140611499
1772793992202934500,4.2999345703125,-0.005989011281728744,0.06718903765380382,0.09101893565040081
1772793992212979500,4.3099794921875,0.029814123505353927,0.047129415443539616,0.11098704365231096
1772793992223024600,4.320024658203125,0.055450669065117836,0.05502162999808788,0.12797014449406413
1772793992233070600,4.330070556640625,0.06708265466988086,0.039081133544445035,0.14826328319925813
1772793992243115800,4.34011572265625,0.08724456821084021,0.06830898159444332,0.09361066917665302
1772793992253160700,4.35016064453125,0.07535714654028415,0.08057517344951629,0.04102452269718051
1772793992263206000,4.360205810546875,0.011798574343323707,0.07165624619573355,-0.06876753901690244
1772793992273250800,4.370250732421875,-0.025894904235005376,0.09807342073917388,-0.19862561614941804
1772793992283295700,4.380295654296875,0.01412380242049694,0.15325053355991838,-0.21581329965256152
1772793992293340700,4.390340576171875,0.04844400517344474,0.15449147353172302,-0.14888492222893981
1772793992303385900,4.4003857421875,0.09421090009212493,0.13225450728237628,-0.08452928137015552
1772793992313430800,4.4104306640625,0.0916980404883623,0.1521454949274659,-0.0908643296105787
1772793992323475700,4.420475830078125,0.0843611217290163,0.15457126076966524,-0.13678615936264396
1772793992333520600,4.430520751953125,0.053016719916462896,0.16169570582211015,-0.16764632132221013
1772793992343565800,4.44056591796875,0.038781858336925504,0.1489589738458395,-0.16304752228986472
1772793992353610800,4.45061083984375,0.03974865754246711,0.1313242406949401,-0.15624748688619583
1772793992363655700,4.46065576171875,0.010478723916411399,0.11167904450446367,-0.12610281625222414
1772793992373700600,4.47070068359375,0.0034866730719804763,0.07424217103570699,-0.09123024031352252
1772793992383745800,4.480745849609375,-0.027201310658454894,0.0650523178860545,-0.05330759262181818
1772793992393790700,4.490790771484375,-0.023891163197159764,0.031088965746760365,0.0010006284099072218
1772793992403835000,4.5008349609375,-0.041269583499431606,0.009629413610696792,0.03971997943725437
1772793992413879600,4.510879638671875,-0.03756137663125991,-0.0040182957306504246,0.06549085543379188
1772793992423924700,4.5209248046875,-0.018780688315629956,-0.02464256608635187,0.06461432832758873
1772793992433969700,4.5309697265625,-0.0561316370666027,-0.02913374002575874,0.04145195432901382
1772793992444014800,4.541014892578125,-0.057940147793293,-0.017143442502617835,0.005621493143588304
1772793992454059500,4.5510595703125,-0.06231763222515583,0.005301613539457321,0.014227408925443887
1772793992464104700,4.561104736328125,-0.025317981129884717,0.014701602308452128,0.03870448225177824
1772793992474149600,4.571149658203125,-0.0056266077101230615,0.0347799292191863,0.05402728519849479
1772793992484194800,4.58119482421875,0.013764905980229378,0.06238894389569759,0.035894795125909144
1772793992494239700,4.59123974609375,0.04884206458032131,0.10163023643791674,0.013402721604332327
1772793992504284700,4.60128466796875,0.08591828804314136,0.1264671560525894,0.022595460830815137
1772793992514329600,4.61132958984375,0.06920856078267097,0.13603811747431754,0.05191471349131316
1772793992524374800,4.621374755859375,0.05033084183335304,0.13555208752304315,0.06642137774955481
1772793992534419700,4.631419677734375,0.02082709945142269,0.13192688276320694,0.06315211028791963
1772793992544465000,4.64146484375,0.02933715364336967,0.09711012866497039,0.07342793204337358
1772793992554509600,4.651509521484375,0.008826865056157112,0.06782792007923126,0.0768615962864831
1772793992564554800,4.6615546875,-0.007500000366568565,0.055740299661457535,0.04778433568831533
1772793992574599700,4.671599609375,-0.035109307304024694,0.08560878370255232,0.008912753241322935
1772793992584643600,4.6816435546875,-0.09440145422816276,0.11589695446044206,-0.019381357622519135
1772793992594688800,4.691688720703125,-0.1097802251458168,0.15528905365020035,-0.0025562968866899606
1772793992604733700,4.701733642578125,-0.11942834345698355,0.20409370882958172,0.02142097369134426
1772793992614779000,4.71177880859375,-0.09332710299491882,0.2515469494000077,0.07372552675046026
1772793992624823800,4.72182373046875,-0.07814882308542728,0.2371364389926195,0.14751118619032202
1772793992634868700,4.73186865234375,-0.09290157105922699,0.24315672219544648,0.17693294937722384
1772793992644913700,4.74191357421875,-0.11392740795314311,0.2619561152115464,0.1718108571231365
1772793992654958800,4.751958740234375,-0.1154050792902708,0.24574907677620647,0.15504771917499602
1772793992665003800,4.762003662109375,-0.11225742891430854,0.23783435812890527,0.15856303381957113
1772793992675048700,4.772048583984375,-0.11071019947230815,0.23359511312395334,0.16912205643057823
1772793992685093600,4.78209375,-0.10857669457495212,0.251413970670104,0.18586148470956831
1772793992695138800,4.792138916015625,-0.1591150416791439,0.24323504812866448,0.18655322983339429
1772793992705183700,4.802183837890625,-0.17556524122059344,0.24552812750190495,0.1448085396355018
1772793992715228700,4.812228759765625,-0.13219020987451074,0.25762568479180337,0.12014105830360203
1772793992725273600,4.822273681640625,-0.0882300721168518,0.2779483418524265,0.12058982498440891
1772793992735318800,4.83231884765625,-0.10150047257840633,0.2733151290938258,0.08933931200038642
1772793992745363700,4.84236376953125,-0.12374094595909117,0.25978870804458853,0.06443140950873494
1772793992755408000,4.852407958984375,-0.11354045446217059,0.2141395942866802,0.06854184050224721
1772793992765452500,4.86245263671875,-0.10029109678864478,0.22131343143880366,0.09501691924538463
1772793992775497700,4.872497802734375,-0.09079963034391403,0.20484043554365633,0.09597728871013969
1772793992785542700,4.882542724609375,-0.1199842237740755,0.15665917295962573,0.046809280111081895
1772793992795587800,4.892587890625,-0.13933306736648082,0.12423603599965571,0.01253207624964416
1772793992805632800,4.9026328125,-0.11913140633702278,0.11197890423387288,0.008809219801612199
1772793992815677700,4.912677734375,-0.07453472424149513,0.09265022664666175,0.023003347511962056
1772793992825722600,4.92272265625,-0.05057575650513172,0.04363280549943447,0.040484972460381685
1772793992835767800,4.932767822265625,-0.021449615263938904,-0.009341244319081305,0.02098561448138207
1772793992845812700,4.942812744140625,0.013891747230291365,-0.019118541967868805,-0.0009055340049788355
1772793992855857700,4.952857666015625,0.05834755955040455,-0.04544190074801445,-0.0414491047848016
1772793992865902600,4.962902587890625,0.11907879936695098,-0.06351531757712364,-0.05729414150733501
1772793992875947800,4.97294775390625,0.14677695363163948,-0.05797580362856388,-0.07978022367954253
1772793992885992700,4.98299267578125,0.166709150069952,-0.046082536739110946,-0.0623964696150273
1772793992896038000,4.993037841796875,0.15708733524382112,-0.05971592529416084,-0.09903021000735461
1772793992906082600,5.00308251953125,0.13235562956929206,-0.06827157219350338,-0.12503339692242443
1772793992916127700,5.013127685546875,0.12309388022720813,-0.04494856427311897,-0.1338301956338808
1772793992926172000,5.023171875,0.13336509887278078,-0.05061667303740978,-0.14117339800354092
1772793992936216800,5.033216796875,0.10680734681487083,-0.04490297156572342,-0.1425004088236019
1772793992946261800,5.04326171875,0.08245908749997616,-0.008314239358901977,-0.1494039046017453
1772793992956306700,5.053306640625,0.05966624093353748,0.01782382598221302,-0.16993045020401476
1772793992966352000,5.063351806640625,0.06544307076931,0.03416705801784992,-0.14896390574928373
1772793992976396800,5.073396728515625,0.08241174122691154,0.04791910451650619,-0.08536690123807639
1772793992986441700,5.083441650390625,0.041783378240466115,0.044917584612965585,-0.045864217813313006
1772793992996486700,5.093486572265625,-0.003171615773439407,0.04620294824838638,-0.05645323370378464
1772793993006531800,5.10353173828125,0.009399111986160278,0.061765259039402005,-0.04858798022139817
1772793993016576800,5.11357666015625,-0.012365560576319694,0.06927052010297775,-0.019759287556819615
1772793993026621700,5.12362158203125,-0.018331190982460974,0.08247077793776988,0.04025050611738115
1772793993036666600,5.13366650390625,-0.014418401452898978,0.080762220454216,0.08019570914525538
1772793993046711800,5.1437119140625,-0.0207657246530056,0.08828501717448234,0.09671411508470773
1772793993056756700,5.1537568359375,-0.06504559588432311,0.10849778411984443,0.08802833899967372
1772793993066801700,5.1638017578125,-0.08783259723186493,0.11672609876096247,0.11227328407056629
1772793993076846600,5.1738466796875,-0.06681786625385285,0.14253449375629423,0.14754611137323081
1772793993086890800,5.183890869140625,-0.07771101619005202,0.15013327832221984,0.15751315944045782
1772793993096935700,5.193935791015625,-0.09769114342331886,0.16719254967272282,0.15180066354516894
1772793993106980900,5.20398095703125,-0.11726853507459163,0.18944062183797358,0.1217833821505308
1772793993117025500,5.214025634765625,-0.11790449489057063,0.19110124852657318,0.09329539268240332
1772793993127070700,5.22407080078125,-0.13418226047456264,0.1865899085819721,0.05262633235938847
1772793993137115600,5.23411572265625,-0.12175064892470835,0.19808745415210724,0.029135457058809697
1772793993147160800,5.244160888671875,-0.12324234878718852,0.1893143651098013,0.001252776540070772
1772793993157205800,5.254205810546875,-0.1264239014327526,0.16319617351293564,0.004714351703412831
1772793993167250700,5.264250732421875,-0.10328209529817103,0.1466015970647335,-0.004689180729538202
1772793993177295600,5.274295654296875,-0.06880056450366974,0.14844284101724622,-0.017147607221081853
1772793993187340800,5.2843408203125,-0.051581134155392644,0.12694412591457366,0.0002781958868727088
1772793993197385700,5.2943857421875,-0.04157645749151707,0.10610182889401912,0.00012475889082998035
1772793993207430700,5.3044306640625,-0.030030396604537962,0.09860124400556088,-0.039938152232579884
1772793993217475600,5.3144755859375,-0.002959434327483177,0.10589023196995258,-0.050852929478697476
1772793993227520800,5.324520751953125,0.027924364235997198,0.11711363677382468,-0.0007827113429084419
1772793993237565000,5.33456494140625,0.03601356266736984,0.1078846206575632,0.03792122291959822
1772793993247609300,5.344609375,0.008592471778392792,0.10981120480597019,0.014022789731435477
1772793993257654500,5.354654541015625,0.012745499804615973,0.14027707021832464,-0.0134984005311504
1772793993267699500,5.364699462890625,0.013160510346293449,0.12425649426579474,0.0000145765146240592
1772793993277744600,5.37474462890625,0.011874562188982963,0.09274667275846003,0.02079794642217457
1772793993287789300,5.384789306640625,0.0073883566856384275,0.08211889576017856,0.026037016119435426
1772793993297834500,5.39483447265625,0.008099135303497314,0.07143617370426654,0.0420749450655654
1772793993307879400,5.40487939453125,0.01903027916252613,0.06835048264861106,0.09194602390006185
1772793993317924600,5.414924560546875,0.032090836265683174,0.06715338181853293,0.12172558754868805
1772793993327969500,5.424969482421875,-0.004517185163497924,0.06713876877129077,0.1462058757454157
1772793993338014500,5.435014404296875,-0.047343934977054594,0.06646773764193058,0.12690481681749224
1772793993348059400,5.445059326171875,-0.08742226286530494,0.0831669435083866,0.0917985782533884
1772793993358104600,5.4551044921875,-0.07940437610447407,0.06967910090386867,0.0769425891008228
1772793993368149500,5.4651494140625,-0.06770633952617645,0.03968903630971908,0.06626794075351208
1772793993378194700,5.475194580078125,-0.028349311649799345,0.013775427374243735,0.07387352038640528
1772793993388239400,5.4852392578125,-0.008253449082374572,0.01637245813012123,0.035971878950111565
1772793993398283500,5.495283447265625,-0.00012976385951042174,0.0307084419965744,0.026463753631524742
1772793993408328400,5.505328369140625,0.011291793864965437,0.029500819772481916,0.02222681018151343
1772793993418373400,5.515373291015625,-0.014118541723489761,0.0644189884185791,0.03569656914006918
1772793993428418300,5.525418212890625,0.003384381741285324,0.09686813660264014,0.03773793877456337
1772793993438463500,5.53546337890625,-0.0005769231051206588,0.11961480593979358,0.04677373387366533
1772793993448508400,5.54550830078125,-0.0037239889591932293,0.1281529171824455,0.04468059751931577
1772793993458553600,5.5555537109375,-0.024837504136562345,0.12365911289453506,0.016095942743681372
1772793993468598300,5.565598388671875,-0.016665303596854208,0.1307727442920208,-0.0011048925019800661
1772793993478643500,5.5756435546875,-0.0008685995280742645,0.11810732398629188,-0.029295031534694132
1772793993488688400,5.5856884765625,-0.012418167546391487,0.10520458779335021,-0.030895781262218952
1772793993498733600,5.595733642578125,0.01824117461144924,0.09083470165729522,-0.02549560271911323
1772793993508778500,5.605778564453125,0.02802314843535423,0.10086509728431702,-0.028734840368665752
1772793993518823400,5.615823486328125,0.024976620346307755,0.10860825875699519,-0.027778416426666078
1772793993528868400,5.625868408203125,0.028287352329492567,0.11674831059277056,-0.01347834412381053
1772793993538912500,5.63591259765625,0.01021861167550087,0.12951251509785652,0.012596044863946734
1772793993548957400,5.64595751953125,0.007075637474656104,0.12585808424353598,0.044836043809354305
1772793993559002400,5.65600244140625,-0.0038239422023296356,0.10005261185765266,0.07859276746064424
1772793993569047600,5.666047607421875,-0.02535188339948654,0.0887619870364666,0.0648078416056931
1772793993579092500,5.676092529296875,-0.045858080333471295,0.08958674742281436,0.017688253436423836
1772793993589137700,5.6861376953125,-0.05688157865107059,0.088578447163105,0.019074410565197465
1772793993599182300,5.696182373046875,-0.09220189835727215,0.06915361572504043,0.005289411645010114
1772793993609227500,5.7062275390625,-0.10219371553957461,0.058385553473234174,0.013978585263527929
1772793993619272400,5.7162724609375,-0.09087211105823516,0.08992752368450165,0.03231240659449249
1772793993629317600,5.726317626953125,-0.0693511841237545,0.09442074345052241,0.05470463647078722
1772793993639362600,5.736362548828125,-0.039352936223149296,0.11286825428903102,0.04038279072754085
1772793993649407500,5.746407470703125,-0.026917233020067214,0.1141506953150034,0.062321943074092265
1772793993659452400,5.756452392578125,-0.01406710379719734,0.13310674019753932,0.057154623438790436
1772793993669497600,5.76649755859375,-0.024871406406164167,0.12619944502711294,0.009306465266644954
1772793993679542500,5.77654248046875,-0.018509470158815385,0.12006196518540381,-0.0013908333038911223
1772793993689586400,5.78658642578125,0.005071896436810493,0.11751871044337749,-0.03924103681389242
1772793993699631400,5.79663134765625,0.008486088794469833,0.09986088867783546,-0.047027672102116044
1772793993709676500,5.806676513671875,0.03081774758994579,0.08286825282275677,-0.04535466085597872
1772793993719721500,5.816721435546875,0.043866029733419416,0.06212883165478706,-0.03172123576831072
1772793993729766400,5.826766357421875,0.014078794234991072,0.03751110774874687,-0.0382464728185907
1772793993739811300,5.836811279296875,-0.011817279043793677,0.044810617107152936,-0.03384242917336523
1772793993749856500,5.8468564453125,-0.011961071428656577,0.06898819603025913,-0.03823522077221423
1772793993759901400,5.8569013671875,-0.009936872124671935,0.07025485496520996,-0.011361936491727828
1772793993769946600,5.866946533203125,-0.004933949270844459,0.06291910524964332,0.007536715647764504
1772793993779991300,5.8769912109375,0.00672901599407196,0.07740589576363563,0.012660561467520893
1772793993790036500,5.887036376953125,0.009252396991848945,0.06793196497559548,0.04829809389673173
1772793993800081400,5.897081298828125,0.0062742579638957975,0.05623509744107723,0.05559321934096515
1772793993810126600,5.907126708984375,0.020751111605763435,0.03677577921152115,0.039338761567324396
1772793993820171300,5.917171142578125,0.03699263683259487,0.021293547919392586,0.017037169116549192
1772793993830215400,5.92721533203125,0.031893267866969104,-0.0016150339812040328,-0.00653108226917684
1772793993840260600,5.937260498046875,0.022792262044548987,0.014918752190470695,0.004266315674968064
1772793993850305500,5.947305419921875,0.009830489140748976,0.03868658126890659,0.023685886416025457
1772793993860350500,5.9573505859375,-0.016013561689853666,0.03718202192485332,0.0103349315315485
1772793993870395400,5.9673955078125,-0.009315525355935095,0.04383446555137634,0.019242095282301305
1772793993880440600,5.977440673828125,-0.006910802301764488,0.042779403540492054,0.030188802036643026
1772793993890485500,5.987485595703125,-0.012158055305480956,0.041402269968390464,-0.0012077318219467998
1772793993900530700,5.99753076171875,0.0026326865911483763,0.025153730478882787,-0.05059628783650696
1772793993910575400,6.007575439453125,0.007301847445964813,0.029814123505353927,-0.03862696003615856
1772793993920620500,6.01762060546875,0.015279402196407317,0.049202130064368244,-0.0074851681236177674
1772793993930665500,6.02766552734375,0.026554244926571845,0.05434416912794113,0.012943104735948145
1772793993940710700,6.037710693359375,0.04320493547618389,0.07297580436170101,0.002932436722703278
1772793993950755300,6.04775537109375,0.05881166993081569,0.08138853565901517,-0.011941161151789129
1772793993960800500,6.057800537109375,0.029597265884280202,0.0819970229461789,-0.011434417206048965
1772793993970845400,6.067845458984375,0.014824059644341468,0.0905415639296174,-0.06431198438014835
1772793993980889600,6.0778896484375,-0.002025368347764015,0.09630641106665133,-0.06651764119826256
1772793993990934300,6.087934326171875,-0.01936754829287529,0.10277034638375043,-0.03165145846772939
1772793994000979500,6.0979794921875,-0.04139700927138328,0.09375058910399675,-0.008292283255420625
1772793994011024400,6.1080244140625,-0.04694061487317085,0.0978548095524311,0.0014297770747914908
1772793994021069600,6.118069580078125,-0.07024316452741622,0.11057838978618383,0.020952771657705305
1772793994031114500,6.128114501953125,-0.08689970029592514,0.12350713720321654,0.017203319463692603
1772793994041159400,6.138159423828125,-0.06908464214205741,0.1257826809197664,-0.004380480106547475
1772793994051204400,6.148204345703125,-0.04603168333470821,0.12680822457522153,-0.0011413885874673724
1772793994061249500,6.15824951171875,-0.03624035716056823,0.11658932063877582,0.03475749819166958
1772793994071294500,6.16829443359375,-0.02920212908685207,0.11365414396971464,0.05267481114361435
1772793994081339400,6.17833935546875,-0.002727379137277603,0.0912388985440135,0.06996854883711785
1772793994091384300,6.18838427734375,-0.018314239847660063,0.07503156784772873,0.05395794628933072
1772793994101429500,6.198429443359375,-0.018657938718795775,0.06174947694838047,0.027379224508628248
1772793994111474400,6.208474365234375,0.010135609567165374,0.0868292654082179,0.06181457807384431
1772793994121518300,6.218518310546875,0.009527122280001639,0.09040157093703746,0.1101143524710089
1772793994131563500,6.2285634765625,-0.0003875380128622055,0.07606850968003273,0.14827606961559503
1772793994141608400,6.2386083984375,-0.030732991915941237,0.08679653218239546,0.1712242528742179
1772793994151653600,6.248653564453125,-0.04880640874505043,0.07535393166989088,0.15836798617150633
1772793994161698600,6.258698486328125,-0.05575520496964454,0.04555120634138584,0.10071903987713157
1772793994171743500,6.268743408203125,-0.06360241133868694,0.046345279328525064,0.07031155358850956
1772793994181788400,6.278788330078125,-0.018007365855574605,0.058062897390127176,0.08817713635321706
1772793994191833600,6.28883349609375,0.011267828467488288,0.05651040725111961,0.11136964976172893
1772793994201878500,6.29887841796875,0.0060427872955799095,0.061442310695350166,0.08668317146841437
1772793994211923500,6.30892333984375,0.0025777415335178373,0.08610182791650295,0.057083457898721095
1772793994221968400,6.318968505859375,0.02376023029386997,0.09641513213813305,0.05173482687976211
1772793994232013600,6.329013671875,-0.003936754927039147,0.10995879658311605,0.026812055612541734
1772793994242058500,6.33905859375,-0.03180734314918518,0.12204670926183461,0.013058365146070719
1772793994252103700,6.349103759765625,-0.026021745485067367,0.12237082664966582,0.008821896620094775
1772793994262147300,6.359147216796875,-0.026360183659195898,0.12437106055617332,-0.0009196721281856298
1772793994272192500,6.369192626953125,-0.03399930023550987,0.11337971094250679,-0.008719130365364253
1772793994282237400,6.379237548828125,-0.0374006331115961,0.12211188345253467,-0.024973807334713636
1772793994292282600,6.38928271484375,-0.05175824428796768,0.13875702104419468,-0.030930633379891513
1772793994302327300,6.399327392578125,-0.06385024861991405,0.14512947868555784,-0.0028538550611585376
1772793994312372500,6.40937255859375,-0.0675473495721817,0.1438102127805352,0.03500434909220785
1772793994322417400,6.41941748046875,-0.0758212569206953,0.13617635690122842,0.041569625891931354
1772793994332462600,6.429462646484375,-0.03534077797234058,0.13718261133432388,0.030128632814623413
1772793994342507300,6.43950732421875,-0.0021942951738834378,0.13596212962865828,0.04666574345454574
1772793994352552400,6.449552490234375,-0.0035439562171697614,0.13451134629845618,0.04467628667037934
1772793994362597400,6.459597412109375,-0.02078618291914463,0.10496230347007512,0.0579024095987901
1772793994372642600,6.469642578125,-0.03008008096516132,0.10205839872211217,0.047372174690850075
1772793994382687500,6.4796875,-0.034971944659948344,0.1212196107879281,0.05762081617843359
1772793994392732400,6.489732421875,-0.04995031808316707,0.08648702784180641,0.0880281928692013
1772793994402776600,6.499776611328125,-0.0606938304156065,0.08785247097611427,0.06593768588583916
1772793994412821500,6.509821533203125,-0.052126493078470226,0.0735927672162652,0.04597878410369158
1772793994422866400,6.519866455078125,-0.06623275984227657,0.04958966807723045,0.005988097966276109
1772793994432911400,6.529911376953125,-0.0886263779580593,0.054413142710924144,-0.0254353238992393
1772793994442956500,6.53995654296875,-0.05826221935451031,0.04732873740792274,-0.03232285492327064
1772793994453001500,6.55000146484375,-0.05802665703296661,0.05391425327807665,-0.03448240757733583
1772793994463046700,6.560046630859375,-0.030019875210523603,0.058984980671107766,-0.041695261565595866
1772793994473091300,6.57009130859375,0.017896891218423843,0.061975102397799485,-0.04159337209369987
1772793994483136500,6.580136474609375,0.044887189474701876,0.05569470695406198,-0.030739604319818314
1772793994493181400,6.590181396484375,0.05783376480937004,0.03772708858698606,-0.01771189004033804
1772793994503226600,6.6002265625,0.08013269037902354,0.01905687490850687,-0.03615483430158346
1772793994513271600,6.610271484375,0.10149404283761977,0.004280161537230014,-0.029580205151624975
1772793994523316500,6.62031640625,0.11901099482774734,0.0019429507613182068,-0.02920212908685207
1772793994533361400,6.630361328125,0.09158405871987342,0.019027064292132852,-0.0103869174471125
1772793994543405600,6.640405517578125,0.06754384244084358,0.00821954681277275,-0.0010327405812218784
1772793994553450200,6.6504501953125,0.0512695839881897,0.05663958658874035,0.03524491638243198
1772793994563495400,6.660495361328125,0.02231412313878536,0.08228168510645628,0.059445072463527315
1772793994573540400,6.670540283203125,-0.027324644777178764,0.09595832828134297,0.07710950663294643
1772793994583585500,6.68058544921875,-0.034953824481368065,0.12249796016067266,0.08936247368026524
1772793994593630500,6.69063037109375,-0.04592588487267494,0.11404723494052886,0.10496734497137367
1772793994603675400,6.70067529296875,-0.05938391686081886,0.12557488338798284,0.09927899713665246
1772793994613720300,6.71072021484375,-0.0751852971047163,0.1384951552376151,0.062215085166133936
1772793994623765500,6.720765625,-0.12455518495142459,0.1384329036563635,0.04129387769047171
1772793994633810400,6.730810546875,-0.08569733876883984,0.1460790344953537,-0.02212495724223554
1772793994643855600,6.740855712890625,-0.07322013451159,0.1496604001134634,0.042946174942143256
1772793994653900300,6.750900390625,-0.0958200888544321,0.17005495336651802,0.08454919164702296
1772793994663945500,6.760945556640625,-0.13391104231774806,0.1852896396383643,0.02416859189905226
1772793994673990400,6.770990478515625,-0.14234686222970486,0.18920622856020927,0.0036960415063425896
1772793994684034300,6.781034423828125,-0.14056757759749888,0.17921704172641037,0.007170951075293123
1772793994694079500,6.79107958984375,-0.11812895129621029,0.14039865077137947,0.0008218743095174431
1772793994704124400,6.80112451171875,-0.0714946258932352,0.1277227090716362,0.007005348717421293
1772793994714169600,6.811169677734375,-0.0236544318318367,0.11668693579435348,0.032049079483188685
1772793994724214500,6.821214599609375,-0.0013853168785572052,0.0983145360186696,0.04463544320333749
1772793994734259500,6.831259521484375,0.019212065470218656,0.1130260751992464,0.031033070841059086
1772793994744304400,6.841304443359375,0.03990238679945469,0.091762045635283,0.03540522151067853
1772793994754349600,6.851349609375,0.053906362232565876,0.06927870340943336,0.04765939413439482
1772793994764394500,6.86139453125,0.08316869707405566,0.07516162396818399,0.059635042077675456
1772793994774439700,6.871439697265625,0.09972937125265598,0.06656944445073604,0.03980700013358146
1772793994784484400,6.881484375,0.08945172286629677,0.030214520999789236,0.032732750898413356
1772793994794529500,6.891529541015625,0.07686638205945491,0.0332137028157711,0.03441840243041515
1772793994804574500,6.901574462890625,0.07085165181457996,0.027593817107379435,0.01635974477902055
1772793994814619600,6.91161962890625,0.04408113378882408,0.014673837518692015,0.005480769498646259
1772793994824663300,6.921663330078125,0.007128828966617584,0.006294423969089985,-0.0036003260469064115
1772793994834708500,6.93170849609375,-0.008431143736839295,0.00953150619417429,0.007747472321614623
1772793994844753400,6.94175341796875,-0.043126609542965884,0.020972937662899493,0.022680874091945587
1772793994854798600,6.951798583984375,-0.06837327900230884,0.016306114895641804,-0.01187251636236906
1772793994864843300,6.96184326171875,-0.06471534101665019,0.06194616856426,-0.017506759389676153
1772793994874888400,6.971888427734375,-0.05044190099239349,0.012903320714831351,-0.033662396431341765
1772793994884933400,6.981933349609375,-0.00893324804008007,-0.025653496694564817,-0.04966894385851919
1772793994894978600,6.991978515625,0.013684826481342316,-0.0513587235763669,-0.043298422445915634
1772793994905023500,7.0020234375,0.03214928845465183,-0.06448737747967243,-0.09516235559806227
1772793994915068400,7.012068359375,0.04080664216279983,-0.04970715697705745,-0.12337255103811622
1772793994925113300,7.02211328125,0.05754734908342361,-0.009437982691824436,-0.11617416396662592
1772793994935158500,7.032158447265625,0.07452595641314982,0.02207242333739996,-0.021897066770493984
1772793994945203500,7.042203369140625,0.060499184626340866,0.05019698632061481,0.04405417271666229
1772793994955248400,7.052248291015625,0.05435176791250705,0.10403320592641829,0.03453530680835247
1772793994965292500,7.06229248046875,0.04715104275345802,0.09712474171221255,0.019052527526952325
1772793994975337500,7.07233740234375,0.028985855987668036,0.09242080180495976,0.061235536076873535
1772793994985382700,7.082382568359375,0.025536592316627502,0.1381421040162444,0.08325630229227245
1772793994995427300,7.09242724609375,0.04621756129562855,0.1581733769148588,0.11042520851846784
1772793995005472500,7.102472412109375,0.03628711891174316,0.14838643465489149,0.1294976097896695
1772793995015517400,7.112517333984375,0.016458967369794845,0.15848638838678597,0.1255388622265309
1772793995025562600,7.122562744140625,-0.0009258826732635498,0.1685346119314432,0.1097134435199201
1772793995035607600,7.132607666015625,-0.018358663511276244,0.17444851215034723,0.08900109302196652
1772793995045652500,7.142652587890625,-0.015749357795715332,0.15910744289457798,0.08816201184932142
1772793995055697400,7.152697509765625,-0.021003040540218353,0.1458671453103423,0.1099558009084314
1772793995065742600,7.16274267578125,-0.05430032998621463,0.14093611864894628,0.04743738541416823
1772793995075787500,7.17278759765625,-0.04981704709231853,0.1407046479806304,-0.010831007952801883
1772793995085832400,7.18283251953125,-0.08731471083760262,0.13470862243622542,0.0021472776943817734
1772793995095877400,7.19287744140625,-0.1269423723489046,0.10933102007359266,0.029541736304759977
1772793995105921500,7.202921630859375,-0.15704875679910182,0.1345586925715208,0.046571087441034616
1772793995115966500,7.212966552734375,-0.1805897913843393,0.13131781095415354,0.07434069950673729
1772793995126011400,7.223011474609375,-0.1929173580378294,0.11295739387720823,0.06592676263302565
1772793995136056300,7.233056396484375,-0.15055530312657356,0.08738631476908922,0.04317019295636564
1772793995146101500,7.2431015625,-0.08879355121850967,0.0733706488981843,0.006054916124790906
1772793995156146400,7.253146484375,-0.026924831804633138,0.06688800888061523,0.011156002123467623
1772793995166191600,7.263191650390625,0.046456046226620674,0.03724485802799463,0.01247570641990751
1772793995176236300,7.273236328125,0.07720657379925251,0.004911152917146683,-0.04649371135588735
1772793995186281500,7.283281494140625,0.09561433714926243,-0.002505260819196701,-0.07068875287044793
1772793995196326400,7.293326416015625,0.10328034173250197,0.016364859345555306,-0.04181724397744983
1772793995206371600,7.30337158203125,0.1252957741856575,0.041019992652535434,0.016791742988117038
1772793995216416300,7.313416259765625,0.11473287911713123,0.03132102093696594,0.051016303346864876
1772793995226461400,7.32346142578125,0.08281739941835403,0.03896159881800413,0.04287022362910211
1772793995236506400,7.33350634765625,0.06579261485934257,0.053849663609266275,-0.02449329380877316
1772793995246551300,7.34355126953125,0.09689034843444824,0.03961684785634279,-0.04794493307750672
1772793995256596200,7.35359619140625,0.07740180411040783,0.027087328889966008,0.026325112345814704
1772793995266641400,7.363641357421875,0.04011456824541092,0.037032384321093556,0.0632585298044607
1772793995276686300,7.373686279296875,0.017196633994579314,0.018561200346052645,0.040276553874090314
1772793995286731300,7.383731201171875,-0.006437339571118354,0.016161737988889216,-0.018485650891810656
1772793995296776200,7.393776123046875,-0.024708909320831297,0.04322159435003996,-0.03805555335637182
1772793995306821400,7.4038212890625,-0.019464578926563263,0.07435556828230619,0.0017256912814453244
1772793995316866300,7.4138662109375,-0.019789573097229004,0.0664449412882328,0.0037756460811942815
1772793995326911500,7.423911376953125,-0.0032569559693336487,0.032416707219183445,-0.06253828923851251
1772793995336956200,7.4339560546875,0.015021628043055534,0.02522825701981783,-0.10342154030147939
1772793995347001300,7.44400146484375,0.01896715079843998,0.038135669387876985,-0.10429894419051707
1772793995357046300,7.45404638671875,0.02789455361962318,0.06450082148313523,-0.08692366569340229
1772793995367091500,7.464091552734375,0.06415127739310264,0.08166296868622303,-0.0507572505518794
1772793995377136000,7.47413623046875,0.10852759473621845,0.023815759873390196,-0.06212466693632304
1772793995387180300,7.48418017578125,0.10135083497464656,-0.029180209515988827,-0.08181757472604513
1772793995397225500,7.4942255859375,-0.0018289689928293227,-0.0729980161935091,-0.1146496578130871
1772793995407270400,7.5042705078125,-0.03621697628498077,-0.012473697125911712,-0.1379103776196018
1772793995417315300,7.5143154296875,-0.003971241718530655,-0.000555003534257412,-0.07303969991076738
1772793995427360300,7.5243603515625,0.027512860825657844,-0.021304069313406945,0.04772314355298876
1772793995437405400,7.534405517578125,0.0037613983601331707,-0.06330430517494678,0.09722023797594011
1772793995447450400,7.544450439453125,-0.04861819269657135,-0.04552840998768806,0.07499203955493867
1772793995457495600,7.55449560546875,-0.08265431781113147,0.029660394248366355,0.05337495876960456
1772793995467540200,7.564540283203125,-0.10124269842505454,0.11858458610922097,0.08633749983590096
1772793995477585400,7.57458544921875,-0.10074702386260032,0.1712868332490325,0.18123378837630152
1772793995487630300,7.58463037109375,-0.0901993263632059,0.21293869406431912,0.29827804970834404
1772793995497675500,7.594675537109375,-0.06561024402976036,0.22584844451993702,0.39196711788345123
1772793995507720200,7.60472021484375,-0.0663794748365879,0.21047464203834532,0.3396437870586291
1772793995517765400,7.614765380859375,-0.06687807200849055,0.129815589697659,0.15928491835333405
1772793995527809300,7.624809326171875,-0.045962125229835504,0.1463476223036647,0.05132171603422612
1772793995537854500,7.6348544921875,-0.05974865851998329,0.18941548739671707,0.06854235195890068
1772793995547899100,7.644899169921875,-0.05961714109480381,0.21786358324587343,0.11452497198749333
1772793995557944300,7.6549443359375,-0.087864161413908,0.2657508313193917,0.14299915212597697
1772793995567989200,7.6649892578125,-0.08502338503003119,0.3041460284262895,0.14827365846280008
1772793995578034400,7.675034423828125,-0.07514964126944541,0.3197936794131994,0.15633436145205049
1772793995588079400,7.685079345703125,-0.02060322756767273,0.3103524818509817,0.1506595672186464
1772793995598124300,7.695124267578125,0.0074216744333505625,0.2805176078185439,0.15262447408344595
1772793995608169200,7.705169189453125,0.011444354078173636,0.2238850354924798,0.11256130723170936
1772793995618214400,7.71521435546875,0.03842588450610637,0.1484405029296875,0.021991795849241314
1772793995628259300,7.72525927734375,0.031037527820467946,0.09710837509930133,-0.05604059778228402
1772793995638304300,7.73530419921875,0.024185762229561803,0.034166765756905075,-0.15599975920282302
1772793995648349200,7.74534912109375,0.022972879308462143,-0.030044425129890442,-0.2059047403069213
1772793995658394400,7.755394287109375,0.004177577945590019,-0.08656155438274145,-0.24973233772609382
1772793995668438500,7.7654384765625,0.00796995596587658,-0.10309738638103008,-0.22102394697293637
1772793995678483200,7.775483154296875,0.013134206861257552,-0.11258709926009178,-0.14576434252299367
1772793995688528400,7.7855283203125,-0.0021177228063344955,-0.11524082863926886,-0.05776705624870956
1772793995698573300,7.7955732421875,-0.02286532728075981,-0.14001754249930382,-0.022755144904553888
1772793995708618500,7.805618408203125,-0.006354921984672546,-0.154148359182477,-0.009255757992714643
1772793995718663400,7.815663330078125,0.007840192106366157,-0.14887743304222822,-0.008440404755529016
1772793995728708400,7.825708251953125,0.017937807750701903,-0.13671060990840195,-0.03531739709675312
1772793995738753300,7.835753173828125,0.06437047310173512,-0.1118731057718396,-0.09304472412327304
1772793995748798500,7.845798583984375,0.12552432224452495,-0.11841010632514953,-0.1345360606146045
1772793995758843400,7.855843505859375,0.11568038910031318,-0.1133075224891305,-0.14355026493640616
1772793995768888300,7.865888427734375,0.12222820330858229,-0.09336889631003141,-0.15364720472730695
1772793995778933200,7.875933349609375,0.10717676464915275,-0.06995557975769043,-0.14251834633909166
1772793995788978400,7.885978515625,0.05205751949548721,-0.06551292113512754,-0.0865244555090554
1772793995799023400,7.8960234375,0.07404489489793777,-0.04322890087366104,-0.0696134700554423
1772793995809067300,7.9060673828125,0.0880950475603342,0.0016673486903309822,-0.03637150925956666
1772793995819112200,7.9161123046875,0.09101531892120837,0.024303835651278496,-0.022513472502632064
1772793995829157400,7.926157470703125,0.10244155282080172,0.0005249006569385528,-0.0480339265352115
1772793995839202300,7.936202392578125,0.11755261271297932,-0.018449848926067353,-0.041394470254424956
1772793995849247500,7.94624755859375,0.1170171906620264,0.00887830298244953,0.009638839026167988
1772793995859292200,7.956292236328125,0.14148001626729964,0.03171966486573219,0.022620421742135657
1772793995869337300,7.96633740234375,0.1736234595030546,0.0364791343525052,0.04776352122914977
1772793995879382300,7.97638232421875,0.18652035047709942,0.025497137089073658,0.021059720897208898
1772793995889427500,7.986427490234375,0.22076398086249827,0.007134966446459293,-0.02277159371585585
1772793995899471400,7.996471435546875,0.20022738879024982,0.025828268739581106,-0.006538977881264872
1772793995909516300,8.006516357421875,0.17755144660174846,0.06796089880913496,0.03492638391859364
1772793995919560400,8.016560546875,0.14932722263634204,0.09436082995682954,0.08452285162936896
1772793995929605000,8.026605224609375,0.12045125676393509,0.10414572639018296,0.10627355046542361
1772793995939650300,8.036650390625,-0.000997194343805313,0.127115098567307,0.0863062918468844
1772793995949695200,8.0466953125,-0.12486965772807597,0.15758271754533051,0.0870940812237095
1772793995959740400,8.056740478515625,-0.20817221031486988,0.14984423224776983,0.13525878539858385
1772793995969785300,8.066785400390625,-0.2695972776144743,0.1453486743941903,0.1513737433699891
1772793995979830300,8.076830322265625,-0.30923078434467316,0.17054478271007537,0.15547580839395522
1772793995989875200,8.086875244140625,-0.29240298366248607,0.19691811811178922,0.1413619245792739
1772793995999920400,8.09692041015625,-0.2190846494734287,0.20068594621270894,0.08440550886001437
1772793996009965300,8.10696533203125,-0.1286672964453697,0.18670359808951614,0.06142981653995812
1772793996020010200,8.11701025390625,-0.015158990687131882,0.17241875988841054,0.089455613590125
1772793996030055200,8.12705517578125,0.08054653187692165,0.19721008679568766,0.10302523446027188
1772793996040100400,8.137100341796875,0.0841390034109354,0.2653086405098438,0.15924613897921516
1772793996050145300,8.147145263671876,0.004025602254271507,0.25151421617418523,0.18596726490529253
