time,seconds_elapsed,z,y,x
1772793987984057000,0.08105712890625,-0.0010180134559050202,-0.0341893769800663,0.01970839686691761
1772793987994102000,0.09110205078125,0.0017644573235884309,-0.047644201666116714,0.004237562883645296
1772793988004147000,0.10114697265625,0.0038116294890642166,-0.05272924154996872,-0.011113962158560753
1772793988014192000,0.111192138671875,-0.0013200128450989723,-0.056005481630563736,-0.01882592961192131
1772793988024237000,0.121237060546875,-0.004773334134370089,-0.05975122004747391,0.0001834477297961712
1772793988034282200,0.1312822265625,-0.013947922736406326,-0.07262898981571198,0.03326180577278137
1772793988044327000,0.141326904296875,-0.028637653216719627,-0.12063246965408325,0.06801765412092209
1772793988054372000,0.1513720703125,-0.05067264661192894,-0.17457421123981476,0.12951160967350006
1772793988064416300,0.161416259765625,-0.06628463417291641,-0.22541075944900513,0.20565910637378693
1772793988074461000,0.1714609375,-0.08522849529981613,-0.2489301860332489,0.24468687176704407
1772793988084506000,0.181506103515625,-0.08303165435791016,-0.2816665470600128,0.2713070511817932
1772793988094551000,0.191551025390625,-0.0746227279305458,-0.32504352927207947,0.2838170528411865
1772793988104596200,0.20159619140625,-0.08296960592269897,-0.33242130279541016,0.3356751799583435
1772793988114641200,0.21164111328125,-0.07935968786478043,-0.302548348903656,0.43925565481185913
1772793988124686000,0.22168603515625,-0.09744787961244583,-0.3458992838859558,0.4811735451221466
1772793988134731000,0.23173095703125,-0.12021896988153458,-0.3725905120372772,0.4702216684818268
1772793988144776200,0.241776123046875,-0.1201569214463234,-0.3439956307411194,0.43850234150886536
1772793988154821000,0.251821044921875,-0.09823111444711685,-0.3305233120918274,0.3998339772224426
1772793988164866000,0.261865966796875,-0.07557107508182526,-0.32314369082450867,0.35927295684814453
1772793988174911000,0.271910888671875,-0.04227304086089134,-0.33220142126083374,0.3534279763698578
1772793988184956200,0.2819560546875,-0.028284253552556038,-0.3560257852077484,0.38852497935295105
1772793988195001000,0.2920009765625,-0.03460952639579773,-0.3702308237552643,0.47776803374290466
1772793988205046300,0.30204638671875,-0.0515163391828537,-0.37696781754493713,0.6115269064903259
1772793988215091000,0.312091064453125,-0.0891936793923378,-0.4155253767967224,0.7405914664268494
1772793988225136000,0.32213623046875,-0.11673528701066971,-0.44595572352409363,0.8488156795501709
1772793988235181000,0.33218115234375,-0.10586613416671753,-0.439090758562088,0.9088050127029419
1772793988245226200,0.342226318359375,-0.0933798998594284,-0.46502646803855896,0.9374872446060181
1772793988255270000,0.352269775390625,-0.11080150306224823,-0.5020089149475098,0.9309946894645691
1772793988265315000,0.362315185546875,-0.14736458659172058,-0.5376832485198975,0.8955179452896118
1772793988275360000,0.372360107421875,-0.18092624843120575,-0.5224424004554749,0.8323662877082825
1772793988285405200,0.3824052734375,-0.18523818254470825,-0.4675480127334595,0.7556531429290771
1772793988295449900,0.392449951171875,-0.18549969792366028,-0.43316155672073364,0.6674127578735352
1772793988305495000,0.4024951171875,-0.19546978175640106,-0.4010768532752991,0.5782865881919861
1772793988315540000,0.4125400390625,-0.21467703580856323,-0.3613162040710449,0.48554742336273193
1772793988325585200,0.422585205078125,-0.23466593027114868,-0.2759736180305481,0.4177286922931671
1772793988335630000,0.432630126953125,-0.26759350299835205,-0.09749960154294968,0.3894590437412262
1772793988345675000,0.442675048828125,-0.32832077145576477,0.14020057022571564,0.40475571155548096
1772793988355720000,0.452719970703125,-0.35614946484565735,0.37367185950279236,0.45227792859077454
1772793988365765000,0.46276513671875,-0.32615986466407776,0.48742878437042236,0.5005112290382385
1772793988375810000,0.47281005859375,-0.26356175541877747,0.433802992105484,0.5267390608787537
1772793988385855200,0.482855224609375,-0.22673635184764862,0.2632317841053009,0.5516579747200012
1772793988395900000,0.49289990234375,-0.20315831899642944,0.045411478728055954,0.6064307689666748
1772793988405945000,0.502945068359375,-0.19014425575733185,-0.19456249475479126,0.6763110756874084
1772793988415990000,0.512989990234375,-0.1702704131603241,-0.43313440680503845,0.7414113879203796
1772793988426035200,0.52303515625,-0.12303739786148071,-0.6063448190689087,0.8028438687324524
1772793988436079900,0.533079833984375,-0.05886107310652733,-0.7823939323425293,0.8099673390388489
1772793988446125000,0.543125,-0.01301928237080574,-0.8763526082038879,0.7589051723480225
1772793988456169200,0.553169189453125,0.029319120571017265,-0.8853533267974854,0.6839374899864197
1772793988466214100,0.563214111328125,0.07586265355348587,-0.8438562154769897,0.6100907325744629
1772793988476259000,0.573259033203125,0.11448488384485245,-0.7281523942947388,0.5417118072509766
1772793988486304000,0.583303955078125,0.15905049443244934,-0.5664676427841187,0.47228768467903137
1772793988496349200,0.59334912109375,0.21846002340316772,-0.42817655205726624,0.3925767242908478
1772793988506394000,0.60339404296875,0.28547900915145874,-0.35444560647010803,0.32098138332366943
1772793988516439300,0.613439208984375,0.35634440183639526,-0.3670657277107239,0.2597442865371704
1772793988526484000,0.62348388671875,0.3935562074184418,-0.47586944699287415,0.20907366275787354
1772793988536529200,0.633529052734375,0.4163837432861328,-0.641621470451355,0.149491086602211
1772793988546574000,0.643573974609375,0.4663425385951996,-0.809657096862793,0.10438299924135208
1772793988556619300,0.653619384765625,0.49587059020996094,-0.9900553822517395,0.005279639735817909
1772793988566664000,0.663663818359375,0.49967652559280396,-1.1666591167449951,-0.1126675009727478
1772793988576709000,0.673709228515625,0.4721657931804657,-1.2081197500228882,-0.2764472961425781
1772793988586754000,0.683754150390625,0.4247753918170929,-1.0051072835922241,-0.4389360547065735
1772793988596799200,0.69379931640625,0.3649170994758606,-0.5992633700370789,-0.6158373951911926
1772793988606844200,0.70384423828125,0.2835426330566406,-0.14852569997310638,-0.8144589066505432
1772793988616889000,0.71388916015625,0.17833761870861053,0.313035786151886,-0.9846683740615845
1772793988626934000,0.72393408203125,0.12426640838384628,0.6670112013816833,-1.065647840499878
1772793988636979200,0.733979248046875,0.09193696081638336,0.7635244727134705,-1.0643103122711182
1772793988647024000,0.744024169921875,0.1503789722919464,0.7486118078231812,-0.9510570168495178
1772793988657068000,0.754068115234375,0.22502602636814117,0.589330792427063,-0.7382059693336487
1772793988667113000,0.764113037109375,0.26649466156959534,0.29683583974838257,-0.44745877385139465
1772793988677158100,0.774158203125,0.2531924247741699,0.06463577598333359,-0.06861525774002075
1772793988687203000,0.784203125,0.17673040926456451,-0.043745554983615875,0.3560020625591278
1772793988697248000,0.794248046875,0.13495926558971405,-0.14303405582904816,0.7311226725578308
1772793988707293000,0.80429296875,0.16613024473190308,-0.21731095016002655,1.0034010410308838
1772793988717338000,0.814338134765625,0.21665413677692413,-0.4000513255596161,1.1548508405685425
1772793988727383000,0.824383056640625,0.22750304639339447,-0.6073488593101501,1.2570470571517944
1772793988737428200,0.83442822265625,0.22161559760570526,-0.613370418548584,1.3811061382293701
1772793988747473000,0.844472900390625,0.23822706937789917,-0.7304893136024475,1.439442753791809
1772793988757518000,0.85451806640625,0.23358838260173798,-0.902418315410614,1.4255092144012451
1772793988767563000,0.86456298828125,0.1837281435728073,-0.9437548518180847,1.4090874195098877
1772793988777608200,0.874608154296875,0.12333589792251587,-0.8952919244766235,1.3384267091751099
1772793988787653000,0.884653076171875,0.03375621512532234,-0.8682984113693237,1.2080702781677246
1772793988797698000,0.894697998046875,-0.02221783809363842,-0.8201248645782471,1.0265305042266846
1772793988807743000,0.904742919921875,0.013455203734338284,-0.6617826223373413,0.7775416970252991
1772793988817788200,0.9147880859375,0.03072446957230568,-0.6081176996231079,0.44085580110549927
1772793988827833000,0.9248330078125,0.04585016146302223,-0.5054246187210083,0.14127865433692932
1772793988837878000,0.9348779296875,0.15128789842128754,-0.3310071527957916,-0.14396162331104279
1772793988847923000,0.9449228515625,0.25145524740219116,-0.21571198105812073,-0.4278114438056946
1772793988857968000,0.954968017578125,0.36685746908187866,-0.1702098548412323,-0.6356779932975769
1772793988868012300,0.96501220703125,0.5082367062568665,-0.09656893461942673,-0.7790663242340088
1772793988878057000,0.975056884765625,0.5907880663871765,-0.1316906064748764,-0.9179778695106506
1772793988888102100,0.98510205078125,0.5842955112457275,-0.12386330217123032,-1.013515830039978
1772793988898147000,0.99514697265625,0.5403818488121033,-0.05448102578520775,-1.0622614622116089
1772793988908192300,1.005192138671875,0.5031399726867676,-0.07609950751066208,-1.1126563549041748
1772793988918237000,1.01523681640625,0.49210596084594727,0.007921421900391579,-1.110735535621643
1772793988928282000,1.0252822265625,0.4985648989677429,0.05376587435603142,-1.0704996585845947
1772793988938327000,1.0353271484375,0.5125872492790222,0.005852618720382452,-1.0193779468536377
1772793988948372200,1.045372314453125,0.5269776582717896,-0.07075827568769455,-0.9353994131088257
1772793988958417200,1.055417236328125,0.5084697604179382,-0.14247432351112366,-0.795038104057312
1772793988968462000,1.065462158203125,0.4545271396636963,-0.1990361362695694,-0.6176412105560303
1772793988978507000,1.075507080078125,0.38648736476898193,-0.22892548143863678,-0.4194549024105072
1772793988988552200,1.08555224609375,0.32145270705223083,-0.26085999608039856,-0.2273014336824417
1772793988998597000,1.09559716796875,0.27914202213287354,-0.29608118534088135,-0.05546416714787483
1772793989008642300,1.105642333984375,0.24718059599399567,-0.32638341188430786,0.09488724917173386
1772793989018687000,1.11568701171875,0.22987911105155945,-0.34639692306518555,0.2374928891658783
1772793989028732200,1.125732177734375,0.21611323952674866,-0.38418397307395935,0.36015674471855164
1772793989038777000,1.135777099609375,0.2031303197145462,-0.41172686219215393,0.4781467318534851
1772793989048822300,1.145822265625,0.17684172093868256,-0.4198353886604309,0.5811468958854675
1772793989058867000,1.155866943359375,0.14191119372844696,-0.4184108376502991,0.6530973315238953
1772793989068911000,1.1659111328125,0.12166636437177658,-0.40513497591018677,0.6947611570358276
1772793989078956000,1.1759560546875,0.1158502846956253,-0.390758216381073,0.715408980846405
1772793989089001200,1.186001220703125,0.11677120625972748,-0.3721637725830078,0.7100171446800232
1772793989099046000,1.1960458984375,0.12292736768722534,-0.36970794200897217,0.6968927383422852
1772793989109091000,1.206091064453125,0.12520384788513184,-0.3767309784889221,0.6723074913024902
1772793989119136000,1.216135986328125,0.11680422723293304,-0.3788485527038574,0.6528548002243042
1772793989129181200,1.22618115234375,0.08579784631729126,-0.3676781952381134,0.6268836259841919
1772793989139226000,1.23622607421875,0.024317171424627304,-0.3405098617076874,0.5901455283164978
1772793989149271000,1.24627099609375,0.02562771365046501,-0.340728223323822,0.5359707474708557
1772793989159316000,1.25631591796875,0.03694162145256996,-0.29107022285461426,0.46825742721557617
1772793989169361200,1.266361083984375,0.03910304233431816,-0.23153498768806458,0.3929368257522583
1772793989179406000,1.276406005859375,0.03471335396170616,-0.21269191801548004,0.3228762149810791
1772793989189451000,1.286450927734375,0.0707259476184845,-0.1992054134607315,0.25417277216911316
1772793989199496000,1.296495849609375,0.08464815467596054,-0.13770923018455505,0.19647204875946045
1772793989209541000,1.306541015625,0.08157220482826233,-0.09198115020990372,0.13917094469070435
1772793989219586000,1.3165859375,0.0748107060790062,-0.061426080763339996,0.07858770340681076
1772793989229631200,1.32663134765625,0.037985317409038544,-0.021385187283158302,0.030678242444992065
1772793989239676000,1.336676025390625,0.07053367048501968,-0.029490835964679718,-0.018089482560753822
1772793989249720600,1.346720458984375,0.13218346238136292,-0.0023497608490288258,-0.06363193690776825
1772793989259765500,1.356765625,0.20424112677574158,0.05107603222131729,-0.10573967546224594
1772793989269810400,1.366810546875,0.23040908575057983,0.0660904049873352,-0.1376933455467224
1772793989279854600,1.3768544921875,0.24135759472846985,0.03095989301800728,-0.13494718074798584
1772793989289899500,1.3868994140625,0.2365788221359253,0.04296569153666496,-0.13021181523799896
1772793989299944400,1.3969443359375,0.22876591980457306,0.06531397253274918,-0.1392076462507248
1772793989309989400,1.4069892578125,0.1934225857257843,0.08223303407430649,-0.15952864289283752
1772793989320034600,1.41703466796875,0.1851406842470169,0.08224800229072571,-0.1616480052471161
1772793989330079500,1.42707958984375,0.1947735995054245,0.10570033639669418,-0.16801029443740845
1772793989340124700,1.437124755859375,0.197127565741539,0.12372300773859024,-0.17757509648799896
1772793989350169300,1.44716943359375,0.19772492349147797,0.14091530442237854,-0.17327462136745453
1772793989360214500,1.457214599609375,0.20191459357738495,0.14583247900009155,-0.164496049284935
1772793989370259500,1.467259521484375,0.20678231120109558,0.15215934813022614,-0.15226468443870544
1772793989380304600,1.4773046875,0.2070331871509552,0.1681433618068695,-0.13322925567626953
1772793989390349300,1.487349365234375,0.20023122429847717,0.18058112263679504,-0.12061253190040588
1772793989400394500,1.49739453125,0.19052426517009735,0.19791200757026672,-0.1127115786075592
1772793989410439400,1.507439453125,0.17876321077346802,0.21233569085597992,-0.10580360144376755
1772793989420484600,1.517484619140625,0.16577523946762085,0.21797579526901245,-0.10086885094642639
1772793989430529500,1.527529541015625,0.14897921681404114,0.19779063761234283,-0.09484637528657913
1772793989440574500,1.537574462890625,0.1307578682899475,0.1603764146566391,-0.08471118658781052
1772793989450619400,1.547619384765625,0.11240868270397186,0.12475961446762085,-0.0761827602982521
1772793989460664600,1.55766455078125,0.09974348545074463,0.10044378787279129,-0.0706338956952095
1772793989470709500,1.56770947265625,0.08617334812879562,0.07905780524015427,-0.07539882510900497
1772793989480753400,1.57775341796875,0.08126647770404816,0.06750038266181946,-0.08248117566108704
1772793989490798600,1.587798583984375,0.07755802571773529,0.07480116933584213,-0.09096227586269379
1772793989500843500,1.597843505859375,0.08170615881681442,0.08669495582580566,-0.10780124366283417
1772793989510888700,1.607888671875,0.09454845637083054,0.09014028310775757,-0.12442842125892639
1772793989520933400,1.617933349609375,0.10592921078205109,0.08744627982378006,-0.13655441999435425
1772793989530978600,1.627978515625,0.11945513635873795,0.07825571298599243,-0.14501874148845673
1772793989541023500,1.6380234375,0.12693357467651367,0.06078622490167618,-0.14621728658676147
1772793989551068700,1.648068603515625,0.1273261159658432,0.033672042191028595,-0.13287165760993958
1772793989561113600,1.658113525390625,0.11757467687129974,0.008615970611572266,-0.10925544798374176
1772793989571158500,1.668158447265625,0.10189585387706757,-0.01319824904203415,-0.08220092207193375
1772793989581203500,1.678203369140625,0.08244146406650543,-0.023142598569393158,-0.05129162594676018
1772793989591248600,1.68824853515625,0.05542289465665817,-0.02411198988556862,-0.020548895001411438
1772793989601293600,1.69829345703125,0.02471824362874031,-0.018241848796606064,-0.0015011676587164402
1772793989611338500,1.70833837890625,0.0029796590097248554,-0.0024519667495042086,0.010211149230599403
1772793989621383400,1.718383544921875,-0.010114572010934353,0.008811183273792267,0.01200711727142334
1772793989631428600,1.7284287109375,-0.015524250455200672,0.008071890100836754,0.010365544818341732
1772793989641473500,1.7384736328125,-0.025335868820548058,-0.003507859306409955,0.0014969357289373875
1772793989651518500,1.7485185546875,-0.03081692010164261,-0.007912994362413883,-0.006708796136081219
1772793989661563400,1.7585634765625,-0.03553284704685211,-0.00874406099319458,-0.023679906502366066
1772793989671608600,1.768608642578125,-0.041382480412721634,0.0011133630760014057,-0.05115174502134323
1772793989681652500,1.778652587890625,-0.0444810688495636,0.018734067678451538,-0.07726200670003891
1772793989691697700,1.78869775390625,-0.045767106115818024,0.03789284825325012,-0.1111864224076271
1772793989701742300,1.798742431640625,-0.0531025193631649,0.05057859420776367,-0.1375851333141327
1772793989711787500,1.80878759765625,-0.05665863677859306,0.04330523684620857,-0.1641714721918106
1772793989721832400,1.81883251953125,-0.059007011353969574,0.0245564803481102,-0.1811758577823639
1772793989731877600,1.828877685546875,-0.05530122295022011,0.0014032251201570034,-0.19348764419555664
1772793989741922600,1.838922607421875,-0.047655023634433746,-0.016866695135831833,-0.19664838910102844
1772793989751967500,1.848967529296875,-0.04412979632616043,-0.024927018210291862,-0.1904813051223755
1772793989762012400,1.859012451171875,-0.05495767667889595,-0.004036763217300177,-0.16896748542785645
1772793989772057600,1.8690576171875,-0.07353189587593079,0.023410573601722717,-0.13922344148159027
1772793989782102500,1.8791025390625,-0.09287762641906738,0.0515102855861187,-0.11530780792236328
1772793989792147500,1.8891474609375,-0.099545918405056,0.06672678142786026,-0.0998108759522438
1772793989802192400,1.8991923828125,-0.09265605360269547,0.07302457839250565,-0.08878669142723083
1772793989812237600,1.909237548828125,-0.08678511530160904,0.08465353399515152,-0.09650400280952454
1772793989822282500,1.919282470703125,-0.06795869767665863,0.09249456971883774,-0.10706575959920883
1772793989832327700,1.92932763671875,-0.04708856716752052,0.09374652057886124,-0.11645659804344177
1772793989842372400,1.939372314453125,-0.042647745460271835,0.07858189940452576,-0.11784966289997101
1772793989852417500,1.94941748046875,-0.04718524217605591,0.05668991059064865,-0.11693300306797028
1772793989862461400,1.95946142578125,-0.048240918666124344,0.05040682479739189,-0.11303073912858963
1772793989872506600,1.969506591796875,-0.04748378321528435,0.04692421108484268,-0.11472531408071518
1772793989882551600,1.979551513671875,-0.045221958309412,0.03371572867035866,-0.11822070926427841
1772793989892596500,1.989596435546875,-0.04547176510095596,0.01701078563928604,-0.11021844297647476
1772793989902641400,1.999641357421875,-0.0437455028295517,0.0005825483240187168,-0.11518146097660065
1772793989912686600,2.0096865234375,-0.03682580962777138,-0.010120430029928684,-0.1236196905374527
1772793989922731500,2.0197314453125,-0.029063496738672256,-0.009281791746616364,-0.1339491903781891
1772793989932776400,2.0297763671875,-0.02986057847738266,-0.007726239040493965,-0.15240968763828278
1772793989942821400,2.0398212890625,-0.030960464850068092,-0.01229639258235693,-0.1727689802646637
1772793989952866600,2.049866455078125,-0.025551052764058113,-0.02599755860865116,-0.18824540078639984
1772793989962911500,2.059911376953125,-0.020494507625699043,-0.029622070491313934,-0.19918042421340942
1772793989972956400,2.069956298828125,-0.009781676344573498,-0.014169342815876007,-0.19631220400333405
1772793989983001300,2.08000146484375,0.0024363743141293526,-0.005473750177770853,-0.18200288712978363
1772793989993046500,2.090046630859375,0.00616479991003871,-0.004782393574714661,-0.16182038187980652
1772793990003091500,2.100091552734375,0.004137600772082806,-0.0036499074194580317,-0.14382441341876984
1772793990013136400,2.110136474609375,0.0026166695170104504,0.005812303628772497,-0.11633871495723724
1772793990023181300,2.120181396484375,-0.006150722969323397,0.013387026265263557,-0.08641373366117477
1772793990033226500,2.1302265625,-0.011219517327845097,0.009062053635716438,-0.06043698638677597
1772793990043271400,2.140271484375,-0.013254439458251,0.002342847641557455,-0.03201271966099739
1772793990053316600,2.150316650390625,-0.011649885214865208,-0.008042948320508003,-0.006259686313569546
1772793990063361300,2.160361328125,-0.017004968598484993,-0.012393014505505562,0.015866903588175774
1772793990073405400,2.170405517578125,-0.02034830115735531,-0.009260604158043861,0.0406593382358551
1772793990083450600,2.18045068359375,-0.024852506816387177,-0.005738777108490467,0.05517948791384697
1772793990093495600,2.19049560546875,-0.029837144538760185,0.0009438931010663509,0.0631796270608902
1772793990103540500,2.20054052734375,-0.033490464091300964,0.009407345205545425,0.0591793917119503
1772793990113585400,2.21058544921875,-0.03269631043076515,0.012112583965063095,0.04623323306441307
1772793990123630600,2.220630615234375,-0.029837142676115036,0.011088984087109566,0.033526524901390076
1772793990133675500,2.230675537109375,-0.026514850556850433,0.008342999964952469,0.0111013762652874
1772793990143720400,2.240720458984375,-0.01963670179247856,0.008961005136370659,-0.011807385832071304
1772793990153765400,2.250765380859375,-0.012062140740454197,0.01251872256398201,-0.03025696612894535
1772793990163810600,2.260810546875,-0.008793909102678299,0.018677497282624245,-0.04470879212021828
1772793990173855500,2.27085546875,-0.006207447499036789,0.030851608142256737,-0.05539579316973686
1772793990183900700,2.280900634765625,-0.0025453362613916397,0.04076630249619484,-0.06948376446962357
1772793990193945300,2.2909453125,-0.0013543707318603992,0.05207781121134758,-0.08204962313175201
1772793990203990500,2.300990478515625,0.005054526962339878,0.056322354823350906,-0.09340965002775192
1772793990214035500,2.311035400390625,0.007132857106626034,0.05392630770802498,-0.10276267677545547
1772793990224080600,2.32108056640625,0.006578920409083366,0.044870760291814804,-0.10388626158237457
1772793990234125600,2.33112548828125,0.0062601398676633835,0.04311174526810646,-0.09759214520454407
1772793990244170200,2.341170166015625,0.010622930712997913,0.04004020616412163,-0.09508582949638367
1772793990254215000,2.35121484375,0.012386476621031761,0.0373552069067955,-0.09168604016304016
1772793990264259000,2.361259033203125,0.01826886646449566,0.034597449004650116,-0.08258544653654099
1772793990274304300,2.37130419921875,0.02526445873081684,0.03165252506732941,-0.06777454912662506
1772793990284349200,2.38134912109375,0.03096655383706093,0.03131526708602905,-0.05603303387761116
1772793990294394000,2.39139404296875,0.031363096088171005,0.03513424098491669,-0.04689652845263481
1772793990304439000,2.40143896484375,0.03332824259996414,0.04425514489412308,-0.03663303703069687
1772793990314484200,2.411484130859375,0.02904188632965088,0.05396316573023796,-0.033661480993032455
1772793990324529200,2.421529052734375,0.028487948700785637,0.06179216131567955,-0.031563080847263336
1772793990334574000,2.431573974609375,0.030334850773215294,0.06195701286196709,-0.038165587931871414
1772793990344619000,2.441618896484375,0.029318854212760925,0.06267931312322617,-0.05790949612855911
1772793990354664200,2.451664306640625,0.028120165690779686,0.06229742243885994,-0.07014219462871552
1772793990364709000,2.461709228515625,0.02700589969754219,0.06961866468191147,-0.0862281396985054
1772793990374754300,2.47175439453125,0.026729729026556015,0.07780948281288147,-0.09694016724824905
1772793990384799000,2.481799072265625,0.02742374874651432,0.0910068228840828,-0.10822970420122147
1772793990394844200,2.49184423828125,0.02572891302406788,0.0970146432518959,-0.11100791394710541
1772793990404889000,2.50188916015625,0.023700382560491562,0.09700432419776917,-0.1148362010717392
1772793990414934300,2.511934326171875,0.015165751799941063,0.09802990406751633,-0.11180498450994492
1772793990424979000,2.52197900390625,0.011772884987294674,0.09953410178422928,-0.100384421646595
1772793990435024100,2.532024169921875,0.008390404284000397,0.09891651570796967,-0.09170704334974289
1772793990445068000,2.542068115234375,0.0036784715484827757,0.10076113790273666,-0.07757312804460526
1772793990455113200,2.55211328125,0.005625242367386818,0.09628649055957794,-0.05813099071383476
1772793990465158000,2.562157958984375,0.009083891287446022,0.0942441076040268,-0.0465756356716156
1772793990475203000,2.572203125,0.008186671882867813,0.08020765334367752,-0.03031863458454609
1772793990485248000,2.582248046875,0.005461724009364843,0.06104174628853798,-0.01642102561891079
1772793990495293200,2.592293212890625,0.009117977693676949,0.04954248666763306,-0.008013160899281502
1772793990505338000,2.602338134765625,0.008043128997087479,0.04202377423644066,-0.004598408006131649
1772793990515383000,2.612383056640625,0.0037967185489833355,0.03761890530586243,-0.005015725269913673
1772793990525428000,2.622427978515625,-0.004179452080279589,0.03560706228017807,-0.01337906438857317
1772793990535473200,2.63247314453125,-0.0073422216810286045,0.040086500346660614,-0.03423374891281128
1772793990545518000,2.64251806640625,-0.010081549175083637,0.04462069272994995,-0.055399417877197266
1772793990555563000,2.65256298828125,-0.007918530143797398,0.04642524942755699,-0.08000276982784271
1772793990565608000,2.66260791015625,-0.006456454284489155,0.04246086627244949,-0.09838736802339554
1772793990575653000,2.672653076171875,-0.008496435359120369,0.027414273470640182,-0.1150856539607048
1772793990585698000,2.682697998046875,-0.014561783522367477,0.012063427828252316,-0.12642063200473785
1772793990595743200,2.6927431640625,-0.018989820033311844,-0.0020515932701528072,-0.12471407651901245
1772793990605788000,2.702787841796875,-0.02493452839553356,-0.007842636667191982,-0.1240975558757782
1772793990615833000,2.7128330078125,-0.02667463757097721,-0.01171087846159935,-0.11706548184156418
1772793990625878000,2.7228779296875,-0.027592897415161133,-0.013941207900643349,-0.102757528424263
1772793990635923200,2.732923095703125,-0.0319647416472435,-0.008527001366019249,-0.08807871490716934
1772793990645967000,2.742967041015625,-0.030977508053183556,-0.011339367367327213,-0.06921247392892838
1772793990656012000,2.753011962890625,-0.03540021926164627,-0.017219360917806625,-0.04750504344701767
1772793990666057200,2.76305712890625,-0.036206360906362534,-0.010769437998533249,-0.029595933854579926
1772793990676102100,2.77310205078125,-0.03980562090873718,-0.0014475751668214798,-0.019498558714985847
1772793990686147000,2.78314697265625,-0.032122403383255005,0.007869214750826359,-0.012843737378716469
1772793990696192000,2.79319189453125,-0.032543715089559555,0.007753366604447365,-0.00978456437587738
1772793990706237200,2.8032373046875,-0.034403398633003235,0.003473625984042883,-0.010711160488426685
1772793990716282000,2.8132822265625,-0.03294159099459648,0.010708369314670563,-0.012595878913998604
1772793990726327300,2.823327392578125,-0.028373470529913902,0.022598043084144592,-0.015216530300676823
1772793990736372000,2.8333720703125,-0.0286637544631958,0.024774378165602684,-0.018309257924556732
1772793990746417200,2.843417236328125,-0.02168414182960987,0.02356616035103798,-0.021790791302919388
1772793990756462000,2.853462158203125,-0.017505375668406487,0.01755087822675705,-0.02740686573088169
1772793990766507300,2.86350732421875,-0.015285629779100418,0.01245054043829441,-0.0322573147714138
1772793990776552200,2.87355224609375,-0.008877797983586788,0.007299720775336027,-0.04405032470822334
1772793990786597000,2.88359716796875,-0.004476926289498806,-0.004315059632062912,-0.06130914017558098
1772793990796642000,2.89364208984375,0.0004304808098822832,-0.014250781387090683,-0.0694272518157959
1772793990806687200,2.903687255859375,0.00733845354989171,-0.0122489333152771,-0.07320087403059006
1772793990816732200,2.913732177734375,0.011467685922980309,-0.0008695130236446857,-0.07002957910299301
1772793990826777000,2.923777099609375,0.01493645180016756,0.003108086995780468,-0.064310222864151
1772793990836821000,2.933821044921875,0.01809815503656864,-0.00013431115075945854,-0.0584225058555603
1772793990846866200,2.9438662109375,0.018561014905571938,0.0004078410565853119,-0.0534244030714035
1772793990856911000,2.9539111328125,0.019432667642831802,0.006917938124388456,-0.046905517578125
1772793990866956000,2.9639560546875,0.02044466882944107,0.008373308926820755,-0.038416557013988495
1772793990877001000,2.9740009765625,0.021990634500980377,0.010085454210639,-0.030824951827526093
1772793990887046100,2.984046142578125,0.017865395173430443,0.0068457238376140594,-0.025234926491975784
1772793990897091000,2.994091064453125,0.01610957272350788,0.009680659510195255,-0.01846490427851677
1772793990907136300,3.00413623046875,0.015160956420004368,0.010911300778388977,-0.01513467077165842
1772793990917181000,3.014180908203125,0.011789128184318542,0.01015416532754898,-0.012158322148025036
1772793990927226000,3.02422607421875,0.010882588103413582,0.008944561704993248,-0.004028439987450838
1772793990937271000,3.03427099609375,0.009444747120141983,0.0034999949857592583,0.005515797063708305
1772793990947316200,3.044316162109375,0.0029658093117177486,-0.005239967256784439,0.011262631975114346
1772793990957361000,3.05436083984375,-0.002026552567258477,-0.008523644879460335,0.017965275794267654
1772793990967406000,3.064406005859375,-0.009788600727915764,-0.0123848095536232,0.024327317252755165
1772793990977451000,3.074450927734375,-0.01644463837146759,-0.020738879218697548,0.02867812290787697
1772793990987496200,3.08449609375,-0.015203339979052544,-0.024389222264289856,0.027973100543022156
1772793990997541000,3.094541015625,-0.013453110121190548,-0.024005461484193802,0.024965593591332436
1772793991007586000,3.1045859375,-0.0019858060404658318,-0.027252109721302986,0.02585018053650856
1772793991017631000,3.114630859375,0.006108605768531561,-0.02427336387336254,0.021115079522132874
1772793991027676200,3.12467626953125,0.014553222805261612,-0.020328160375356674,0.0281207412481308
1772793991037721000,3.13472119140625,0.022344835102558136,-0.005813134368509054,0.037122227251529694
1772793991047765000,3.144764892578125,0.032932233065366745,0.005622005555778742,0.05162155628204346
1772793991057810200,3.15481005859375,0.03460123389959335,0.007930167019367218,0.06457836925983429
1772793991067855000,3.164855224609375,0.0343431755900383,0.010940063744783401,0.07530920952558517
1772793991077900300,3.174900390625,0.0393962562084198,0.012340886518359184,0.07929356396198273
1772793991087945000,3.184945068359375,0.04034274443984032,0.014727653004229069,0.07663155347108841
1772793991097990100,3.194990234375,0.038223132491111755,0.009834893979132175,0.07249406725168228
1772793991108035000,3.20503515625,0.0335996188223362,-0.0023965141735970974,0.06605285406112671
1772793991118080300,3.215080322265625,0.027526546269655228,-0.0060668825171887875,0.04944591969251633
1772793991128125200,3.225125244140625,0.02724931202828884,-0.003220657119527459,0.025151915848255157
1772793991138170000,3.235170166015625,0.031126875430345535,0.016401248052716255,-0.008869434706866741
1772793991148215000,3.245215087890625,0.04379473254084587,0.046214114874601364,-0.04155021533370018
1772793991158260200,3.25526025390625,0.05518161132931709,0.08323178440332413,-0.08723248541355133
1772793991168305200,3.26530517578125,0.06678713113069534,0.11702031642198563,-0.12146072834730148
1772793991178350000,3.27535009765625,0.07775270193815231,0.1381589025259018,-0.14929795265197754
1772793991188395000,3.28539501953125,0.08937819302082062,0.15445935726165771,-0.17130400240421295
1772793991198440200,3.295440185546875,0.09698577970266342,0.16548989713191986,-0.17830412089824677
1772793991208485000,3.305485107421875,0.10008464008569717,0.174170583486557,-0.18249861896038055
1772793991218530300,3.3155302734375,0.09544594585895538,0.17138785123825073,-0.1745019406080246
1772793991228575000,3.325574951171875,0.0863424614071846,0.1581186056137085,-0.16126364469528198
1772793991238620200,3.3356201171875,0.06743987649679184,0.13884291052818298,-0.13939696550369263
1772793991248665600,3.34566552734375,0.04399127513170242,0.11668780446052551,-0.1176256313920021
1772793991258709500,3.35570947265625,0.030173728242516518,0.08715760707855225,-0.09294717758893967
1772793991268754400,3.36575439453125,0.01605258323252201,0.058625608682632446,-0.07686496526002884
1772793991278799600,3.375799560546875,0.005061184987425804,0.03841967508196831,-0.058837760239839554
1772793991288844500,3.385844482421875,-0.006428757682442665,0.020912641659379005,-0.05318150669336319
1772793991298889500,3.395889404296875,-0.018760791048407555,0.0171570535749197,-0.05743510648608208
1772793991308934400,3.405934326171875,-0.03087497688829899,0.023014459758996964,-0.06808410584926605
1772793991318979600,3.4159794921875,-0.04371168091893196,0.02642516978085041,-0.08015967160463333
1772793991329024500,3.4260244140625,-0.056310828775167465,0.020546725019812584,-0.09976045787334442
1772793991339069700,3.436069580078125,-0.06313704699277878,0.00518907280638814,-0.11017528176307678
1772793991349114400,3.4461142578125,-0.07070494443178177,-0.0008855932392179966,-0.11927738040685654
1772793991359159600,3.45615966796875,-0.07237208634614944,-0.0044177439995110035,-0.12612837553024292
1772793991369204500,3.46620458984375,-0.0680718794465065,0.007589129265397787,-0.14647290110588074
1772793991379249700,3.476249755859375,-0.0657072588801384,0.01923752948641777,-0.16529878973960876
1772793991389294600,3.486294677734375,-0.05194617435336113,0.030382314696907997,-0.19135664403438568
1772793991399339500,3.496339599609375,-0.03431045636534691,0.047563694417476654,-0.21958987414836884
1772793991409384400,3.506384521484375,-0.016099493950605392,0.05288096144795418,-0.24965114891529083
1772793991419429600,3.5164296875,-0.0014904579147696495,0.05326978117227554,-0.27588462829589844
1772793991429474600,3.526474609375,0.00700662424787879,0.04633272439241409,-0.29441139101982117
1772793991439519500,3.53651953125,0.009672182612121105,0.03706812113523483,-0.30781111121177673
1772793991449564400,3.546564453125,0.01051240973174572,0.02675822377204895,-0.3099443018436432
1772793991459609600,3.556609619140625,0.012475425377488136,0.024998676031827927,-0.31174591183662415
1772793991469654500,3.566654541015625,0.011689792387187481,0.01830536499619484,-0.30420902371406555
1772793991479698400,3.576698486328125,0.013988099992275238,0.02132299356162548,-0.29067936539649963
1772793991489743400,3.586743408203125,0.011491919867694378,0.018798844888806343,-0.26722097396850586
1772793991499788500,3.59678857421875,0.010344363749027252,0.016287749633193016,-0.2331295758485794
1772793991509833500,3.60683349609375,-0.0016103002708405256,0.02152181789278984,-0.1947682648897171
1772793991519878400,3.61687841796875,-0.013386532664299011,0.027461998164653778,-0.15127219259738922
1772793991529923300,3.62692333984375,-0.015980983152985573,0.024603787809610367,-0.10960398614406586
1772793991539968500,3.636968505859375,-0.011648020707070827,0.015688855201005936,-0.07719917595386505
1772793991550013400,3.647013427734375,-0.002439076080918312,0.00657312199473381,-0.04835314303636551
1772793991560058600,3.65705859375,0.004954125732183456,0.004399073775857687,-0.019236471503973007
1772793991570103300,3.667103271484375,0.0031508991960436106,0.007440775167196989,0.013057702220976353
1772793991580148500,3.6771484375,-0.006461780518293381,0.012302909046411514,0.0375334806740284
1772793991590193400,3.687193359375,-0.06915738433599472,0.024942860007286072,0.0535382479429245
1772793991600238600,3.697238525390625,0.04156992956995964,0.014558660797774792,0.05946218594908714
1772793991610283500,3.707283447265625,-0.07383709400892258,0.01684754714369774,0.0522606335580349
1772793991620328400,3.717328369140625,0.05725701153278351,0.017066458240151405,0.04483760520815849
1772793991630373400,3.727373291015625,-0.061659786850214005,0.02588786371052265,0.03027951717376709
1772793991640418600,3.73741845703125,0.07837534695863724,0.030114034190773964,0.019296109676361084
1772793991650463500,3.74746337890625,-0.04497028887271881,0.04525601118803024,0.012000726535916328
1772793991660508400,3.75750830078125,0.09075957536697388,0.04933597147464752,-0.0006503539625555277
1772793991670553300,3.76755322265625,-0.047403618693351746,0.040590956807136536,-0.01583346724510193
1772793991680598500,3.7775986328125,0.09190287441015244,0.023933952674269676,-0.02312173880636692
1772793991690642700,3.787642578125,-0.060575347393751144,0.006345735397189856,-0.04140828549861908
1772793991700687400,3.797687255859375,0.08257701247930527,-0.0006170994602143764,-0.052095018327236176
1772793991710732500,3.807732666015625,-0.07515881955623627,-0.0008124113082885742,-0.07638660818338394
1772793991720777500,3.817777587890625,0.06253060698509216,-0.010148122906684875,-0.0962042510509491
1772793991730822700,3.82782275390625,-0.10642166435718536,-0.002355877310037613,-0.12036328762769699
1772793991740867600,3.83786767578125,0.0436655692756176,-0.0021441560238599777,-0.13888850808143616
1772793991750912500,3.84791259765625,-0.10962624847888947,0.005115359090268612,-0.15458938479423523
1772793991760957400,3.85795751953125,0.049955423921346664,0.006450934335589409,-0.1638510525226593
1772793991771002600,3.868002685546875,-0.0973685160279274,0.022629164159297943,-0.1743289828300476
1772793991781047600,3.878047607421875,0.07195739448070526,0.04137888178229332,-0.1791498363018036
1772793991791092500,3.888092529296875,-0.07260297983884811,0.061488088220357895,-0.17519637942314148
1772793991801137400,3.898137451171875,0.09229888767004013,0.0685127004981041,-0.16700637340545654
1772793991811182600,3.9081826171875,-0.04907688498497009,0.06553541123867035,-0.1484164595603943
1772793991821227500,3.9182275390625,0.12073878198862076,0.06627816706895828,-0.1195046529173851
1772793991831272700,3.928272705078125,-0.03195062652230263,0.05078016221523285,-0.0847751647233963
1772793991841317400,3.9383173828125,0.11169255524873734,0.03809579089283943,-0.049123428761959076
1772793991851362600,3.948362548828125,-0.04552476108074188,0.04058769717812538,-0.011333375237882137
1772793991861407500,3.958407470703125,0.09687872231006622,0.028750479221343994,0.016764037311077118
1772793991871452700,3.96845263671875,-0.043858952820301056,0.016745755448937416,0.03888382390141487
1772793991881497600,3.97849755859375,0.10136774927377701,0.017934590578079224,0.05516692250967026
1772793991891541500,3.98854150390625,-0.0370899960398674,0.028405018150806427,0.07071156054735184
1772793991901586400,3.99858642578125,0.09453967213630676,0.03461790829896927,0.0753348097205162
1772793991911631600,4.008631591796875,-0.05037331208586693,0.04699478670954704,0.08298514783382416
1772793991921676300,4.01867626953125,0.07583389431238174,0.043092723935842514,0.074953593313694
1772793991931721500,4.028721435546875,-0.05091499909758568,0.04350152239203453,0.06564110517501831
1772793991941766400,4.038766357421875,0.06839728355407715,0.04624883830547333,0.049535103142261505
1772793991951811600,4.0488115234375,-0.05345538631081581,0.040021564811468124,0.04882239177823067
1772793991961856500,4.0588564453125,0.03797492757439613,0.03391307219862938,0.03511456772685051
1772793991971900400,4.068900390625,-0.008757158182561398,0.030951211228966713,0.026680219918489456
1772793991981945600,4.078945556640625,-0.002299259416759014,0.03338827192783356,0.01593915931880474
1772793991991990500,4.088990478515625,0.0018219818593934178,0.0209638848900795,0.005216490477323532
1772793992002035700,4.09903564453125,0.01047858688980341,0.0088206697255373,-0.0017258378211408854
1772793992012080400,4.109080322265625,0.018590308725833893,0.001633655745536089,-0.01184423454105854
1772793992022125600,4.11912548828125,0.02615208923816681,-0.007467697374522686,-0.024853508919477463
1772793992032170500,4.12917041015625,0.028156917542219162,-0.010248683393001556,-0.03784839063882828
1772793992042215700,4.139215576171875,0.02747621387243271,-0.00392394233494997,-0.04617982357740402
1772793992052260400,4.14926025390625,0.022037772461771965,0.005033654160797596,-0.05296345800161362
1772793992062305500,4.159305419921875,0.023122211918234825,0.00833757221698761,-0.05461888015270233
1772793992072350500,4.1693505859375,0.020182613283395767,0.010041562840342522,-0.05690909922122955
1772793992082395600,4.179395751953125,0.02098715491592884,0.012781955301761627,-0.0494794100522995
1772793992092440600,4.189440673828125,0.022531788796186447,0.010924240574240685,-0.040586166083812714
1772793992102485500,4.199485595703125,0.02176160179078579,0.01318739540874958,-0.027135606855154037
1772793992112530400,4.209530517578125,0.016449129208922386,0.018320905044674873,-0.015861913561820984
1772793992122575600,4.21957568359375,0.010910551063716412,0.027859076857566833,-0.00047681527212262154
1772793992132620500,4.22962060546875,0.008275886066257954,0.032429907470941544,0.01342107355594635
1772793992142665500,4.23966552734375,0.0037005755584686995,0.030880216509103775,0.030059969052672386
1772793992152710400,4.24971044921875,0.006988514214754105,0.033475201576948166,0.041495054960250854
1772793992162754600,4.259754638671875,0.01204186212271452,0.032442159950733185,0.05163264274597168
1772793992172799500,4.269799560546875,0.009868988767266273,0.0242706760764122,0.0504913255572319
1772793992182844400,4.279844482421875,0.004789808765053749,0.02487308531999588,0.053572073578834534
1772793992192889300,4.289889404296875,0.004030008800327778,0.03427192568778992,0.046432822942733765
1772793992202934500,4.2999345703125,0.0027442346327006817,0.037330031394958496,0.03923829272389412
1772793992212979500,4.3099794921875,0.007089449092745781,0.03662821650505066,0.027955109253525734
1772793992223024600,4.320024658203125,0.010958222672343254,0.03864103555679321,0.01510801911354065
1772793992233070600,4.330070556640625,0.01862785965204239,0.027874521911144257,0.010433089919388294
1772793992243115800,4.34011572265625,0.024695074185729027,-0.0014072004705667496,0.003103538416326046
1772793992253160700,4.35016064453125,0.02188117802143097,-0.0065633514896035194,-0.0048620267771184444
1772793992263206000,4.360205810546875,0.018625464290380478,0.013685462065041065,0.0036949762143194675
1772793992273250800,4.370250732421875,0.0013063937658444047,0.026306986808776855,0.007354209665209055
1772793992283295700,4.380295654296875,-0.006243934389203787,0.011924050748348236,0.013399318791925907
1772793992293340700,4.390340576171875,-0.004055880941450596,-0.0008487356826663017,0.017506446689367294
1772793992303385900,4.4003857421875,0.00286887027323246,-0.013790367171168327,0.01916373148560524
1772793992313430800,4.4104306640625,0.004158905707299709,-0.024620061740279198,0.010267890989780426
1772793992323475700,4.420475830078125,0.003965826705098152,-0.029955970123410225,0.006002039648592472
1772793992333520600,4.430520751953125,0.004530150908976793,-0.021002214401960373,0.0038613732904195786
1772793992343565800,4.44056591796875,0.0018422227585688233,-0.013307277113199234,-0.0019491113489493728
1772793992353610800,4.45061083984375,-0.003015117719769478,-0.01668436825275421,-0.004979720804840326
1772793992363655700,4.46065576171875,-0.006706791464239359,-0.015680890530347824,-0.004834845196455717
1772793992373700600,4.47070068359375,-0.008854897692799568,-0.013738756999373436,-0.0011356482282280922
1772793992383745800,4.480745849609375,-0.012923408299684525,-0.016666103154420853,0.0014577379915863276
1772793992393790700,4.490790771484375,-0.015344487503170967,-0.01475523877888918,0.0033433884382247925
1772793992403835000,4.5008349609375,-0.014299196191132069,-0.012229762971401215,0.0029039671644568443
1772793992413879600,4.510879638671875,-0.013479743152856827,-0.013446607626974583,0.001756544690579176
1772793992423924700,4.5209248046875,-0.01717487722635269,-0.013862326741218567,0.009023779071867466
1772793992433969700,4.5309697265625,-0.028579331934452057,-0.005169980693608522,0.01519402302801609
1772793992444014800,4.541014892578125,-0.032959435135126114,-0.006368669681251049,0.02350708097219467
1772793992454059500,4.5510595703125,-0.039310272783041,-0.01040053553879261,0.02686171606183052
1772793992464104700,4.561104736328125,-0.04248662665486336,-0.010588021948933601,0.026288602501153946
1772793992474149600,4.571149658203125,-0.040972352027893066,-0.007022644393146038,0.026897333562374115
1772793992484194800,4.58119482421875,-0.04239368066191673,-0.009915104135870934,0.023272240534424782
1772793992494239700,4.59123974609375,-0.04005755856633186,-0.012209950014948845,0.01639009825885296
1772793992504284700,4.60128466796875,-0.0382055938243866,-0.009658641181886196,0.006166222505271435
1772793992514329600,4.61132958984375,-0.03185928240418434,-0.0026387565303593874,-0.004474153742194176
1772793992524374800,4.621374755859375,-0.02576304040849209,0.018335500732064247,-0.017420312389731407
1772793992534419700,4.631419677734375,-0.01818900927901268,0.0262032188475132,-0.029682055115699768
1772793992544465000,4.64146484375,-0.016757028177380562,0.02012801542878151,-0.03654821962118149
1772793992554509600,4.651509521484375,-0.018456125631928444,0.009645023383200169,-0.04262039065361023
1772793992564554800,4.6615546875,-0.019845228642225266,-0.0032806291710585356,-0.05413510277867317
1772793992574599700,4.671599609375,-0.021647658199071884,-0.014511598274111748,-0.047445520758628845
1772793992584643600,4.6816435546875,-0.029948998242616653,-0.010440956801176071,-0.04204623028635979
1772793992594688800,4.691688720703125,-0.037362705916166306,-0.007757516577839851,-0.03480532765388489
1772793992604733700,4.701733642578125,-0.03299085795879364,-0.006158288102596998,-0.02621184103190899
1772793992614779000,4.71177880859375,-0.024072464555501938,0.0013944958336651325,-0.023578491061925888
1772793992624823800,4.72182373046875,-0.010418439283967018,0.003454717341810465,-0.019589075818657875
1772793992634868700,4.73186865234375,-0.002755726221948862,0.0025077015161514282,-0.016042226925492287
1772793992644913700,4.74191357421875,0.0017913550836965442,0.00242753978818655,-0.014839009381830692
1772793992654958800,4.751958740234375,0.007796517573297024,-0.00025265803560614586,-0.007969018071889877
1772793992665003800,4.762003662109375,0.011723614297807217,-0.0023845182731747627,-0.0019809002988040447
1772793992675048700,4.772048583984375,0.013908205553889275,-0.0062216040678322315,0.0013661097036674619
1772793992685093600,4.78209375,0.022387444972991943,-0.006136116571724415,0.012535140849649906
1772793992695138800,4.792138916015625,0.02934495359659195,0.0011339439079165459,0.020298687741160393
1772793992705183700,4.802183837890625,0.03223235160112381,0.0022090617567300797,0.026634881272912025
1772793992715228700,4.812228759765625,0.035165026783943176,-0.0023919320665299892,0.029491087421774864
1772793992725273600,4.822273681640625,0.04085380211472511,0.00017988216131925583,0.030525727197527885
1772793992735318800,4.83231884765625,0.042435988783836365,0.002920650877058506,0.026382844895124435
1772793992745363700,4.84236376953125,0.04992453008890152,0.013979428447782993,0.01762370951473713
1772793992755408000,4.852407958984375,0.05564526841044426,0.019833799451589584,0.01163109764456749
1772793992765452500,4.86245263671875,0.0651322454214096,0.02593190409243107,0.007014773786067963
1772793992775497700,4.872497802734375,0.070958711206913,0.037711966782808304,0.004795610439032316
1772793992785542700,4.882542724609375,0.07112196087837219,0.041207898408174515,0.008153056725859642
1772793992795587800,4.892587890625,0.0684548020362854,0.04649694636464119,0.01742447167634964
1772793992805632800,4.9026328125,0.0675187036395073,0.04410329461097717,0.024480782449245453
1772793992815677700,4.912677734375,0.06997600197792053,0.0413440465927124,0.03802873194217682
1772793992825722600,4.92272265625,0.06722282618284225,0.03927743062376976,0.050571952015161514
1772793992835767800,4.932767822265625,0.06569390743970871,0.03424981236457825,0.06435712426900864
1772793992845812700,4.942812744140625,0.058203231543302536,0.025494936853647232,0.06848182529211044
1772793992855857700,4.952857666015625,0.05112215504050255,0.01716904155910015,0.07193731516599655
1772793992865902600,4.962902587890625,0.04312467947602272,0.009429894387722015,0.06918973475694656
1772793992875947800,4.97294775390625,0.036120567470788956,0.0013497630134224892,0.05893273279070854
1772793992885992700,4.98299267578125,0.028064239770174026,-0.00350358197465539,0.047573819756507874
1772793992896038000,4.993037841796875,0.02405324950814247,0.0019703852012753487,0.03213668614625931
1772793992906082600,5.00308251953125,0.02031097561120987,0.008371825329959393,0.017881587147712708
1772793992916127700,5.013127685546875,0.01502886414527893,0.005537433084100485,0.004139561206102371
1772793992926172000,5.023171875,0.012573963031172752,-0.007662258110940456,-0.0029772038105875254
1772793992936216800,5.033216796875,0.008131543174386024,-0.012568928301334381,-0.001626251032575965
1772793992946261800,5.04326171875,0.0006832138169556856,-0.016066189855337143,-0.0011415557237342
1772793992956306700,5.053306640625,-0.00876967515796423,-0.015324437990784645,0.007352665066719055
1772793992966352000,5.063351806640625,-0.015738636255264282,-0.021885136142373085,0.009419011883437634
1772793992976396800,5.073396728515625,-0.019132034853100777,-0.032632872462272644,0.012634309940040112
1772793992986441700,5.083441650390625,-0.01657220534980297,-0.03731843829154968,0.014150979928672314
1772793992996486700,5.093486572265625,-0.020930467173457146,-0.0316358283162117,0.015181541442871094
1772793993006531800,5.10353173828125,-0.02546476572751999,-0.036293428391218185,0.014024664647877216
1772793993016576800,5.11357666015625,-0.02643335796892643,-0.03324422612786293,0.008557958528399467
1772793993026621700,5.12362158203125,-0.029575355350971222,-0.03268495947122574,0.00881708413362503
1772793993036666600,5.13366650390625,-0.029671764001250267,-0.03323112055659294,0.006060679443180561
1772793993046711800,5.1437119140625,-0.028560426086187363,-0.024041086435317993,0.005885443650186062
1772793993056756700,5.1537568359375,-0.026180358603596687,-0.015651380643248558,0.003982432186603546
1772793993066801700,5.1638017578125,-0.023389365524053574,-0.017788033932447433,0.0003506795037537813
1772793993076846600,5.1738466796875,-0.017083266749978065,-0.019715046510100365,-0.00021825532894581556
1772793993086890800,5.183890869140625,-0.010483420453965664,-0.01596318557858467,0.004816717002540827
1772793993096935700,5.193935791015625,-0.001827347674407065,-0.012100273743271828,0.0037125200033187866
1772793993106980900,5.20398095703125,0.0014733741991221905,-0.007700731977820396,0.006784476339817047
1772793993117025500,5.214025634765625,0.005971719045192003,-0.0068851038813591,0.013631680980324745
1772793993127070700,5.22407080078125,0.009750478900969028,0.0007251454517245293,0.01534196361899376
1772793993137115600,5.23411572265625,0.011633866466581821,0.0007833507843315601,0.02156946435570717
1772793993147160800,5.244160888671875,0.011337989941239357,0.00009039603173732758,0.029248956590890884
1772793993157205800,5.254205810546875,0.011410959996283054,0.0038531762547791004,0.03578302264213562
1772793993167250700,5.264250732421875,0.012372627854347229,0.004747465718537569,0.04100281745195389
1772793993177295600,5.274295654296875,0.013710333034396172,0.004330850671976805,0.039720721542835236
1772793993187340800,5.2843408203125,0.012335342355072498,0.0045929052866995335,0.039054930210113525
1772793993197385700,5.2943857421875,0.010526524856686592,0.006076277233660221,0.03696238622069359
1772793993207430700,5.3044306640625,0.003281927201896906,0.01323751825839281,0.03643188253045082
1772793993217475600,5.3144755859375,0.0024129371158778667,0.005787708796560764,0.033657703548669815
1772793993227520800,5.324520751953125,0.0048907422460615635,-0.00212028156965971,0.03474826738238335
1772793993237565000,5.33456494140625,0.005867323372513056,-0.009018664248287678,0.02937113121151924
1772793993247609300,5.344609375,0.006620465312153101,0.0010368991643190384,0.02917378954589367
1772793993257654500,5.354654541015625,0.007950181141495705,0.00623378437012434,0.026312921196222305
1772793993267699500,5.364699462890625,0.008338204585015774,0.00367715023458004,0.026139283552765846
1772793993277744600,5.37474462890625,0.007935267873108387,0.024713881313800812,0.024075398221611977
1772793993287789300,5.384789306640625,0.009969656355679035,0.01550307311117649,0.019719798117876053
1772793993297834500,5.39483447265625,0.006025781389325857,0.006476668640971184,0.010614702478051186
1772793993307879400,5.40487939453125,0.008366700261831284,0.0020017586648464203,0.0028822142630815506
1772793993317924600,5.414924560546875,0.013964131474494934,-0.007710898760706186,-0.005895232316106558
1772793993327969500,5.424969482421875,0.018886450678110123,-0.005558798089623451,-0.008679833263158798
1772793993338014500,5.435014404296875,0.023102503269910812,0.006996254902333021,-0.005869414657354355
1772793993348059400,5.445059326171875,0.020541874691843987,0.01752666011452675,-0.004726652521640062
1772793993358104600,5.4551044921875,0.016569234430789948,0.022103771567344666,0.0010273050284013152
1772793993368149500,5.4651494140625,0.01474710088223219,0.022905383259058,0.0012667231494560838
1772793993378194700,5.475194580078125,0.007779472507536411,0.019210992380976677,0.0009333285270258784
1772793993388239400,5.4852392578125,0.008472161367535591,0.018309246748685837,0.0018491895170882344
1772793993398283500,5.495283447265625,0.0024302476085722446,0.019755296409130096,-0.004713503643870354
1772793993408328400,5.505328369140625,-0.0009391838684678078,0.021852800622582436,-0.01709640398621559
1772793993418373400,5.515373291015625,0.004858518950641155,0.027116205543279648,-0.018723979592323303
1772793993428418300,5.525418212890625,0.005193544551730156,0.03188406303524971,-0.028486063703894615
1772793993438463500,5.53546337890625,0.011357695795595646,0.031355977058410645,-0.030882390215992928
1772793993448508400,5.54550830078125,0.015334594063460827,0.0325956791639328,-0.03178226947784424
1772793993458553600,5.5555537109375,0.01887579821050167,0.03401375561952591,-0.02618272602558136
1772793993468598300,5.565598388671875,0.01641344092786312,0.026772351935505867,-0.019822033122181892
1772793993478643500,5.5756435546875,0.012401921674609184,0.017978161573410034,-0.00955203641206026
1772793993488688400,5.5856884765625,0.007666821591556072,0.010792684741318226,-0.005256623961031437
1772793993498733600,5.595733642578125,0.006672929506748915,0.0060192435048520565,-0.004635473247617483
1772793993508778500,5.605778564453125,0.0035684825852513313,0.0025107949040830135,-0.006221918389201164
1772793993518823400,5.615823486328125,0.0016597957583144307,-0.0011547920294106007,-0.010872215032577515
1772793993528868400,5.625868408203125,-0.0001231906353496015,0.00661178445443511,-0.019243596121668816
1772793993538912500,5.63591259765625,0.006553353741765022,0.010113587602972984,-0.026666739955544472
1772793993548957400,5.64595751953125,0.011998984962701797,0.011521600186824799,-0.033064983785152435
1772793993559002400,5.65600244140625,0.019094180315732956,0.009354786016047001,-0.03683214262127876
1772793993569047600,5.666047607421875,0.016935154795646667,0.011444301344454288,-0.03790832683444023
1772793993579092500,5.676092529296875,0.016322625800967216,0.009641886688768864,-0.03301195427775383
1772793993589137700,5.6861376953125,0.0124362763017416,0.007981671951711178,-0.02458038553595543
1772793993599182300,5.696182373046875,0.007764826528728008,0.009281388483941555,-0.013654503971338272
1772793993609227500,5.7062275390625,0.007765092886984348,0.010556775145232677,-0.010622227564454079
1772793993619272400,5.7162724609375,0.006301418412476778,0.010333132930099964,-0.002151177730411291
1772793993629317600,5.726317626953125,0.004136534873396158,0.012138224206864834,0.0015916289994493127
1772793993639362600,5.736362548828125,0.004670232534408569,0.006308353506028652,0.0036803127732127905
1772793993649407500,5.746407470703125,0.009724113158881664,0.0032523758709430695,0.004289910197257996
1772793993659452400,5.756452392578125,0.01465974934399128,0.0025161681696772575,0.006006916984915733
1772793993669497600,5.76649755859375,0.014487975277006626,0.00941801629960537,0.0056130350567400455
1772793993679542500,5.77654248046875,0.014730056747794151,0.012999013066291809,0.003825721563771367
1772793993689586400,5.78658642578125,0.013931374996900558,0.015073616057634354,0.004668878391385078
1772793993699631400,5.79663134765625,0.014245095662772655,0.01513688825070858,-0.0008254230488091707
1772793993709676500,5.806676513671875,0.011965163052082062,0.007419314235448837,-0.005477698985487223
1772793993719721500,5.816721435546875,0.00939521286636591,-0.00009607570245862007,-0.011648326180875301
1772793993729766400,5.826766357421875,0.00771049689501524,0.007892875000834465,-0.01450296863913536
1772793993739811300,5.836811279296875,0.003750376868993044,0.008155673742294312,-0.013223021291196346
1772793993749856500,5.8468564453125,0.005545081105083227,0.006027009338140488,-0.013017158955335617
1772793993759901400,5.8569013671875,0.0028057536110281944,0.004488399252295494,-0.008990824222564697
1772793993769946600,5.866946533203125,0.0030060233548283577,-0.00009170500561594963,-0.006433124653995037
1772793993779991300,5.8769912109375,0.0032880520448088646,0.004036895930767059,-0.006588435266166925
1772793993790036500,5.887036376953125,0.004203646443784237,-0.0013552065938711166,-0.005498935934156179
1772793993800081400,5.897081298828125,0.0056609283201396465,-0.0011652251705527306,-0.002094835042953491
1772793993810126600,5.907126708984375,-0.00015008897753432393,0.004984280094504356,-0.004398469813168049
1772793993820171300,5.917171142578125,-0.0025048551615327597,-0.0035221311263740063,-0.010111050680279732
1772793993830215400,5.92721533203125,-0.009111358784139156,-0.009255384095013142,-0.011377650313079357
1772793993840260600,5.937260498046875,-0.01145254448056221,-0.010109024122357368,-0.01618284173309803
1772793993850305500,5.947305419921875,-0.006753929425030947,-0.005459411535412073,-0.02092619799077511
1772793993860350500,5.9573505859375,-0.006643674336373806,0.0012982459738850594,-0.022566955536603928
1772793993870395400,5.9673955078125,-0.004151754546910524,0.004179786425083876,-0.023685747757554054
1772793993880440600,5.977440673828125,-0.0030286989640444517,0.002784234471619129,-0.02659681625664234
1772793993890485500,5.987485595703125,-0.007638364564627409,0.00309156347066164,-0.018139149993658066
1772793993900530700,5.99753076171875,-0.013123144395649433,0.00028256699442863464,-0.01682339794933796
1772793993910575400,6.007575439453125,-0.01927264966070652,-0.003673558821901679,-0.013765556737780571
1772793993920620500,6.01762060546875,-0.01716875284910202,-0.008478950709104538,-0.008245421573519707
1772793993930665500,6.02766552734375,-0.01970328390598297,-0.011244377121329308,-0.009415880776941776
1772793993940710700,6.037710693359375,-0.018993819132447243,-0.014555379748344421,-0.017788974568247795
1772793993950755300,6.04775537109375,-0.016418542712926865,-0.013410219922661781,-0.02703520469367504
1772793993960800500,6.057800537109375,-0.022260982543230057,-0.009897299110889435,-0.03317801654338837
1772793993970845400,6.067845458984375,-0.020750172436237335,-0.004072699695825577,-0.041478823870420456
1772793993980889600,6.0778896484375,-0.0230623297393322,-0.004212731029838324,-0.04612106457352638
1772793993990934300,6.087934326171875,-0.023556876927614212,-0.006728352978825569,-0.047638799995183945
1772793994000979500,6.0979794921875,-0.021160833537578583,-0.004824616014957428,-0.043613500893116
1772793994011024400,6.1080244140625,-0.020824475213885307,-0.009085141122341156,-0.03305539861321449
1772793994021069600,6.118069580078125,-0.020144568756222725,-0.009964524768292904,-0.02167394571006298
1772793994031114500,6.128114501953125,-0.022146733477711678,-0.001660522073507309,-0.012822664342820644
1772793994041159400,6.138159423828125,-0.024298835545778275,-0.004012778401374817,-0.007468394469469786
1772793994051204400,6.148204345703125,-0.024466615170240402,-0.005139561835676432,-0.0018808161839842796
1772793994061249500,6.15824951171875,-0.017150375992059708,-0.01112934947013855,-0.0057710641995072365
1772793994071294500,6.16829443359375,-0.015366856940090656,-0.009515207260847092,-0.009830255061388016
1772793994081339400,6.17833935546875,-0.015253141522407532,-0.005139295477420092,-0.015099949203431606
1772793994091384300,6.18838427734375,-0.01800898090004921,0.005310682114213705,-0.023884117603302002
1772793994101429500,6.198429443359375,-0.02012220025062561,0.010294628329575062,-0.03042309544980526
1772793994111474400,6.208474365234375,-0.01981300674378872,0.012240332551300526,-0.038156118243932724
1772793994121518300,6.218518310546875,-0.01861804537475109,0.009963905438780785,-0.042225874960422516
1772793994131563500,6.2285634765625,-0.011645622551441193,0.006028285715728998,-0.044078901410102844
1772793994141608400,6.2386083984375,-0.008710820227861404,0.00322031881660223,-0.04203396290540695
1772793994151653600,6.248653564453125,-0.010700467973947525,0.012001294642686844,-0.0358988381922245
1772793994161698600,6.258698486328125,-0.010965718887746334,0.017570598050951958,-0.03336873650550842
1772793994171743500,6.268743408203125,-0.012332453392446041,0.019971704110503197,-0.033502425998449326
1772793994181788400,6.278788330078125,-0.01245069783180952,0.02039269357919693,-0.040037307888269424
1772793994191833600,6.28883349609375,-0.011622720398008823,0.017162542790174484,-0.045763902366161346
1772793994201878500,6.29887841796875,-0.010212576948106289,0.014784928411245346,-0.0490095280110836
1772793994211923500,6.30892333984375,-0.011884775944054127,0.017438769340515137,-0.05519898235797882
1772793994221968400,6.318968505859375,-0.010773705318570137,0.016988754272460938,-0.05652948096394539
1772793994232013600,6.329013671875,-0.006793344393372536,0.027192920446395874,-0.05823390185832977
1772793994242058500,6.33905859375,-0.003867062972858548,0.025938306003808975,-0.05564717575907707
1772793994252103700,6.349103759765625,-0.0030318957287818193,0.021354738622903824,-0.05095255374908447
1772793994262147300,6.359147216796875,-0.0012086958158761263,0.01508011668920517,-0.04879041761159897
1772793994272192500,6.369192626953125,-0.0036793104372918606,0.012640394270420074,-0.04415332153439522
1772793994282237400,6.379237548828125,-0.003920858725905418,0.007097071968019009,-0.041992563754320145
1772793994292282600,6.38928271484375,-0.007709471974521875,0.004049350507557392,-0.03686624765396118
1772793994302327300,6.399327392578125,-0.0036761146038770676,0.007822468876838684,-0.03135310485959053
1772793994312372500,6.40937255859375,-0.0008779311319813132,0.016549116000533104,-0.022054944187402725
1772793994322417400,6.41941748046875,-0.0007117498898878694,0.01768127642571926,-0.015167559497058392
1772793994332462600,6.429462646484375,-0.0014864634722471237,0.011576779186725616,-0.007993803359568119
1772793994342507300,6.43950732421875,0.001398538937792182,0.002292039804160595,-0.004978422541171312
1772793994352552400,6.449552490234375,0.0019069365225732327,-0.0036073944065719843,-0.0036974421236664057
1772793994362597400,6.459597412109375,0.006216997280716896,-0.0008861660026013851,-0.00212549208663404
1772793994372642600,6.469642578125,0.0019356992561370134,-0.0004419507458806038,-0.006429959554225206
1772793994382687500,6.4796875,0.004625224974006414,0.003606050740927458,-0.00699646444991231
1772793994392732400,6.489732421875,0.00816536508500576,0.005660413298755884,-0.004578314255923033
1772793994402776600,6.499776611328125,0.009241015650331974,0.004238226916640997,-0.0034717884846031666
1772793994412821500,6.509821533203125,0.008174419403076172,0.0035918778739869595,0.0007421310292556882
1772793994422866400,6.519866455078125,0.004818836692720652,0.008388234302401543,0.005134000908583403
1772793994432911400,6.529911376953125,0.003912030253559351,0.006789539009332657,0.013383142650127411
1772793994442956500,6.53995654296875,0.004697130527347326,0.005930712446570396,0.017521776258945465
1772793994453001500,6.55000146484375,0.003370875958353281,0.008100123144686222,0.023434793576598167
1772793994463046700,6.560046630859375,0.00603004265576601,0.011948395520448685,0.019694967195391655
1772793994473091300,6.57009130859375,0.0012432767543941736,0.014172933995723724,0.019649958238005638
1772793994483136500,6.580136474609375,-0.0011285343207418919,0.013537926599383354,0.014086147770285606
1772793994493181400,6.590181396484375,-0.005987738259136677,0.010633749887347221,0.008444773964583874
1772793994503226600,6.6002265625,-0.008006947115063667,0.001324936281889677,-0.002498687244951725
1772793994513271600,6.610271484375,-0.014504527673125267,0.0015041669830679893,-0.005895815324038267
1772793994523316500,6.62031640625,-0.018050260841846466,-0.0027038895059376955,-0.022196441888809204
1772793994533361400,6.630361328125,-0.017192989587783813,0.0014559682458639145,-0.0339771993458271
1772793994543405600,6.640405517578125,-0.01801004633307457,0.0031130420975387096,-0.046464260667562485
1772793994553450200,6.6504501953125,-0.019178640097379684,0.003162309993058443,-0.05252401903271675
1772793994563495400,6.660495361328125,-0.01470160111784935,0.005639688111841679,-0.05154569447040558
1772793994573540400,6.670540283203125,-0.012806762009859085,-0.0009532333351671696,-0.04889930784702301
1772793994583585500,6.68058544921875,-0.011751617304980755,-0.0022606845013797283,-0.045509252697229385
1772793994593630500,6.69063037109375,-0.007736902218312025,-0.004637289792299271,-0.04035364091396332
1772793994603675400,6.70067529296875,-0.007280969060957432,-0.006322863046079874,-0.03241557255387306
1772793994613720300,6.71072021484375,-0.00405002199113369,0.01844693161547184,-0.03125683218240738
1772793994623765500,6.720765625,-0.002159177791327238,0.03096960112452507,-0.027598580345511436
1772793994633810400,6.730810546875,-0.012154021300375462,0.012163156643509865,-0.03320080414414406
1772793994643855600,6.740855712890625,-0.005506238434463739,0.005909893196076155,-0.03000779077410698
1772793994653900300,6.750900390625,0.007866824977099895,0.004302409943193197,-0.029334543272852898
1772793994663945500,6.760945556640625,0.014356948435306549,0.009644757024943829,-0.019666871055960655
1772793994673990400,6.770990478515625,0.01295133214443922,0.021434571593999863,-0.0032865668181329966
1772793994684034300,6.781034423828125,0.01327463984489441,0.030635368078947067,0.012707729823887348
1772793994694079500,6.79107958984375,0.012915379367768764,0.030742958188056946,0.024101797491312027
1772793994704124400,6.80112451171875,0.015123405493795872,0.02593665011227131,0.028362490236759186
1772793994714169600,6.811169677734375,0.013336691074073315,0.012191807851195335,0.03580709174275398
1772793994724214500,6.821214599609375,0.011667422950267792,0.007137813605368137,0.038875333964824677
1772793994734259500,6.831259521484375,0.011829076334834099,0.005087445490062237,0.04171932488679886
1772793994744304400,6.841304443359375,0.014376921579241753,0.002686935942620039,0.037300143390893936
1772793994754349600,6.851349609375,0.01553619559854269,0.005505092907696962,0.028258977457880974
1772793994764394500,6.86139453125,0.017235560342669487,0.0037181698717176914,0.015858517959713936
1772793994774439700,6.871439697265625,0.017866462469100952,-0.0014656735584139824,0.006372869946062565
1772793994784484400,6.881484375,0.01863238774240017,-0.00004217028617858887,-0.010440915822982788
1772793994794529500,6.891529541015625,0.01366639044135809,0.004052972421050072,-0.022762296721339226
1772793994804574500,6.901574462890625,0.012142796069383621,0.011969860643148422,-0.03396734595298767
1772793994814619600,6.91161962890625,0.007695317268371582,0.014998674392700195,-0.03927955403923988
1772793994824663300,6.921663330078125,0.0030076210387051105,0.0121845081448555,-0.03919917717576027
1772793994834708500,6.93170849609375,0.004812711384147406,0.0024077780544757843,-0.03368270397186279
1772793994844753400,6.94175341796875,0.0022483537904918194,0.004856828134506941,-0.025258228182792664
1772793994854798600,6.951798583984375,0.001012114342302084,0.0055476524867117405,-0.010539734736084938
1772793994864843300,6.96184326171875,-0.0010736733675003052,0.010148423723876476,-0.004126726184040308
1772793994874888400,6.971888427734375,-0.0028800955042243004,0.021826118230819702,0.004985545761883259
1772793994884933400,6.981933349609375,-0.004521135240793228,0.014991053380072117,-0.004592314828187227
1772793994894978600,6.991978515625,-0.011800619773566723,0.008422099985182285,-0.013223087415099144
1772793994905023500,7.0020234375,-0.02251638099551201,0.014340877532958984,-0.019674910232424736
1772793994915068400,7.012068359375,-0.0321010984480381,0.027026046067476273,-0.031642090529203415
1772793994925113300,7.02211328125,-0.034593015909194946,0.03108353167772293,-0.04566143825650215
1772793994935158500,7.032158447265625,-0.028045637533068657,0.029427841305732727,-0.052132654935121536
1772793994945203500,7.042203369140625,-0.022692684084177017,0.024076752364635468,-0.05424480512738228
1772793994955248400,7.052248291015625,-0.021416496485471725,0.013415851630270481,-0.04691632091999054
1772793994965292500,7.06229248046875,-0.026720978319644928,0.005393019877374172,-0.03822271525859833
1772793994975337500,7.07233740234375,-0.028383057564496994,-0.0013506361283361912,-0.031709421426057816
1772793994985382700,7.082382568359375,-0.020611422136425972,0.0016717351973056793,-0.03196633234620094
1772793994995427300,7.09242724609375,-0.01398387923836708,0.00015826057642698288,-0.034935224801301956
1772793995005472500,7.102472412109375,-0.009294585324823856,-0.00800703838467598,-0.035970259457826614
1772793995015517400,7.112517333984375,-0.005851650610566139,-0.015629803761839867,-0.03217072784900665
1772793995025562600,7.122562744140625,0.0009175721788778901,-0.019341452047228813,-0.028166932985186577
1772793995035607600,7.132607666015625,0.005667586345225573,-0.02040751464664936,-0.029466554522514343
1772793995045652500,7.142652587890625,0.012109773233532906,-0.026343218982219696,-0.030666491016745567
1772793995055697400,7.152697509765625,0.015201970003545284,-0.017960388213396072,-0.0347571037709713
1772793995065742600,7.16274267578125,0.013931374996900558,-0.00716755585744977,-0.03827020153403282
1772793995075787500,7.17278759765625,0.011347576044499874,-0.005694561172276735,-0.03908485919237137
1772793995085832400,7.18283251953125,0.008453519083559513,0.0026024621911346912,-0.03830265626311302
1772793995095877400,7.19287744140625,0.012450391426682472,0.0022634421475231647,-0.030622633174061775
1772793995105921500,7.202921630859375,0.0146632120013237,0.001589186955243349,-0.023340201005339622
1772793995115966500,7.212966552734375,0.017897356301546097,0.00856427289545536,-0.008100527338683605
1772793995126011400,7.223011474609375,0.019566891714930534,0.021993689239025116,0.005020185373723507
1772793995136056300,7.233056396484375,0.01815887726843357,0.027388188987970352,0.01691759191453457
1772793995146101500,7.2431015625,0.01863824762403965,0.02020511031150818,0.021148288622498512
1772793995156146400,7.253146484375,0.020841479301452637,0.021610993891954422,0.021760549396276474
1772793995166191600,7.263191650390625,0.01605151779949665,0.012313345447182655,0.0044204541482031345
1772793995176236300,7.273236328125,0.005953876301646233,0.021534275263547897,-0.014012082479894161
1772793995186281500,7.283281494140625,-0.0018510501831769943,0.028212159872055054,-0.032347310334444046
1772793995196326400,7.293326416015625,0.0013077250914648175,0.028707507997751236,-0.0463736467063427
1772793995206371600,7.30337158203125,0.003098701126873493,0.024272117763757706,-0.0551329031586647
1772793995216416300,7.313416259765625,0.009153131395578384,0.022886741906404495,-0.06198015809059143
1772793995226461400,7.32346142578125,0.01423577405512333,0.04147965461015701,-0.06378528475761414
1772793995236506400,7.33350634765625,0.00577198201790452,0.03221132606267929,-0.06962292641401291
1772793995246551300,7.34355126953125,0.00013167329598218203,0.018318677321076393,-0.07151750475168228
1772793995256596200,7.35359619140625,0.00540925981476903,0.014201696962118149,-0.06715923547744751
1772793995266641400,7.363641357421875,0.006200752221047878,0.0035708495415747166,-0.05876098945736885
1772793995276686300,7.373686279296875,0.001555400318466127,0.0005135401152074337,-0.050545401871204376
1772793995286731300,7.383731201171875,-0.006677763070911169,-0.0000824308954179287,-0.039569638669490814
1772793995296776200,7.393776123046875,-0.0070956130512058735,-0.0030057826079428196,-0.030503705143928528
1772793995306821400,7.4038212890625,0.00120226398576051,-0.004140183329582214,-0.026868075132369995
1772793995316866300,7.4138662109375,0.010670866817235947,-0.0046677556820213795,-0.026985520496964455
1772793995326911500,7.423911376953125,0.00897203665226698,-0.009123925119638443,-0.02815300226211548
1772793995336956200,7.4339560546875,0.003018273739144206,-0.016416724771261215,-0.025561479851603508
1772793995347001300,7.44400146484375,-0.0022611771710217,-0.016759146004915237,-0.017494162544608116
1772793995357046300,7.45404638671875,0.0009388773469254375,-0.02789781615138054,-0.016325568780303
1772793995367091500,7.464091552734375,0.0007958658970892429,-0.02724876068532467,-0.021678972989320755
1772793995377136000,7.47413623046875,-0.0031711787451058626,-0.0354507640004158,-0.03220458701252937
1772793995387180300,7.48418017578125,-0.018334951251745224,-0.03212244063615799,-0.044361114501953125
1772793995397225500,7.4942255859375,-0.031768202781677246,-0.018538720905780792,-0.047724153846502304
1772793995407270400,7.5042705078125,-0.04579906538128853,0.010940013453364372,-0.05869457870721817
1772793995417315300,7.5143154296875,-0.04798205941915512,0.02206217311322689,-0.0776059553027153
1772793995427360300,7.5243603515625,-0.04507122561335564,0.012482578866183758,-0.09182769805192947
1772793995437405400,7.534405517578125,-0.05682402104139328,0.007011912763118744,-0.09564001858234406
1772793995447450400,7.544450439453125,-0.06489206850528717,0.0012363153509795666,-0.08679405599832535
1772793995457495600,7.55449560546875,-0.07526428252458572,0.008174648508429527,-0.07218156009912491
1772793995467540200,7.564540283203125,-0.09409575909376144,0.018262911587953568,-0.06180989742279053
1772793995477585400,7.57458544921875,-0.07955969125032425,0.020879998803138733,-0.053123731166124344
1772793995487630300,7.58463037109375,-0.0539131835103035,0.028147654607892036,-0.051088474690914154
1772793995497675500,7.594675537109375,-0.028983866795897484,0.033024437725543976,-0.05066743120551109
1772793995507720200,7.60472021484375,-0.01940208114683628,0.0508686862885952,-0.05538596957921982
1772793995517765400,7.614765380859375,-0.01620575413107872,0.05368977412581444,-0.053872764110565186
1772793995527809300,7.624809326171875,-0.020011944696307182,0.04288378357887268,-0.05721026659011841
1772793995537854500,7.6348544921875,-0.0208995770663023,0.03059542551636696,-0.05655273422598839
1772793995547899100,7.644899169921875,-0.00811453815549612,0.02517727017402649,-0.05147267132997513
1772793995557944300,7.6549443359375,0.005477170459926128,0.03202292323112488,-0.05081992968916893
1772793995567989200,7.6649892578125,0.02225162461400032,0.04627420753240585,-0.046457886695861816
1772793995578034400,7.675034423828125,0.043938010931015015,0.051939282566308975,-0.044998206198215485
1772793995588079400,7.685079345703125,0.05995798856019974,0.04992305487394333,-0.035940878093242645
1772793995598124300,7.695124267578125,0.07608689367771149,0.042373258620500565,-0.02984463982284069
1772793995608169200,7.705169189453125,0.08553685247898102,0.026554878801107407,-0.021640822291374207
1772793995618214400,7.71521435546875,0.08526521176099777,0.021232817322015762,-0.010901890695095062
1772793995628259300,7.72525927734375,0.0807250514626503,0.017865512520074844,0.0015233022859320045
1772793995638304300,7.73530419921875,0.06712615489959717,0.006964128464460373,0.00977324228733778
1772793995648349200,7.74534912109375,0.04528024420142174,0.0011386284604668617,0.01804731972515583
1772793995658394400,7.755394287109375,0.02110113576054573,0.003825225867331028,0.004638568963855505
1772793995668438500,7.7654384765625,0.008898266591131687,0.02030870132148266,-0.00730902049690485
1772793995678483200,7.775483154296875,0.008329682052135468,0.04404066130518913,-0.031026601791381836
1772793995688528400,7.7855283203125,0.01929391548037529,0.08289974927902222,-0.05883363261818886
1772793995698573300,7.7955732421875,0.02873562090098858,0.11392823606729507,-0.08843812346458435
1772793995708618500,7.805618408203125,0.033885907381772995,0.13368842005729675,-0.11736398935317993
1772793995718663400,7.815663330078125,0.047127410769462585,0.1525164395570755,-0.13666869699954987
1772793995728708400,7.825708251953125,0.049363669008016586,0.17004993557929993,-0.1563895046710968
1772793995738753300,7.835753173828125,0.03826228156685829,0.18282511830329895,-0.17702101171016693
1772793995748798500,7.845798583984375,0.02189209684729576,0.19660234451293945,-0.1933135837316513
1772793995758843400,7.855843505859375,0.0017205154290422797,0.2069774866104126,-0.19946788251399994
1772793995768888300,7.865888427734375,-0.006968047935515642,0.19498613476753235,-0.20246796309947968
1772793995778933200,7.875933349609375,-0.010681825689971447,0.18067456781864166,-0.19662924110889435
1772793995788978400,7.885978515625,-0.011312196031212807,0.165891632437706,-0.18177391588687897
1772793995799023400,7.8960234375,-0.01747342012822628,0.14403747022151947,-0.16723012924194336
1772793995809067300,7.9060673828125,-0.020023128017783165,0.1266932487487793,-0.1482863575220108
1772793995819112200,7.9161123046875,-0.02408897690474987,0.12519308924674988,-0.13679561018943787
1772793995829157400,7.926157470703125,-0.031586840748786926,0.11498705297708511,-0.13461731374263763
1772793995839202300,7.936202392578125,-0.032188449054956436,0.10463082045316696,-0.1395508199930191
1772793995849247500,7.94624755859375,-0.0249294713139534,0.10852282494306564,-0.14937493205070496
1772793995859292200,7.956292236328125,-0.01487896777689457,0.10841363668441772,-0.1739681512117386
1772793995869337300,7.96633740234375,-0.008813885040581226,0.1181977167725563,-0.20335277915000916
1772793995879382300,7.97638232421875,-0.006396799348294735,0.1322786509990692,-0.24133345484733582
1772793995889427500,7.986427490234375,-0.008155818097293377,0.14704596996307373,-0.2837807536125183
1772793995899471400,7.996471435546875,0.0014424811815842986,0.16447582840919495,-0.32064715027809143
1772793995909516300,8.006516357421875,0.016475491225719452,0.1715547740459442,-0.35372892022132874
1772793995919560400,8.016560546875,0.036298997700214386,0.1689653843641281,-0.3706868886947632
1772793995929605000,8.026605224609375,0.042131856083869934,0.17478109896183014,-0.3696818947792053
1772793995939650300,8.036650390625,0.026258081197738647,0.15204276144504547,-0.33404451608657837
1772793995949695200,8.0466953125,0.005881704390048981,0.1084144338965416,-0.27861493825912476
1772793995959740400,8.056740478515625,-0.012995047494769096,0.07440826296806335,-0.20311646163463593
1772793995969785300,8.066785400390625,-0.016280589625239372,0.01903453841805458,-0.12881669402122498
1772793995979830300,8.076830322265625,-0.013546587899327278,-0.015092805959284306,-0.0600016787648201
1772793995989875200,8.086875244140625,-0.01691655069589615,-0.029779497534036636,-0.0009650539141148329
1772793995999920400,8.09692041015625,-0.02420881949365139,-0.03798016905784607,0.027514256536960602
1772793996009965300,8.10696533203125,-0.028444845229387283,-0.025304537266492844,0.025457946583628654
1772793996020010200,8.11701025390625,-0.01716262847185135,-0.01125822588801384,-0.010109900496900082
1772793996030055200,8.12705517578125,0.005922983400523663,0.0007207817398011684,-0.05339458957314491
1772793996040100400,8.137100341796875,0.02561439760029316,0.02439495176076889,-0.08260467648506165
1772793996050145300,8.147145263671876,0.03932488337159157,0.022861292585730553,-0.08637041598558426
