time,seconds_elapsed,z,y,x
1772794961154624300,0.080624267578125,0.021770517781376838,0.006046396033262135,-0.005477317166235298
1772794961164668200,0.090668212890625,0.028953122761845588,0.0017283193466602824,-0.01325644500143826
1772794961174711800,0.1007119140625,0.022816811963915825,-0.004004012618615525,-0.0003315335093066096
1772794961184755700,0.110755615234375,0.015185878694057464,0.0032284160030831115,-0.0010273520200513302
1772794961194801000,0.12080078125,0.01847732145488262,-0.009371566392108798,0.000998746980074793
1772794961204844800,0.1308447265625,0.006955225965380668,-0.006049040081497514,-0.00765935564674437
1772794961214888700,0.140888671875,0.013090367719531058,-0.007169884779502172,-0.005129015185218304
1772794961224932600,0.1509326171875,0.011742460241913794,-0.007516233407094841,-0.011785733128059655
1772794961234976800,0.160976806640625,0.02506079149842262,-0.0020663522370567076,-0.011283720156364143
1772794961245021700,0.171021728515625,0.01832885289490223,0.0066558902507124,0.004679992776084691
1772794961255065600,0.181065673828125,0.013690087178349495,0.004285174497420666,-0.006391436336468905
1772794961265109800,0.19110986328125,0.01817979981303215,0.0009407274743018206,-0.0005353307194076478
1772794961275153700,0.201153564453125,0.009946808996796607,-0.012385457153455353,0.005293393700383603
1772794961285198600,0.211198486328125,0.025657588347792623,0.00021945372024783863,-0.005833528459072113
1772794961295242800,0.22124267578125,0.028351065215468405,0.012554322330781723,-0.004784768324811011
1772794961305286700,0.23128662109375,0.009348843103647232,0.010991671557363587,0.0007404431037604808
1772794961315330800,0.241330810546875,0.021468319964408872,-0.0023008402712992393,-0.002042136819474399
1772794961325374700,0.251374755859375,0.023412439769506452,0.009018026546970941,0.007585523225553333
1772794961335419600,0.261419677734375,0.023711130455136297,-0.005831452949705999,-0.00473521182835102
1772794961345463800,0.2714638671875,0.02131634427309036,0.004425468884099973,-0.005048734756931662
1772794961355508000,0.281508056640625,0.027599370065331457,-0.004962684458272997,-0.0006697342214174568
1772794961365551600,0.291551513671875,0.00889583863914013,-0.0015297485842369497,0.0018001082245260476
1772794961375596800,0.3015966796875,0.023859014493227002,-0.001057346441160189,-0.0015597418637014924
1772794961385641000,0.311640869140625,0.01532850203514099,-0.005748997688997769,0.011841280973888932
1772794961395684600,0.3216845703125,0.024154782569408416,0.0022594282653881238,0.015144779498688875
1772794961405728800,0.331728759765625,0.019514263287186622,-0.001324107618565904,-0.007597085799183696
1772794961415773700,0.341773681640625,0.04031622829735279,-0.0007072246791038196,-0.003137549107056111
1772794961425817900,0.35181787109375,0.028647417813539505,0.001747029755351832,-0.012963033279124646
1772794961435861800,0.36186181640625,0.022361469411849973,0.013755772825703024,-0.00048639527745544906
1772794961445905700,0.37190576171875,0.024308511826395988,-0.0029226471226953435,0.004249821197893471
1772794961455949800,0.38194970703125,0.024606617990136144,-0.0037732120955130083,0.002238316978700459
1772794961465994800,0.391994873046875,0.01068739823102951,0.01008009026244399,-0.008258636714145541
1772794961476038700,0.40203857421875,0.018018471771478653,0.004619965117960236,-0.007891209907550364
1772794961486082800,0.412082763671875,0.017869418689608573,-0.013834631906816502,-0.0057470557520166035
1772794961496126700,0.422126708984375,0.006048047992587089,-0.009033253798855003,0.005188088428694755
1772794961506171600,0.432171630859375,0.006498714369535446,-0.00014461094383732415,-0.008032116215582936
1772794961516215800,0.4422158203125,0.029992402681708333,-0.005208011263649678,-0.012511088260542601
1772794961526259700,0.452259765625,0.011735445979237556,0.0010144457310612778,0.007789777093380689
1772794961536303900,0.462303955078125,0.02041325795352459,0.009005748162354575,0.010714432368427514
1772794961546347800,0.47234765625,0.015774492236971853,0.008543488387379328,-0.010086473195813595
1772794961556392700,0.482392822265625,0.014576806885004043,-0.013913392806518822,0.0001901340109296143
1772794961566436900,0.492436767578125,0.02909106992781162,0.0013417437399562914,-0.012689020377025007
1772794961576480500,0.50248046875,0.0370218629270792,-0.00016453377879224715,0.004982172326743603
1772794961586524700,0.512524658203125,0.01906301238834858,0.005836238722677808,-0.008924388880189508
1772794961596569900,0.52256982421875,0.027594693890213965,0.009995110826153541,-0.004138962968252599
1772794961606613800,0.53261376953125,0.019811200407147407,-0.001326303000585176,-0.00803909394564107
1772794961616657700,0.54265771484375,0.021605098086595532,0.007707869821944041,-0.005209514809213578
1772794961626701800,0.552701904296875,0.005445405924320221,-0.007512276467896299,-0.02083676232891157
1772794961636745700,0.562745849609375,0.015621347501873968,-0.007246588436147431,0.002426843554433435
1772794961646790700,0.572790771484375,0.017270283752679822,-0.00285554012816865,0.011113277226593344
1772794961656834800,0.582834716796875,0.013379706054925918,0.01060091753246379,0.0008316102522425353
1772794961666878700,0.592878662109375,0.008145897054672242,-0.007505927783856168,-0.011232958083506673
1772794961676923000,0.6029228515625,0.01278524729311466,0.01217811627939809,0.009730700294394046
1772794961686967800,0.6129677734375,0.011289455777406691,0.006714892712241271,-0.0046973092370666564
1772794961697011700,0.62301171875,0.028500118297338485,-0.0016254081031016538,-0.00756652626413852
1772794961707055900,0.633055908203125,0.021019991675019264,-0.003967606723029166,-0.004880538583174348
1772794961717099800,0.643099853515625,0.020571663385629654,0.006185287339077331,0.0033662250300869343
1772794961727144700,0.653144775390625,0.02476151629090309,0.006456907354691065,-0.0032011889277957376
1772794961737188900,0.66318896484375,0.012490648260712623,0.00033197304236819034,0.000941701296903193
1772794961747232800,0.673232666015625,0.03164601510763168,0.005440239983791252,-0.0046176681295968585
1772794961757276700,0.683276611328125,0.018028408643603323,0.007504361447854898,-0.009190492470469325
1772794961767320600,0.693320556640625,0.02341828498840332,0.01098849778616568,0.0011807524834759533
1772794961777365800,0.70336572265625,0.022669512447714806,0.007991732831200351,-0.0033353001688607034
1772794961787409700,0.71340966796875,0.01339315005838871,0.008744030769536039,-0.0046035482726991175
1772794961797453600,0.72345361328125,0.01503916369974613,0.012058674026146764,-0.006566135316248983
1772794961807497700,0.733497802734375,0.017733809611201284,0.0035547744387062264,-0.013222469666600227
1772794961817543000,0.74354296875,0.026713819402456283,0.0014654180686862672,0.010675634727999567
1772794961827586600,0.753586669921875,0.01818447598814964,0.00262979480609647,-0.004861870415322482
1772794961837630700,0.763630615234375,0.024620061993598938,-0.007914367020851932,-0.005963073122873902
1772794961847675000,0.7736748046875,0.015493921729922294,-0.002124885482771788,-0.01516505510173738
1772794961857718800,0.78371875,0.01220364801287651,0.0010598843164741991,0.012186039290949701
1772794961867763700,0.793763671875,0.01594458810687065,0.0075514908084995105,-0.009948233768902718
1772794961877807900,0.803807861328125,0.025668109741806982,-0.005320185809186659,-0.008052428351249545
1772794961887851800,0.813851806640625,0.03614566461443901,-0.0018323471183597576,-0.0005787862686440348
1772794961897896000,0.82389599609375,0.021478256836533545,0.005296835757995722,0.005694923705980182
1772794961907940900,0.83394091796875,0.007712766334414482,0.013131712368427542,0.00902059752997011
1772794961917984800,0.84398486328125,0.010556465327739715,0.010738785924972034,-0.002306212849449366
1772794961928029000,0.85402880859375,0.02402560323178768,0.004294687819504179,-0.0008298566865734755
1772794961938072600,0.864072509765625,0.03210661835670471,-0.0072276622566801955,0.002315839194320142
1772794961948116700,0.87411669921875,0.01819324381649494,0.0005137924577458761,0.015970197472162544
1772794961958162000,0.884161865234375,0.012805705559253693,0.006503561791300308,0.0018830555339343846
1772794961968205600,0.89420556640625,0.02776654332578182,-0.002327810476615559,0.004091799358278513
1772794961978249700,0.904249755859375,0.012052256843447684,-0.004083940278808586,0.004226275925524533
1772794961988293600,0.914293701171875,0.01923427730202675,0.0037720339185791088,-0.011205047163274138
1772794961998338800,0.9243388671875,0.017289572975039483,0.007216768686618889,-0.007602182099409401
1772794962008382700,0.9343828125,0.025371757143735883,0.00018208427685895002,-0.015858133666124194
1772794962018426600,0.944426513671875,0.002627425894141197,0.010591701037902385,-0.004884392774384468
1772794962028470800,0.954470703125,0.01803951455950737,0.016113883684104074,0.0028431510040536523
1772794962038515000,0.964514892578125,0.02477145316302776,0.023344224238349122,-0.0011379362550564109
1772794962048559600,0.9745595703125,0.017588263660669325,-0.008611032631678972,0.00045459363339468836
1772794962058603800,0.984603759765625,0.01369768596291542,0.0031751057801127896,-0.002229055960010737
1772794962068648000,0.99464794921875,0.025820669955015182,0.020468833198817444,0.0032886114829219874
1772794962078691800,1.00469189453125,0.027017770785093306,-0.005348221168649615,-0.004630308415461332
1772794962088736800,1.01473681640625,0.01803951455950737,0.0017795609101303852,0.0005875175643712282
1772794962098780700,1.02478076171875,0.023875965628027913,0.016206420805765082,0.0009012596886605024
1772794962108824800,1.034824951171875,0.02402560323178768,0.00020722214304842054,-0.0004654438209719956
1772794962118868700,1.04486865234375,0.028964228677749632,-0.01434281889097183,-0.004176646363828331
1772794962128913700,1.05491357421875,0.016696867778897284,-0.00902558879891876,-0.005957538431230932
1772794962138957800,1.064957763671875,0.010711948150396347,0.009883131501794559,0.007232672933582216
1772794962149001700,1.075001708984375,0.023732173243165015,-0.003292035274225054,0.00462618022961542
1772794962159045600,1.085045654296875,0.023282675909996033,-0.0075964590364543255,-0.002855261566955596
1772794962169089300,1.09508935546875,0.015650573596358297,-0.0008515079710225108,0.0026467699154280122
1772794962179134500,1.105134521484375,0.01744505579769611,-0.005856424135825364,0.00031900282129645346
1772794962189178000,1.11517822265625,0.033009120154380796,-0.011334522186772665,-0.004231956747639924
1772794962199222300,1.12522216796875,0.02567687757015228,-0.014026373352942755,-0.023940664894692598
1772794962209266400,1.135266357421875,0.017148703199625016,0.004101167691533919,-0.008450305095035582
1772794962219311400,1.145311279296875,0.01669920586645603,0.005365815049200319,-0.006424553154781461
1772794962229355300,1.155355224609375,0.018044190734624863,-0.01799940060318331,-0.009502992485743015
1772794962239399400,1.1653994140625,0.020886136162281035,-0.002057656332303304,0.0007715871606953442
1772794962249443300,1.175443359375,-0.009490881922841072,-0.0023893188474175984,-0.0021077311352826656
1772794962259487500,1.185487548828125,0.016695698735117913,0.0075234851317887656,-0.011097202874626963
1772794962269532400,1.195532470703125,0.017891630521416662,0.003391768180008512,-0.0029117957934737203
1772794962279576300,1.205576416015625,0.00801788676083088,0.009773284769017482,-0.00243329156152904
1772794962289620500,1.215620361328125,0.021485271099209783,-0.0061202992364007515,-0.0036528416854329404
1772794962299664400,1.225664306640625,0.025975568255782126,-0.0006094873675843701,-0.0013375504803843795
1772794962309709300,1.235709228515625,0.019092823004722596,-0.0003682613485900219,0.002466828504949808
1772794962319753500,1.24575341796875,0.016098901885747908,-0.005994163522525923,-0.001019296577759087
1772794962329797400,1.25579736328125,0.020289339312911034,0.0055526599828561295,0.00154332045186311
1772794962339841300,1.26584130859375,0.025527239966392515,-0.00002686745732789859,-0.010525942325312643
1772794962349885200,1.27588525390625,0.0240291103631258,-0.013919418405217583,-0.02544032886791974
1772794962359930400,1.285930419921875,0.02837269252538681,0.003054647463420406,-0.006359397230390459
1772794962369974300,1.295974365234375,0.021788053438067435,-0.002261017434275709,0.0012695815443992614
1772794962380018200,1.30601806640625,0.013107903376221657,0.0003787496349192224,0.0050998256233520806
1772794962390062300,1.316062255859375,0.024178747966885565,0.016702174141677094,0.004940762604121118
1772794962400107300,1.326107177734375,0.010114566779136656,0.009967148531926795,-0.0021601737085729837
1772794962410151200,1.336151123046875,0.007871171766519545,0.013302546882198656,0.012586637714784592
1772794962420195300,1.3461953125,0.01969078889787197,-0.01947081458781613,0.00904112886134535
1772794962430239500,1.356239501953125,0.03166471980810165,-0.002718701498833252,-0.0006574227291159332
1772794962440283400,1.366283447265625,0.025680969223380087,-0.007474771168833831,-0.004712799067143351
1772794962450328300,1.376328369140625,0.01341010119318962,-0.00037808748121606183,0.007805065994057804
1772794962460372500,1.38637255859375,0.006676993545889854,0.005131426338013261,-0.012957681250572204
1772794962470416400,1.39641650390625,0.006526771420240402,0.024273732773959635,0.007499013985879719
1772794962480460300,1.406460205078125,0.02493278120458126,0.004794690355559578,-0.005629859113134444
1772794962490505200,1.416505126953125,0.01251169104874134,-0.0039572896833473346,-0.019330266756098717
1772794962500549400,1.42654931640625,0.02059095260798931,0.009468109543673926,-0.010569964130129665
1772794962510593500,1.436593505859375,0.006076689565181732,-0.015465424004511442,0.011451130878832191
1772794962520637200,1.44663720703125,0.01999357123672962,0.002647843061084859,0.0013277962713502346
1772794962530681300,1.456681396484375,0.024031448450684546,-0.0012041527670167852,0.0026590631414204835
1772794962540726500,1.4667265625,0.02103752733170986,0.010409978662291541,-0.003529708496108651
1772794962550770200,1.476770263671875,0.016099486407637593,0.006856884724018164,-0.0038424277070909737
1772794962560814300,1.486814453125,0.026425065588951108,0.0019268672761972993,-0.005297028695885091
1772794962570858200,1.496858154296875,0.012661328652501105,-0.01124114823982818,-0.002724146000575274
1772794962580903200,1.506903076171875,0.014759177714586257,-0.0006235604170651641,-0.009422255399730056
1772794962590947300,1.516947265625,0.0286737212985754,-0.012815495159261626,0.005706687209010124
1772794962600991200,1.5269912109375,0.026576456758379934,-0.004062620071211131,-0.00746122099244967
1772794962611035400,1.537035400390625,0.023134791871905324,-0.007242163422779412,-0.018382044386863708
1772794962621079600,1.54707958984375,0.029421909317374227,0.009301399790815776,-0.011514588036481291
1772794962631124200,1.557124267578125,0.036006548404693604,0.0008042598793690559,-0.016453633607551456
1772794962641168400,1.56716845703125,0.008622282394766806,-0.0003995720855949912,-0.022775986763183025
1772794962651212300,1.57721240234375,0.01191430967748165,-0.0023568071005924136,-0.013037066629715263
1772794962661256200,1.587256103515625,0.019394436299800873,-0.018912808529008177,-0.0008559409759007394
1772794962671301400,1.59730126953125,0.020891396859288213,0.003879172671039123,-0.01923732777563855
1772794962681345300,1.60734521484375,-0.002602291452884674,-0.006994633243873249,-0.005217314523179084
1772794962691389400,1.617389404296875,0.028971827462315556,-0.012149629970430396,-0.01112566178413108
1772794962701433300,1.627433349609375,0.01685176607966423,-0.001705415678396821,0.006247625685296953
1772794962711477200,1.637477294921875,0.028525837260484695,-0.006846271998458542,-0.011267262211907655
1772794962721522400,1.6475224609375,0.022989245921373365,-0.0009768433922319672,-0.0057219395770691335
1772794962731566300,1.65756640625,0.015358312651515006,0.010051927038817667,-0.026025325681641696
1772794962741610200,1.6676103515625,0.011169044268131256,-0.0016039840058714617,-0.012395206795912236
1772794962751654400,1.677654296875,0.020298107141256332,-0.001573728148214286,0.00009087488753721118
1772794962761699300,1.68769921875,0.017456746235489845,0.013213514608587138,-0.0056348275491967794
1772794962771743200,1.6977431640625,0.023293781825900077,-0.004675123663077829,0.0032525903214700516
1772794962781787400,1.707787353515625,0.028678981995582577,-0.0034432003980793525,0.01017899205116555
1772794962791831300,1.717831298828125,0.009225508984923362,-0.00940897579304874,-0.0009080912882462143
1772794962801875500,1.72787548828125,0.018354571858048438,-0.006513577436882769,-0.006337514192145318
1772794962811920400,1.73792041015625,0.02224631859958172,0.005588840974512277,0.006011606706026941
1772794962821964300,1.74796435546875,0.018057050216197967,0.00726245158391539,-0.0009579035130329429
1772794962832008400,1.758008544921875,0.01865560063123703,-0.0005137741914368235,0.008452643182594328
1772794962842052000,1.768052001953125,0.011921908462047576,0.00085247722704662,0.013056794243492185
1772794962852097300,1.77809716796875,0.03107493722140789,-0.0024683400420239194,0.006734970810823142
1772794962862141400,1.788141357421875,0.023590718945860862,-0.004753292049380252,-0.010463836874533445
1772794962872185300,1.798185302734375,0.02643383341729641,0.0040481131968903355,-0.019462332170549778
1772794962882229200,1.808229248046875,0.020899580165743826,-0.0010774610723601654,0.0028588417635299263
1772794962892273400,1.8182734375,0.01252045887708664,0.0023888975806650703,0.0060467510846443475
1772794962902318300,1.828318359375,0.02957914570569992,0.0005518514543015044,-0.008656330794841051
1772794962912362200,1.8383623046875,0.029876082825660705,-0.007959828439151169,-0.012211867851950227
1772794962922406400,1.848406494140625,0.01581073259413242,-0.008656605931121157,-0.003363777344673872
1772794962932450300,1.8584501953125,0.018054127606749532,0.005432335238548694,0.009448157025966793
1772794962942494500,1.868494384765625,0.02448796004652977,0.0028837501592119223,-0.0009319105552509427
1772794962952539400,1.878539306640625,0.0277805718511343,-0.004467967735399724,0.0021228739054873587
1772794962962583300,1.888583251953125,0.013563830450177191,0.004912791176739847,0.007146510753780603
1772794962972627500,1.89862744140625,0.019698387682437896,0.001827415214915527,-0.005172854326944798
1772794962982671400,1.90867138671875,0.017904490002989767,-0.012873919948766705,-0.01434725417913869
1772794962992716300,1.91871630859375,0.008179214802384377,0.0049250341703824235,-0.004372223734855652
1772794963002760400,1.928760498046875,0.014165887996554374,-0.0036324302267108574,0.000788172969315201
1772794963012804400,1.938804443359375,0.020602058523893355,-0.0009399614309659227,-0.0035677206852473315
1772794963022848300,1.94884814453125,0.030327918246388433,0.007298381413822062,-0.013944317667745053
1772794963032892200,1.95889208984375,0.03167407215833664,-0.006870839042490115,-0.005618661865685135
1772794963042937300,1.968937255859375,0.012372574838995933,-0.002211023688042769,-0.017920673952810464
1772794963052981500,1.9789814453125,0.011925415593385696,0.008353324693697504,-0.0007594035325571894
1772794963063025200,1.989025146484375,0.0056423898011446,-0.0044293904323247256,-0.004207498159818351
1772794963073069300,1.9990693359375,0.011177812096476555,-0.007609102747251745,0.011425210986286401
1772794963083114500,2.009114501953125,0.02883621838390827,-0.0036371109684056133,0.003999773693270981
1772794963093158100,2.019158203125,0.00998246483206749,0.01114758021335001,-0.003286236862745136
1772794963103202300,2.029202392578125,0.01552022521495819,0.004944202378444606,-0.008654211902990937
1772794963113246500,2.03924658203125,0.01462181507050991,-0.00543580812055734,-0.007328096132073551
1772794963123290400,2.049290283203125,0.03347615314424038,0.0017132199589395894,0.007756002687942236
1772794963133335300,2.059335205078125,0.01551847164928913,-0.013870430447626859,0.0001835398733615875
1772794963143379200,2.069379150390625,0.008784779480099678,0.013075208966305945,0.006645264967065304
1772794963153423400,2.07942333984375,0.02120353154838085,-0.0014131456003990024,-0.010787607202492654
1772794963163467500,2.089467529296875,0.02180091291964054,0.0016786258528823964,0.007391973414830863
1772794963173512700,2.0995126953125,0.025094109246134755,0.005086144157871604,0.005360449320916086
1772794963183556900,2.109556884765625,0.017165069812536238,0.0009418440024426672,0.004009692299086601
1772794963193600800,2.119600830078125,0.014622399592399596,-0.0045919457415177015,-0.0032758981318213045
1772794963203644700,2.129644775390625,0.011927753680944442,-0.009473502671421738,-0.016667294624540953
1772794963213688800,2.139688720703125,0.019111527705192564,0.004907827307254775,-0.017471249684877694
1772794963223733800,2.149733642578125,0.012079144850373267,0.006413028255413519,0.0026047756709158417
1772794963233777700,2.159777587890625,0.005644143366813659,0.02016317163299536,-0.013743917991127818
1772794963243821800,2.16982177734375,0.01566927829682827,-0.0009787271053530275,0.0025031053947284815
1772794963253865700,2.17986572265625,0.02494622520804405,-0.001043717491318239,0.009076912560779601
1772794963263910000,2.189909912109375,0.02973638209402561,0.015638758719334143,-0.003696443365141749
1772794963273954600,2.19995458984375,0.020310966622829437,0.011183707547723316,-0.0001486512230709195
1772794963283998700,2.209998779296875,0.026745383584499356,0.017159330766560742,-0.006601864216756076
1772794963294043000,2.22004296875,0.018217793735861777,-0.008285499604896177,0.001749802809394896
1772794963304086800,2.230086669921875,0.02151157458424568,0.007144036810548277,-0.005934285419806838
1772794963314131700,2.240131591796875,0.02196165643930435,0.006523320229473756,-0.00919754326576367
1772794963324176000,2.25017578125,0.017322890722751616,-0.00024966619542101396,-0.015180398801341652
1772794963334219800,2.2602197265625,0.01492635097503662,-0.005618361613230081,-0.00034053879966959355
1772794963344263700,2.270263671875,0.026899112841486928,0.015822419606993206,-0.003701868458930403
1772794963354307600,2.2803076171875,0.02271101350188255,-0.014658564601035323,-0.01391452531768009
1772794963364352800,2.290352783203125,0.01732405976653099,-0.001557614980341168,-0.004607840855326503
1772794963374397000,2.30039697265625,0.0089449384778738,0.007833063679258338,0.005787552159186453
1772794963384440600,2.310440673828125,0.03154138568937778,-0.001218209833477158,-0.0027046375825069842
1772794963394484700,2.320484619140625,0.028849077865481375,0.006617379163007717,-0.0055010999006219205
1772794963404530000,2.330530029296875,0.017177929294109343,-0.013293992541340411,0.00922496099565178
1772794963414573600,2.340573486328125,0.02032207253873348,0.003032913980580633,-0.0022083602318540216
1772794963424617700,2.35061767578125,0.03468903606534004,0.003936910190666094,0.013451054258085786
1772794963434661600,2.36066162109375,0.03499006483852863,-0.012937774398637702,0.0005886318092234432
1772794963444705800,2.370705810546875,0.012246902632713318,-0.00675040812526131,-0.0014186346262693404
1772794963454750700,2.380750732421875,0.022272037562727928,-0.00720283263445599,-0.0023577786399051545
1772794963464794600,2.390794677734375,0.02182312475144863,-0.0014107949547527822,-0.009073368896823376
1772794963474838800,2.4008388671875,0.018232406783103942,0.009283311578276334,-0.007388301886711269
1772794963484883000,2.410883056640625,0.020174188500642776,0.002473476299800677,-0.0005553140615113079
1772794963494926600,2.420926513671875,0.020323826104402542,0.00015155099963303655,-0.018372107514739035
1772794963504971800,2.4309716796875,0.021969839745759962,0.009646032527001807,-0.012551493336167186
1772794963515016000,2.441015869140625,0.024214988324046133,0.006794053187454119,-0.0023283516160212455
1772794963525059600,2.4510595703125,0.026910218757390976,0.006195765350607689,0.007806454233545809
1772794963535103700,2.461103759765625,0.015237316620349883,0.0016223256634490097,-0.0037823498166166245
1772794963545149000,2.47114892578125,0.013588380369544028,0.015347534387529595,-0.015772537741903216
1772794963555192800,2.48119287109375,0.013587211325764655,0.004154342058830662,-0.012547566079720854
1772794963565236700,2.49123681640625,0.001765256106853485,0.0032300245799240655,-0.000778236097190529
1772794963575280600,2.50128076171875,0.01792670183479786,0.0041674983679258724,-0.006856222570315003
1772794963585324800,2.51132470703125,0.018524667727947235,-0.0009973530323652085,0.004002440574392676
1772794963595369700,2.52136962890625,0.007601122653484344,0.0010600041891273577,-0.006029964346624911
1772794963605413600,2.53141357421875,0.02585632579028606,0.005080303505552001,0.00393326606201008
1772794963615457800,2.541457763671875,0.01433423030078411,0.008644111775729105,0.01770460178302601
1772794963625501700,2.551501708984375,0.02047112562060356,-0.016235939161194254,-0.011097604733426122
1772794963635546600,2.561546630859375,0.01643091031908989,-0.01499670023942017,-0.007937953392416238
1772794963645590800,2.5715908203125,0.002963525980710983,-0.0030558952806575687,-0.011980488515179603
1772794963655634700,2.581634765625,0.017179682859778403,-0.0015254000610380898,-0.0067002648236230014
1772794963665678800,2.591678955078125,0.02032207253873348,0.0003989293398451991,0.010340648886281997
1772794963675722800,2.60172265625,0.020620763224363327,-0.009874223251198418,-0.005838350764662027
1772794963685767700,2.611767578125,0.015382862570881842,0.007157010456552961,0.012822967221308499
1772794963695811800,2.621811767578125,0.022864158236980438,0.009842624819825868,-0.0027803514335304497
1772794963705855700,2.631855712890625,0.024360534274578093,-0.011240636783174704,-0.012928911813814193
1772794963715899600,2.641899658203125,0.02391279050707817,0.006162848320050398,-0.0017734028806909918
1772794963725943800,2.65194384765625,0.01059679733812809,0.0001652438815566711,-0.009131090433429925
1772794963735988700,2.66198876953125,0.013441665375232696,0.0013044884609989822,0.0019092494211159646
1772794963746032600,2.67203271484375,0.0233189162671566,-0.00839045895835734,-0.006982935956213623
1772794963756076800,2.682076904296875,0.018381459864974022,0.00618730690787197,0.008594316675607115
1772794963766120700,2.69212060546875,0.022419921600818633,0.006907800918858265,0.010576832262333483
1772794963776165600,2.70216552734375,0.023167525097727775,-0.005190643428673502,0.0036789259747602044
1772794963786209800,2.712209716796875,0.017930793488025665,0.0009324140203942078,-0.002124243878666311
1772794963796253700,2.722253662109375,0.022868249890208244,0.0013546055048180277,-0.015035967095661908
1772794963806297900,2.7322978515625,0.016133973199129105,0.007224328655278077,0.0015631393971852958
1772794963816341800,2.742341796875,0.020321488016843796,-0.009090595167904393,-0.0035164654220454393
1772794963826386700,2.75238671875,0.025858079355955122,-0.010222893983329413,0.002766980495303869
1772794963836430800,2.762430908203125,0.035434301474690434,-0.0022251115788996683,-0.010570420787855982
1772794963846474800,2.772474853515625,0.014633505508303642,0.0005788947248540352,-0.0029166911642998453
1772794963856518700,2.7825185546875,0.026903789016604424,0.007761517971631837,0.003373056629672646
1772794963866562800,2.792562744140625,0.0307955357581377,0.014887112659902777,-0.012099292589258402
1772794963876607700,2.802607666015625,0.024510171878337858,-0.0007969887467217631,-0.005225607427489012
1772794963886651600,2.812651611328125,0.017027122646570206,0.0058280497080006165,-0.0016958258661441503
1772794963896695800,2.82269580078125,0.017774726143479348,0.002700049314001808,-0.008352014086022973
1772794963906739700,2.83273974609375,0.02016951232552528,-0.005552093727275496,-0.007239376669004559
1772794963916784600,2.84278466796875,0.015081833797693251,-0.0038660232118098064,0.002793667572829872
1772794963926828800,2.852828857421875,0.017175591206550597,-0.009314309504738775,-0.00593382876208052
1772794963936872700,2.862872802734375,0.016427987709641455,0.0035444482658698686,-0.0024453107928857206
1772794963946916900,2.872916748046875,0.013737433451414108,-0.004765643499232829,0.00040158480452373623
1772794963956960800,2.882960693359375,0.014935703325271606,0.001788583325158106,-0.002195171956717968
1772794963967005700,2.893005615234375,0.024361703318357467,0.0044574372082308395,0.004295578302070498
1772794963977049900,2.9030498046875,0.028100305324792862,0.0007259065466874744,0.001318772714678198
1772794963987093800,2.91309375,0.02002104376554489,-0.008132849201787029,0.008265961504075676
1772794963997137700,2.9231376953125,0.022414076381921767,-0.0016483962530444841,0.00025781068596988915
1772794964007181600,2.933181640625,0.010443068081140518,-0.006791356623580214,0.004767397064901888
1772794964017226800,2.943226806640625,-0.0000339022696018219,0.014927003995585254,-0.01049101714240387
1772794964027271000,2.95327099609375,0.00969312649667263,0.009713789117144187,-0.017201620696950703
1772794964037314600,2.963314453125,0.021067922469973563,-0.0009702846456377301,0.011371672434452921
1772794964047358700,2.973358642578125,0.024210896670818327,-0.0071370590804901435,0.010672182395588606
1772794964057404000,2.98340380859375,0.021667641928792,0.007422735020919936,0.0066599145469255746
1772794964067447600,2.993447509765625,0.023015549406409264,-0.014658420753851532,0.007793503420427441
1772794964077491700,3.00349169921875,0.0201730194568634,0.0032894049257214644,0.010261373104993253
1772794964087535900,3.013535888671875,0.016882161217927932,0.012502438021561828,0.013756759206391871
1772794964097579800,3.023579833984375,0.022417583513259887,-0.0031343182536424136,0.0056203788987360895
1772794964107624700,3.033624755859375,0.024065350720286368,-0.0016493301180948038,0.006901376886293291
1772794964117668600,3.043668701171875,0.02675999663174152,0.011720329466852126,0.015358075189497321
1772794964127712800,3.053712646484375,0.021375380983948707,0.010087085117166862,0.006832823428418487
1772794964137757000,3.0637568359375,0.015987842726707457,-0.0029795580918376796,0.007517134164460003
1772794964147800600,3.073800537109375,0.03170096016526222,0.00043607273765956046,0.011339158404339104
1772794964157845800,3.083845703125,0.03858662802577018,-0.007342505966627505,0.0016016265103593467
1772794964167890000,3.093889892578125,0.019581483304500578,-0.007478836564242373,-0.004755523964017629
1772794964177933800,3.103933837890625,0.008806406790018081,0.004327097959985258,-0.009163768860325217
1772794964187977700,3.113977783203125,0.02451660161912441,0.007886943582742242,-0.010136230621673166
1772794964198023000,3.12402294921875,0.008357493978738785,-0.0002981552544457372,-0.007036237046029418
1772794964208066800,3.13406689453125,0.02392155833542347,0.0010153008226538077,-0.005915544186718762
1772794964218110700,3.14411083984375,0.019283961662650107,-0.0050262432222662025,-0.006119359663128853
1772794964228155000,3.15415478515625,0.005815992802381515,0.007301488969649653,-0.014832096820324658
1772794964238198800,3.16419873046875,0.015993687945604323,0.0018368109476345124,-0.004980071701202541
1772794964248243700,3.17424365234375,0.017790508234500884,-0.0068424623313767365,0.007221950610168277
1772794964258287900,3.184287841796875,0.02811784098148346,0.005640120212244801,0.008565318909985945
1772794964268331800,3.194331787109375,0.026622633987665175,0.007363535054924431,0.005649979452555999
1772794964278376000,3.2043759765625,0.017795184409618376,0.007277021248673554,-0.008352406811667606
1772794964288419800,3.214419921875,0.023630466434359548,0.009660619316424708,-0.0019449052563868462
1772794964298464800,3.22446484375,0.011361351969838143,0.007460763193079037,0.003522639434505254
1772794964308509000,3.234509033203125,0.015101707541942596,-0.0018683785546105354,-0.0025211981738451866
1772794964318553000,3.244552978515625,0.029915245792269705,-0.003074820318480488,-0.017040922843059525
1772794964328596700,3.2545966796875,0.01824468174278736,-0.00003179936077212915,-0.002136920697148889
1772794964338642000,3.264641845703125,0.030964462584257123,0.009087267274723853,-0.012885173136787489
1772794964348686000,3.27468603515625,0.02093874313235283,0.01789503262147773,-0.00047448564395308494
1772794964358729700,3.284729736328125,0.02961655510663986,-0.004941102814127225,0.01233171310564503
1772794964368774000,3.29477392578125,0.01779459988772869,0.005572424129251158,0.006453030330594628
1772794964378817800,3.30481787109375,0.02318155362308025,-0.008229944909201004,0.0007750303599517792
1772794964388863000,3.314863037109375,0.023928572598099707,0.004222788202139781,-0.006658736369991675
1772794964398907000,3.324906982421875,0.023334113836288452,0.011046746762446127,0.0021445651474874465
1772794964408950800,3.33495068359375,0.024382746106386185,0.004960856685723411,-0.02128467049319297
1772794964418995000,3.344994873046875,0.013161679390072822,0.01723091529009398,-0.008910707414709031
1772794964429038800,3.355038818359375,0.024086393508315086,-0.0017540634259814395,-0.019314192404132336
1772794964439083800,3.365083740234375,0.021989713490009305,-0.008751122664025751,-0.003822088171960786
1772794964449128000,3.3751279296875,0.02378478021323681,-0.001188871857849881,-0.00040828853994607925
1772794964459171800,3.385171875,0.017951251754164694,-0.007860916375630767,-0.01359784231763333
1772794964469215700,3.3952158203125,0.020496260061860082,-0.007824771916592727,-0.016661531604034826
1772794964479260000,3.405260009765625,0.01376256789267063,-0.004786110898526385,0.01099328584242612
1772794964489304800,3.415304931640625,0.021093056911230087,-0.008483200434350874,0.0019156974282115698
1772794964499349000,3.425348876953125,0.015855740779638288,0.005058680762210861,0.000863229233212769
1772794964509393000,3.435392822265625,0.00957154594361782,0.005472792829811806,0.008386948402086272
1772794964519436800,3.445436767578125,0.008075169906020164,-0.006349807418137788,-0.005828468691464513
1772794964529482000,3.45548193359375,0.007177928805351257,0.0039225231889984565,0.001865675140870735
1772794964539526000,3.46552587890625,0.01002338136434555,-0.00641949110388523,-0.0002440196226350963
1772794964549569800,3.47556982421875,0.0055360068172216415,-0.002354576327599352,-0.014634364024829118
1772794964559614000,3.485614013671875,0.021697452545166016,0.01779161334619857,0.005161145622842014
1772794964569657900,3.495657958984375,0.029627076500654218,0.01156714134927024,0.012147058987431228
1772794964579702800,3.505702880859375,0.0094242464274168,0.003471404720901046,-0.0010931472652591764
1772794964589747000,3.515746826171875,0.008527005326747893,0.008867495035711909,0.01958913688799366
1772794964599790800,3.525790771484375,0.017205986344814298,0.010840799836098449,-0.0018327227193396538
1772794964609835000,3.5358349609375,0.012866495835781097,0.0014231030221213586,-0.0028964338275603947
1772794964619878700,3.545878662109375,0.02693184606730938,-0.005496818734437693,-0.011469926910847425
1772794964629923800,3.555923828125,0.020198153898119926,0.0026641103509406094,0.0132209352966398
1772794964639968000,3.565968017578125,0.020497429105639457,-0.00040390919235069303,0.0006392386184539646
1772794964650012000,3.576011962890625,0.029475100809335707,-0.003709305130003486,-0.0067469169769436114
1772794964660055800,3.586055908203125,0.019748656564950944,0.005864405371237081,0.016421996360272167
1772794964670100000,3.596099853515625,0.020046178206801414,0.01094027358862222,0.01721838003550656
1772794964680145000,3.606144775390625,0.019597849917411803,0.0015589666872110682,0.00767029716586694
1772794964690188800,3.616188720703125,0.018998714980483052,0.0006872847194841597,-0.0020630608764942732
1772794964700233000,3.62623291015625,0.02154255424439907,0.007630347606324357,-0.006570391366258263
1772794964710276900,3.63627685546875,0.024835750570893288,0.0008392056118755136,-0.004392197943804786
1772794964720321800,3.64632177734375,0.014662147080898283,0.003019680039671948,0.006480073601147159
1772794964730365700,3.65636572265625,0.01286766487956047,0.001260295409534592,0.021968679835135115
1772794964740409900,3.666409912109375,0.022594109123945234,-0.009998309713526396,0.0029662933265324682
1772794964750454000,3.6764541015625,0.020797288835048673,-0.008714284085243707,-0.014483036787481978
1772794964760498000,3.686497802734375,0.006283610314130782,-0.0010471526990644634,-0.009447198044741525
1772794964770542800,3.69654296875,0.01032265657186508,-0.004871622341067996,-0.007260949179995805
1772794964780587000,3.7065869140625,0.009124386698007582,0.000026260102551896123,-0.007799631767114624
1772794964790631000,3.716630859375,0.031419805136322976,-0.0049944255951850204,-0.0064970612685661755
1772794964800674800,3.7266748046875,0.01989829416871071,0.000015798074041958898,-0.000797488786932081
1772794964810718700,3.73671875,0.016004793861508368,0.004886266212706687,-0.0002460745824035257
1772794964820764000,3.746763916015625,0.015704349610209466,-0.0016007794102770275,0.00627532654297538
1772794964830807800,3.756807861328125,0.010467033478617667,-0.0019372185652086044,0.0008528813691344112
1772794964840851700,3.766851806640625,0.01525485227704048,0.009777637858793604,0.0011252685697283596
1772794964850896000,3.776895751953125,0.019893617993593214,-0.003555675196071388,0.007869262937223538
1772794964860941000,3.786941162109375,0.030218612653017042,-0.006827174572343938,0.014598105401359498
1772794964870984700,3.796984619140625,0.007325228321552277,-0.015298234761040657,-0.007464609392778948
1772794964881028900,3.80702880859375,0.01136661266684532,-0.005412951259710826,-0.015915754738030953
1772794964891073000,3.817072998046875,0.023037176716327667,0.014401156915508908,-0.011518469627154991
1772794964901117000,3.827116943359375,0.019446458747982977,0.019612010873504913,-0.0017273535155691206
1772794964911161900,3.837161865234375,0.03366203110516071,-0.007665692914341343,0.0029113574020564552
1772794964921205800,3.847205810546875,0.03336100233197212,0.004006678358092904,-0.0162326752000954
1772794964931250000,3.85725,0.021240356427431106,0.01243769651405746,0.008165442005358636
1772794964941294000,3.867294189453125,0.011662380743026732,0.006653733684599865,-0.005072572290245443
1772794964951337700,3.877337646484375,0.02408054828941822,0.008637249351746867,-0.002330662304116413
1772794964961383000,3.8873828125,0.02647591899335384,0.0032222568319994023,0.006578355477005243
1772794964971427000,3.897427001953125,0.027225276055932043,-0.005873025927465641,-0.01011147977290675
1772794964981470700,3.907470703125,0.016301146459579467,-0.006795649206207599,-0.004766903874557465
1772794964991515000,3.917514892578125,0.015253098711371421,0.02084423324931413,0.005674246244132519
1772794965001558800,3.927558837890625,0.013905775755643843,0.0030873921056860125,-0.0018466507799923418
1772794965011603700,3.937603759765625,0.026325112345814704,0.005053652960644103,-0.02195274248048663
1772794965021648000,3.94764794921875,0.017046411868929863,0.003810458241315791,0.010436318679945543
1772794965031691800,3.95769189453125,0.012706336838006973,0.00021692497808835468,0.012471468636207282
1772794965041736000,3.96773583984375,0.02467442252933979,-0.007751488626317586,-0.0077637658692896365
1772794965051780900,3.97778076171875,0.024373978278040883,0.0008892575819685589,0.00307286810670048
1772794965061823700,3.98782373046875,0.015994856989383698,0.00707405058905715,0.000848086463008076
1772794965071868000,3.997867919921875,0.02377367429733276,0.005641652298916597,-0.018902926455810664
1772794965081912800,4.007912841796875,0.023024901756644248,0.0027032790257711893,-0.016095120759773998
1772794965091956700,4.017956787109375,0.03275309956669807,0.00010834432885749265,-0.005509685065876692
1772794965102001000,4.0280009765625,0.016292963153123854,0.0034050169622933026,0.013184512276388704
1772794965112044800,4.038044921875,0.0279635272026062,0.004038232265337137,0.014343107726983726
1772794965122089000,4.0480888671875,0.02212766065597534,-0.0029513355027069336,-0.021871640068292616
1772794965132134000,4.0581337890625,0.012551438537240028,0.0077633297611610025,-0.0029665033890865743
1772794965142177800,4.068177734375,0.028412440013885498,0.008332193999056471,0.010586476873513311
1772794965152222000,4.078221923828125,0.012704583272337913,0.0001384917303046677,-0.00323546565673314
1772794965162265900,4.088265869140625,0.020934066957235334,-0.0018999941106478218,-0.0029855916820466515
1772794965172310300,4.098310302734375,0.022727964636683463,0.003938253906025784,-0.005165566069632768
1772794965182354400,4.1083544921875,0.020331424888968466,-0.012720421303930925,-0.004120587061345577
1772794965192398600,4.118398681640625,0.020627777487039565,-0.003096178200340364,0.0033289069606922566
1772794965202442500,4.1284423828125,0.024219664499163625,0.002213552430202253,-0.02401060659205541
1772794965212486400,4.138486328125,0.00940378816127777,0.004222984564962098,-0.009014332185965031
1772794965222531600,4.148531494140625,0.026163784304261205,-0.002803356708138017,0.0037234957688488065
1772794965232575500,4.158575439453125,0.014492051210999488,-0.002224086382304085,-0.0019606873474083838
1772794965242619400,4.168619384765625,0.023323007920384407,-0.007269423605751944,0.0007052256599068642
1772794965252663300,4.178663330078125,0.02272328846156597,0.010350222715514246,0.007668306138180196
1772794965262707500,4.18870751953125,0.01703939760625362,0.004083892329747323,0.0004643113098107278
1772794965272752600,4.198752685546875,0.008662029883265495,-0.005899601123848697,-0.009247538153640926
1772794965282796300,4.20879638671875,0.01779109275639057,0.00268686218051007,-0.015015691492613404
1772794965292840400,4.21884033203125,0.008211948028206824,0.006202747647243086,-0.0006618614422157406
1772794965302884400,4.22888427734375,0.017637363499402998,0.008260816113144392,0.003903071853145957
1772794965312928500,4.238928466796875,0.017787001103162763,-0.0064972610563214395,-0.007909293553512543
1772794965322973400,4.248973388671875,0.014943302109837532,0.0059922604014514946,-0.005997779110074043
1772794965333017300,4.259017333984375,0.023470307436585423,-0.003876071965077426,-0.015301961088087408
1772794965343061500,4.2690615234375,0.03005260843634605,-0.00791834450964816,-0.0051080089298076925
1772794965353105700,4.279105712890625,0.023169278663396835,-0.002425780683575431,0.005534929104987532
1772794965363149300,4.2891494140625,0.007457914790511131,0.0024238410298828964,0.008118570656329392
1772794965373194500,4.299194580078125,0.035141456007957456,-0.005978742191108176,-0.005315678597427904
1772794965383238700,4.30923876953125,0.027359716090559958,0.008158715437049976,-0.015817929519899188
1772794965393282300,4.3192822265625,0.01568798299729824,-0.009869680648465873,-0.007772332768235355
1772794965403326500,4.329326416015625,0.018231237739324568,0.00039325993417296557,-0.0064374309026636175
1772794965413371600,4.33937158203125,0.026612112593650816,0.0010642887802445329,-0.005946487314254045
1772794965423415300,4.349415283203125,0.01942716952562332,-0.0006574387121363542,-0.003073653557989746
1772794965433459500,4.35945947265625,0.020324995148181913,-0.004243010147905442,-0.01101995465364307
1772794965443504600,4.369504638671875,0.005510872375965118,-0.006123930806969292,-0.005018412683904171
1772794965453548500,4.379548583984375,0.01927811644375324,-0.005742001692630583,0.0005342895397916436
1772794965463592400,4.389592529296875,0.016135726764798162,0.005680484188674018,0.011736103566363454
1772794965473636400,4.39963623046875,0.031097149053215978,-0.016004758470534577,0.00815791628602892
1772794965483680500,4.409680419921875,0.02346563126146793,-0.012613570245838491,-0.004257127721514552
1772794965493725400,4.419725341796875,0.01942424691617489,-0.0010947284426365512,-0.018097473558131603
1772794965503769300,4.429769287109375,0.008949614652991295,-0.006782159536972176,-0.013299425626639275
1772794965513813500,4.4398134765625,0.02271685872077942,-0.009766261373186716,0.0019875936206430194
1772794965523857400,4.449857421875,0.018826281023025512,0.00039295283185201697,-0.011159436189569532
1772794965533902300,4.45990234375,0.023764321947097777,-0.005230072398408083,-0.010725994942057877
1772794965543946500,4.469946533203125,0.006554828470945358,-0.017006690638250437,0.008642649329360574
1772794965553990400,4.479990478515625,0.014632336464524269,-0.0019166792423231526,0.005309212324023246
1772794965564034600,4.49003466796875,0.026302315992116927,0.002881110677553806,-0.012582820056192576
1772794965574078500,4.500078369140625,0.015679799690842627,0.0042369628579646814,-0.016215112143941224
1772794965584123400,4.510123291015625,0.021365444111824033,-0.0018006505055760498,-0.003686780487652868
1772794965594167600,4.52016748046875,0.030190555602312086,-0.005927836271066917,-0.009162124892510472
1772794965604211500,4.53021142578125,0.026749475237727163,-0.007516158058569999,0.001487443812470883
1772794965614255400,4.54025537109375,0.024357027143239972,-0.0144924062623817,-0.0010980426360853016
1772794965624299500,4.550299560546875,0.02016658971607685,-0.0013719562151294667,-0.011432006053254007
1772794965634344400,4.560344482421875,0.026450784552097317,0.007108765709411818,-0.018676899147592484
1772794965644388400,4.570388427734375,0.031087212181091308,0.0054704969830927435,0.00108014165321365
1772794965654432500,4.5804326171875,0.0059486792713403696,0.002329324296978302,0.004121628240961581
1772794965664476400,4.590476318359375,0.01388064131438732,-0.002362240185891278,0.00494468986056745
1772794965674520600,4.6005205078125,0.015075988578796386,0.004032945310510695,-0.013577292719949036
1772794965684565500,4.6105654296875,0.005497428372502326,0.007048981221526628,-0.007717570373695343
1772794965694609400,4.620609375,0.015224457138776779,-0.009997666967776604,-0.007196469109039753
1772794965704653600,4.630653564453125,0.025400398716330527,-0.004010967515787342,-0.006106006991211325
1772794965714697500,4.640697509765625,0.009835749837756156,-0.005935247825965052,-0.011831508498545735
1772794965724741400,4.650741455078125,0.017314707416296003,0.006248680564644746,-0.014988164164870976
1772794965734786600,4.66078662109375,0.02883621838390827,-0.0012920593793329317,-0.014741422862187027
1772794965744830500,4.67083056640625,0.021803251007199285,0.004960521042294567,0.004262936407793313
1772794965754874400,4.680874267578125,0.015815993291139602,0.005584522134065628,-0.001513765563815832
1772794965764918500,4.69091845703125,0.008481412619352341,-0.009552650588547111,-0.013482654972746968
1772794965774963500,4.70096337890625,0.031525603598356246,-0.011161805101524805,0.00015235928380861877
1772794965785007400,4.71100732421875,0.017013678643107412,-0.014460199334588832,0.010938669578358531
1772794965795051300,4.72105126953125,0.010430208599567413,0.008663356473960448,0.002884012737404555
1772794965805095400,4.731095458984375,0.026141572472453117,0.006392961573274806,0.0019574907433241606
1772794965815139600,4.7411396484375,0.01731178480684757,-0.007054600394848966,-0.005772354590054601
1772794965825184300,4.751184326171875,0.01326981593966484,0.0013094340641750023,-0.016055117542948572
1772794965835228400,4.761228515625,0.011773439902067183,-0.007515713958931155,-0.004509476781077683
1772794965845272600,4.7712724609375,0.029583237358927726,-0.000773373834049562,0.0015213826146908103
1772794965855316500,4.78131640625,0.020156652843952176,0.005684993683721404,-0.002479231328796595
1772794965865360400,4.7913603515625,0.024945640686154364,0.015203066149231744,0.0011375343962572513
1772794965875405600,4.801405517578125,0.018062310913205145,-0.0012360229097364936,0.010742745147459208
1772794965885449500,4.811449462890625,0.0140209265679121,-0.008943706643657059,-0.012709350779000669
1772794965895493600,4.82149365234375,0.027938392761349677,-0.008315732629667037,-0.0015874335882253945
1772794965905537300,4.831537353515625,0.014021511089801788,-0.008030496222298825,0.0018335173037834465
1772794965915581400,4.84158154296875,0.015966215416789054,-0.007220890022598905,-0.01976646621627733
1772794965925626600,4.851626708984375,0.035119828698039056,-0.004049418096343288,-0.0031435221901163456
1772794965935670300,4.861670166015625,0.01282324121594429,0.013626269261096603,-0.001072305406630039
1772794965945714400,4.87171435546875,0.008783610436320304,0.003318225736473687,-0.006412972314842045
1772794965955758600,4.881758544921875,0.011326865178346633,-0.012610107638628687,-0.012436653051152824
1772794965965802500,4.891802490234375,0.01851180824637413,-0.0012945835549151524,-0.00017566709415987132
1772794965975847400,4.901847412109375,0.02464519643485546,0.009152513389015803,-0.00027971199052408336
1772794965985891300,4.911891357421875,0.02584288178682327,0.005610448876477312,-0.009647515522968024
1772794965995935500,4.921935546875,0.03063128510713577,-0.016776236033375608,-0.001842851387709379
1772794966005979600,4.931979736328125,0.020903671818971632,-0.021106035123812032,-0.01958088051630184
1772794966016024300,4.9420244140625,0.030476971328258513,-0.008518119909038068,0.00042419849513098594
1772794966026068500,4.952068359375,0.019253566524386406,0.004969216947047971,-0.006494111259654164
1772794966036112600,4.962112548828125,0.01431552560031414,-0.005190537255752133,-0.0022839644850231704
1772794966046156300,4.97215625,0.007581248909235,-0.001516039719292894,0.004432338157948106
1772794966056200400,4.982200439453125,0.020598551392555235,-0.00920253795964527,-0.0013572232952341436
1772794966066245600,4.99224560546875,0.018500702330470083,0.010915561555762543,-0.009025474634487182
1772794966076289500,5.00228955078125,0.012066285368800162,0.0025248000616615173,0.0008771116280928253
1772794966086333400,5.01233349609375,0.009823474878072738,-0.005175423026655334,-0.018904205097444355
1772794966096377300,5.02237744140625,0.021795067700743673,0.01132410011581378,-0.009883936361037194
1772794966106421500,5.03242138671875,0.010422609815001488,0.005003543908335268,-0.01722295574592426
1772794966116466400,5.042466552734375,0.023739772027730942,0.006033195200038608,-0.0071003883234225205
1772794966126510300,5.05251025390625,0.009520692539215087,0.0007900852235441561,-0.018824637055210768
1772794966136554500,5.062554443359375,0.01774842265844345,0.0073210236455372064,-0.0005797543830238282
1772794966146598400,5.072598388671875,0.032711598512530325,0.0023397132602520285,-0.02094665244417265
1772794966156642600,5.082642578125,0.02073766760230064,-0.0031098197082697876,-0.017526085144653914
1772794966166687500,5.0926875,0.016100070929527283,0.0012943723507167304,-0.011504943425301463
1772794966176732000,5.10273193359375,0.015052607703208922,0.002411469030432636,-0.0094110764185898
1772794966186775800,5.11277587890625,0.024629414343833922,0.004515504663065076,0.004495557853579521
1772794966196819700,5.12281982421875,0.016249124011397362,-0.011984368964208987,-0.005105853505339473
1772794966206864000,5.13286376953125,0.014454641810059546,-0.009709520509047434,-0.007265059099532663
1772794966216909000,5.142908935546875,0.012811550778150558,0.004561734407988842,0.00039732875451445576
1772794966226952700,5.15295263671875,0.03286357420384884,-0.0020711300185183063,0.0011966989712789654
1772794966236996900,5.162996826171875,0.020892565903067588,-0.01741575435468694,0.0055332668708637355
1772794966247040800,5.173040771484375,0.02164309200942516,0.0025511651954904665,-0.007053900566883385
1772794966257085000,5.1830849609375,0.01730652410984039,0.005886614919756539,-0.0035655652607791124
1772794966267129900,5.1931298828125,0.02059972043633461,0.004656970376812387,-0.003808488904871046
1772794966277173800,5.203173828125,0.018205518776178358,-0.0011520401289337313,0.00771377098141238
1772794966287218000,5.213218017578125,0.017009586989879606,0.009770994630519999,-0.01660875110402703
1772794966297261800,5.22326171875,0.020600304958224295,0.005216675202362239,-0.022038082676380872
1772794966307305700,5.2333056640625,0.02793137849867344,-0.007829095323616638,-0.011484503425471485
1772794966317351000,5.243350830078125,0.02164484557509422,-0.005463093419704819,-0.00037418534094467757
1772794966327394800,5.253394775390625,0.011018822142481803,-0.011694499764207285,0.011038750685658304
1772794966337438700,5.263438720703125,0.009521277061104774,0.006420434102090075,-0.008221811835095285
1772794966347483000,5.27348291015625,0.024483283871412277,0.004686119981127558,-0.00624079408571124
1772794966357526800,5.28352685546875,0.026130466556549072,0.0009026753276120871,-0.013659418045450001
1772794966367571700,5.29357177734375,0.0316670578956604,0.0024754970102396326,-0.0037965792713686823
1772794966377616000,5.303615966796875,0.02328793660700321,0.007100410014664521,0.004964801066834479
1772794966387659800,5.31365966796875,0.028674305820465085,-0.008916481851658317,-0.0149890044150874
1772794966397704000,5.323703857421875,0.023285598519444464,-0.002448575895628892,-0.01420251194620505
1772794966407748900,5.333748779296875,0.028522330129146574,-0.0025947577420447486,-0.016932338768895716
1772794966417792800,5.343792724609375,0.020292261922359466,0.0057703624207235404,-0.010219104865845293
1772794966427837000,5.3538369140625,0.022387188374996186,-0.003176198333723005,-0.0054077225287444885
1772794966437880800,5.363880859375,0.029421909317374227,0.003625935412198305,0.004258899553492665
1772794966447924700,5.3739248046875,0.020894319468736648,-0.006049596062279306,-0.004313095692452043
1772794966457970000,5.383969970703125,0.01296177290380001,-0.000832476760278223,-0.004726188271678984
1772794966468013800,5.394013916015625,0.017450316494703293,-0.007770221867895452,-0.004474168005678803
1772794966478058000,5.40405810546875,0.014608371067047118,-0.006003556971956277,-0.00856998595194891
1772794966488101600,5.4141015625,0.009671499186754227,0.008751097547850804,-0.0008785546665079891
1772794966498145800,5.424145751953125,0.00982289035618305,0.0012643927709839772,-0.0025365692729130388
1772794966508191000,5.43419091796875,0.009224339941143989,0.010567322365182917,-0.00016390359112992883
1772794966518234600,5.444234619140625,0.009973697003722191,-0.001300192453438649,0.001709635195787996
1772794966528278800,5.45427880859375,0.016558336091041563,0.0047379026840033475,0.0008700060338713228
1772794966538323000,5.464322998046875,0.023592472511529922,0.012677367613493697,0.0114147443911992
1772794966548366800,5.474366943359375,0.015061960053443908,0.005640937629574909,0.0008795593135058879
1772794966558411800,5.484411865234375,0.02673310862481594,0.006497039577324176,-0.0015313194868154822
1772794966568456000,5.4944560546875,0.028980595290660858,0.001113561007269891,-0.013328341193869709
1772794966578499800,5.504499755859375,0.02643500246107578,-0.008526715349091682,0.0027270503437146544
1772794966588544000,5.5145439453125,0.025236148065328597,-0.004474222804605961,0.0002069390152581036
1772794966598587600,5.524587646484375,0.016258476361632346,-0.0008169115816766861,-0.011303867895249276
1772794966608632800,5.5346328125,0.019701894813776016,-0.0067881508863414635,-0.01732716503906995
1772794966618677000,5.544677001953125,0.026585224586725232,-0.005191213109187083,-0.007459942350815981
1772794966628720600,5.554720703125,0.016110007801651952,0.0007608157465758267,-0.0019495996978133915
1772794966638764800,5.564764892578125,0.018353987336158752,0.0005450404043134767,-0.006197667330037802
1772794966648808700,5.57480859375,0.017157471027970314,-0.0012523735396272968,-0.006881557940971106
1772794966658854000,5.58485400390625,0.0277805718511343,-0.008408525479654781,-0.009647880849149077
1772794966668897800,5.594897705078125,0.020597382348775863,-0.0037925526918668765,0.0027317447851412
1772794966678941700,5.604941650390625,0.02688157718479633,0.0005136349108302965,0.004632043714821338
1772794966688985900,5.61498583984375,0.023889409631490707,-0.009672503833752125,-0.013149587093479931
1772794966699030000,5.625030029296875,0.02284019283950329,0.0015064122327778022,-0.011762388785090297
1772794966709074700,5.63507470703125,0.02313946804702282,-0.004825322955840965,-0.007738046906143426
1772794966719118800,5.645118896484375,0.02059621330499649,0.015384942646825219,-0.02611844732519239
1772794966729163000,5.6551630859375,0.021495792493224142,-0.00624853557581664,-0.001633208958711475
1772794966739207000,5.66520703125,0.02598667417168617,0.0012417185732279904,-0.0012348938235081733
1772794966749250800,5.675250732421875,0.009225508984923362,-0.00815990617207135,-0.005956862577795982
1772794966759296000,5.6852958984375,0.02119534824192524,-0.006082045018667122,0.003970565865095705
1772794966769340000,5.69533984375,0.022540917631983754,-0.0026758692873932884,-0.0014765022933483122
1772794966779383800,5.7053837890625,0.02867547486424446,0.0016882202317123301,-0.017200597783643752
1772794966789427700,5.715427734375,0.023888240587711333,-0.004504195534472819,-0.013089344806224108
1772794966799471900,5.725471923828125,0.025982582518458364,0.006571568401547847,-0.007723105065338313
1772794966809516800,5.735516845703125,0.026282442247867584,0.003663259189814562,-0.012795695621892809
1772794966819560700,5.745560791015625,0.004285714495182037,0.007807333299668971,-0.01549335547434166
1772794966829604900,5.75560498046875,0.017903320959210395,0.0007894812937011011,-0.006762169345002621
1772794966839648800,5.765648681640625,0.025386370190978048,0.018139829703891882,0.007375095345266163
1772794966849693000,5.77569287109375,0.012367314141988753,0.017852771232195662,-0.009268544409051538
1772794966859737900,5.78573779296875,0.020297522619366643,-0.0014478378878673539,0.008358663022518158
1772794966869781800,5.79578173828125,0.014012158739566802,-0.004371462258097017,-0.006058222326729447
1772794966879826000,5.805825927734375,0.014309680381417274,-0.005973080776946153,-0.018140088857151567
1772794966889869800,5.815869873046875,0.021041618984937668,-0.006699312692263629,-0.008970840104110539
1772794966899913700,5.825913818359375,0.01146422782242298,0.003149903981841635,-0.006145535284001379
1772794966909959000,5.835958984375,0.019994155758619306,-0.004703738977853209,-0.004954718064237386
1772794966920002800,5.8460029296875,0.028821605336666105,-0.01733512914981693,0.0003642484688200056
1772794966930046700,5.856046630859375,0.019244798696041107,-0.004794350145553471,0.007386329125333577
1772794966940091000,5.8660908203125,0.02597615277767181,0.005560382065008161,-0.005316007390990853
1772794966950136000,5.876135986328125,0.014603694891929626,-0.015452543973340652,0.0048730493964627385
1772794966960179700,5.8861796875,0.00966565396785736,-0.004216283112828387,-0.006046513622626662
1772794966970223900,5.896223876953125,0.03390869934260845,-0.02319040364981629,0.0030585473204031584
1772794966980267800,5.906267822265625,0.013707038313150404,0.004751472268340876,-0.00880532907778397
1772794966990312000,5.91631201171875,0.021937106519937515,-0.0042946432953758626,-0.0023695786755532026
1772794967000356900,5.92635693359375,0.004577975440025329,-0.000947267954587005,0.0002794379958882928
1772794967010400800,5.93640087890625,0.018192659294605253,0.0015151663613913115,0.008084394392091781
1772794967020445000,5.94644482421875,0.01684533633887768,-0.011437054404418449,-0.0055744391314685345
1772794967030488800,5.95648876953125,0.01684533633887768,-0.002914659037417732,-0.0022667210892774164
1772794967040532700,5.96653271484375,0.018044190734624863,0.004605623782065231,-0.004694313562382012
1772794967050578000,5.976577880859375,0.026574118670821188,-0.009912556242389837,-0.016347524618264286
1772794967060621800,5.986621826171875,0.021785130828619003,0.0017973568617249839,-0.004702204607892781
1772794967070665700,5.996665771484375,0.008618775263428687,0.0027943434262648224,-0.002506996118556708
1772794967080710000,6.0067099609375,0.014902970099449157,-0.0029698164408910087,0.00031255481420084833
1772794967090753800,6.01675390625,0.01699906559586525,-0.0007766435033699963,-0.006812767021078616
1772794967100798700,6.026798828125,0.010115151301026344,-0.008712295340845593,-0.00697475264975801
1772794967110843000,6.0368427734375,0.024181670576333997,-0.013844560787430963,0.00471049751220271
1772794967120886800,6.04688671875,0.029718261915445326,-0.009152230261225486,-0.007250409519672393
1772794967130931000,6.056930908203125,0.01685001251399517,0.00473467183058965,-0.018439017004799097
1772794967140974800,6.066974853515625,0.020142039796710014,-0.008642733811039943,-0.0013707586302421986
1772794967151019800,6.077019775390625,0.02343523612320423,0.0036208128541533368,0.015028642305731773
1772794967161064000,6.08706396484375,0.018946692532300947,0.00338342732663732,-0.006785842481534928
1772794967171107800,6.09710791015625,0.03136836721003056,0.005476549981255084,0.0018511808246374128
1772794967181152000,6.107152099609375,0.01790098287165165,0.007233797453233273,-0.0011530972915701568
1772794967191196200,6.117196044921875,0.008622866916656494,-0.0012340969557757488,-0.013435783623717725
1772794967201241000,6.127240966796875,0.018500117808580397,-0.0004239130840520374,0.0065378956024535
1772794967211285000,6.137284912109375,0.015057283878326415,0.004148889565578429,-0.01641370345596224
1772794967221329200,6.1473291015625,0.032116555228829384,-0.008302658518962561,0.0003600289514288306
1772794967231373000,6.157373046875,0.024336568877100943,0.004272773956862511,0.0047393217478878796
1772794967241417200,6.167417236328125,0.018801731103658674,-0.006207867921999423,0.002605469790659845
1772794967251462100,6.177462158203125,0.02583469848036766,-0.002407445875863777,0.013823705229070038
1772794967261506000,6.187506103515625,0.031520927423238754,0.005234153776837047,-0.009696085638739168
1772794967271550200,6.19755029296875,0.009374562066793442,0.0021423697654681744,-0.012680764005333184
1772794967281594000,6.207593994140625,0.01955050364434719,0.011967283115378813,0.009363182156253605
1772794967291638000,6.217637939453125,-0.0001999064862728119,-0.006342780597374076,0.0057599882988259195
1772794967301683200,6.22768310546875,0.02598725869357586,0.010786540906701702,-0.006788874688837676
1772794967311727000,6.23772705078125,0.021198855373263357,-0.019326914888387545,-0.0012569595248438418
1772794967321771300,6.247771240234375,0.025090602114796638,-0.012294842560822144,-0.0053438087133690715
1772794967331815000,6.25781494140625,0.0005517886638641358,-0.01963526845150627,-0.015144907362852244
1772794967341859000,6.267859130859375,0.017760697618126868,-0.005292018018983071,0.0027082908443175255
1772794967351904300,6.277904296875,0.025842297264933586,-0.00007138587742228992,-0.01378996735624969
1772794967361948000,6.287947998046875,0.015217442876100539,-0.0011181915166147518,-0.008153203578293322
1772794967371992000,6.297991943359375,0.03212649210095406,0.007137418698449619,-0.00367673401767388
1772794967382036200,6.3080361328125,0.02210018812716007,-0.0011239168628584594,-0.005334237167425453
1772794967392080100,6.318080078125,0.015366495957970619,0.0030020667511678764,0.0003544759934768081
1772794967402125000,6.328125,0.03212532305717468,0.010373612724256236,0.008534932904876768
1772794967412169200,6.338169189453125,0.01850654754936695,-0.00399321608832106,-0.012220215555187314
1772794967422213000,6.348213134765625,0.023592472511529922,-0.009225639132375363,-0.008291132477950304
1772794967432257300,6.35825732421875,-0.0006488192975521087,0.005564835619484074,-0.010828797729406505
1772794967442301000,6.368301025390625,0.021050386813282966,0.005739671596582048,-0.00386737948525697
1772794967452346000,6.37834619140625,0.007582417953014373,-0.0021045379561313894,0.0011657558437436818
1772794967462390300,6.388390380859375,0.00803133076429367,0.0006153919519856572,-0.01677438999451697
1772794967472434000,6.398433837890625,0.01656067417860031,-0.00834778543547727,-0.004502225056383758
1772794967482478000,6.40847802734375,0.0292792859762907,-0.011539145947358338,-0.005597673876583576
1772794967492522200,6.418522216796875,0.010426701468229294,-0.017208370098145676,-0.0124756333546713
1772794967502567200,6.428567138671875,0.03182663237154484,0.004155053303239401,-0.016549714393168685
1772794967512611000,6.438611083984375,0.015367665001749992,0.0035321162239706607,-0.023663857247307896
1772794967522655000,6.448655029296875,0.03062953154146671,-0.009345905652822693,-0.005039144944678992
1772794967532699100,6.45869921875,0.02389525485038757,0.011361742412194143,0.009314447643700987
1772794967542743300,6.468743408203125,0.022100772649049756,0.009033264073653844,-0.01638097023013979
1772794967552788000,6.4787880859375,0.012374328404664993,-0.0014192385561123955,-0.00393421591008082
1772794967562832100,6.48883203125,0.02120353154838085,0.009529952416260493,0.006128967741690576
1772794967572876300,6.498876220703125,0.013273907592892646,0.010118097885005409,-0.0042638497232459485
1772794967582920200,6.508920166015625,0.020754034215211867,-0.00037732372116879557,-0.01665571378460154
1772794967592964000,6.518964111328125,0.021354922717809675,0.00015951168544706888,0.003820051478501409
1772794967603009300,6.52900927734375,0.0255453601449728,-0.0020947004070621914,-0.007062558797374367
1772794967613053200,6.53905322265625,0.013573182800412177,0.018026899389817844,0.0003088832860812545
1772794967623097000,6.54909716796875,0.01970774003267288,-0.02069004733460024,0.007604593252204358
1772794967633141000,6.55914111328125,0.016566519397497176,-0.011832512003899318,-0.018957816714514047
1772794967643185200,6.56918505859375,0.0065413844674825665,0.008187607029749779,-0.00995566815668717
1772794967653230000,6.57922998046875,0.02883972551524639,0.013246330032800324,0.005327387301530689
1772794967663274000,6.58927392578125,0.01253039574921131,-0.004243844689900288,0.0010550254782661795
1772794967673318100,6.599318115234375,0.015823592075705526,-0.0036960734723834317,-0.01115300644878298
1772794967683362000,6.609362060546875,0.01402794083058834,-0.0034438808180915657,-0.023263478019181636
1772794967693406200,6.61940625,0.021211130332946776,0.006147215784434229,-0.00539720113473013
1772794967703451100,6.629451171875,0.01866787559092045,-0.002089666897273855,-0.01657910488443449
1772794967713495000,6.6394951171875,0.012683540484309195,0.00401246649477398,-0.01592886081477627
1772794967723539200,6.649539306640625,0.019118541967868805,0.0010500193679414222,0.0017816775186918674
1772794967733583000,6.6595830078125,0.019417232653498647,0.0029781013536907264,-0.010822861178964376
1772794967743627000,6.669626953125,0.022859482061862946,0.01036525132128736,-0.0034460305343382057
1772794967753672200,6.679672119140625,0.030045594173669813,-0.008878946869843638,-0.000090637425519526
1772794967763716000,6.689716064453125,0.01598082846403122,0.0005042928353941533,-0.005381473842635751
1772794967773760000,6.699760009765625,0.019122049099206923,0.0052217966187628915,-0.004319196639675647
1772794967783804200,6.70980419921875,0.024358780708909032,-0.009209467740642139,0.013921521314047277
1772794967793848000,6.71984814453125,0.013286182552576064,0.003960722607804928,-0.010144212998729198
1772794967803893000,6.72989306640625,0.0240595055013895,-0.008087733701715479,0.0024117190505377945
1772794967813937200,6.739937255859375,0.02301613392829895,-0.00459578166641877,-0.006335194370895624
1772794967823981000,6.74998095703125,0.026759412109851836,0.003217369452683488,-0.00816027263989672
1772794967834025200,6.760025146484375,0.03394435517787933,0.01197607605989906,0.00010725976675748824
1772794967844069000,6.770069091796875,0.00910451295375824,-0.002718928686052095,0.0018733926564455032
1772794967854114000,6.780114013671875,0.021972762355208397,0.007575909438770031,0.004526939372532069
1772794967864158200,6.790158203125,0.025711948883533477,-0.010848545892781112,-0.01293713165288791
1772794967874202000,6.8002021484375,0.010448328778147697,-0.005702004184026737,-0.01372786190547049
1772794967884246000,6.81024609375,0.020025135418772697,0.006723125109402463,0.0045384106146171685
1772794967894290200,6.820290283203125,0.012694061878323554,0.009757975318742682,-0.000023179946187883614
1772794967904335000,6.830335205078125,0.012841945916414261,-0.01496702890365268,0.0064209729582071304
1772794967914379000,6.84037890625,0.026309330254793165,0.006694838588190032,0.012114234430063516
1772794967924423200,6.850423095703125,0.011346738922595977,-0.00444298284954857,-0.015075239660125224
1772794967934467000,6.860467041015625,0.014340660041570663,-0.005088953744532773,-0.003291314896661788
1772794967944511200,6.87051123046875,0.016285948890447616,-0.0022161782121285795,-0.011366758797317742
1772794967954556200,6.88055615234375,0.004316694155335426,-0.005036286267312244,-0.01217319807568565
1772794967964600000,6.89060009765625,0.012996844217181206,-0.006214580790576292,-0.005061009716615081
1772794967974644200,6.900644287109375,0.021526187631487847,-0.004016617513506207,0.0004668868593871593
1772794967984688000,6.910688232421875,0.014192191481590271,-0.0022313198406889567,-0.007735526155494153
1772794967994732000,6.92073193359375,0.02062660844326019,-0.006782142412307439,-0.00011107742534950375
1772794968004777200,6.930777099609375,0.024818214914202687,0.0123929200823477,-0.008237685257662088
1772794968014821000,6.940821044921875,0.014791326418519019,-0.0024081833780917805,-0.0036622123019769788
1772794968024865000,6.950864990234375,0.008359832066297531,-0.002218193214345956,0.00968057754235342
1772794968034909000,6.960908935546875,0.020482231536507606,-0.006457569508394226,-0.014153247710689902
1772794968044953000,6.970953125,0.038439913031458856,-0.007439274022122844,-0.00794283049693331
1772794968054998300,6.980998291015625,0.029761516535282133,0.004300215661281254,-0.0059467247762717305
1772794968065042000,6.9910419921875,0.00731762953698635,-0.0027391586233279667,-0.0043273708129767325
1772794968075086000,7.001086181640625,0.011508066964149475,0.003290847964136628,-0.003974620985705405
1772794968085130200,7.011130126953125,0.023326515051722525,-0.005776881209766725,0.00019181451136246323
1772794968095174100,7.021174072265625,0.0010328501790761947,-0.004719461703370325,-0.0031269546478055418
1772794968105218000,7.031218017578125,0.020634791749715803,0.00028145870632724837,-0.010342749511823058
1772794968115263200,7.04126318359375,0.014649287599325178,0.003806931702024303,-0.014699483416602014
1772794968125307100,7.05130712890625,0.02661854233443737,-0.003035994136944646,-0.03167929632272571
1772794968135351300,7.061351318359375,0.026619126856327054,-0.0017709768865199294,-0.003839285901933908
1772794968145395000,7.07139501953125,0.014646364989876747,0.009443186306615826,-0.01667942345375195
1772794968155440000,7.081440185546875,0.012402969977259636,-0.002794044315454084,-0.0016075082618743181
1772794968165484300,7.091484375,0.017489479461312293,-0.0054028031833877315,-0.002713825535960495
1772794968175527200,7.101527099609375,0.031556583258509636,-0.006689044743287377,0.003168638365063816
1772794968185571000,7.111571044921875,0.018088029876351355,0.0037176334252872036,-0.005889660826791077
1772794968195615000,7.121614990234375,0.01075578729212284,0.0004332117770041805,-0.0049711394760757685
1772794968205659100,7.1316591796875,0.024970775127410888,-0.00871578991409624,-0.006054532532300799
1772794968215704000,7.1417041015625,0.019881927555799483,-0.00857036611950607,-0.0016414835967123508
1772794968225748000,7.151748046875,0.014796587115526198,-0.006921362511685583,0.01047286043120548
1772794968235792100,7.161792236328125,0.026619126856327054,0.001543603579653427,-0.006973163480870425
1772794968245836000,7.1718359375,0.03275485313236713,-0.0006654393555014394,-0.015459361873194575
1772794968255880200,7.181880126953125,0.01494680924117565,0.010105948506196727,-0.01941441964190453
1772794968265925000,7.191925048828125,0.019436521875858304,0.00031312906129169274,-0.01652529233796522
1772794968275969000,7.201968994140625,0.01599602603316307,0.004585004544077674,-0.019904760442115366
1772794968286013200,7.21201318359375,0.017193126863241193,-0.0011574697892996482,0.002563932203873992
1772794968296057000,7.22205712890625,0.0221294142216444,-0.011026339870301308,-0.01786090658959001
1772794968306101000,7.23210107421875,0.0038718729972839353,-0.003690479415236041,-0.009904102366231382
1772794968316146200,7.242146240234375,0.024672084441781043,-0.008135928216506726,-0.0013186631168238818
1772794968326190000,7.252190185546875,0.01674187596440315,0.0073871488259523175,-0.005011270557064563
1772794968336234000,7.26223388671875,0.021381226202845573,0.00717020558155491,0.0056278132865205405
1772794968346278100,7.272278076171875,0.0233276840955019,-0.007399644122988684,-0.002815167018584907
1772794968356322000,7.282322021484375,0.025272388422489165,0.005037408503674669,-0.012594492227677254
1772794968366367000,7.292366943359375,0.01584521938562393,0.002486226183519466,-0.0027232509514316917
1772794968376411000,7.302410888671875,0.02362520573735237,0.011134786947147222,-0.0009754391697235405
1772794968386455000,7.312455078125,0.010756956335902214,-0.0062681878410687205,-0.013488226197008043
1772794968396499200,7.322499267578125,0.01270166066288948,-0.0032434137844596987,0.0020107735668309034
1772794968406543000,7.332543212890625,0.0020779753178358077,-0.0052621628784807395,-0.005744315805658698
1772794968416588000,7.342588134765625,0.01703939760625362,0.008989174911822191,-0.012463175731897353
1772794968426632200,7.352632080078125,0.017489479461312293,0.015165995816653594,-0.0020528774091973898
1772794968436676000,7.362676025390625,0.02736789939701557,-0.0023003676305525,-0.004304592725588008
1772794968446720000,7.372719970703125,0.017194295907020568,-0.0036403155640000475,0.012426862309500575
1772794968456764000,7.382763916015625,0.024675591573119163,0.01001742312266142,0.007769729819195345
1772794968466809000,7.39280908203125,0.027820319339632988,-0.0019771475751535037,-0.0023905392651911825
1772794968476853200,7.402853271484375,0.029169395861029623,0.007221444861736381,0.01468044078941457
1772794968486897000,7.41289697265625,0.018996376892924306,0.0030094543315353803,-0.012713223236519843
1772794968496941000,7.422941162109375,0.018697686207294464,0.004158207666483941,-0.01252035841238685
1772794968506985200,7.432985107421875,0.015406243446469306,-0.004485404069034848,0.01816707732877694
1772794968517030000,7.44302978515625,0.015554712006449698,-0.0009125825169845484,-0.008255449243215843
1772794968527074000,7.453073974609375,0.017798691540956497,0.0029240490619151386,-0.007980970550235361
1772794968537118200,7.4631181640625,0.023334113836288452,0.003733300210232846,-0.0016178378596436232
1772794968547162000,7.473162109375,0.017945991057157516,-0.0016509558196004944,-0.008260171084105967
1772794968557206300,7.483206298828125,0.023783026647567748,0.003943031687487383,-0.015855576382856815
1772794968567251000,7.4932509765625,0.026030513313412666,0.01304308537854813,0.00034032873711548745
1772794968577295000,7.503295166015625,0.01645487571656704,-0.003110078861529473,0.0010322839234955608
1772794968587339300,7.51333935546875,0.030969723281264305,-0.004815510522946715,-0.010930979462247341
1772794968597383000,7.5233828125,0.02198912896811962,0.011322056572488508,-0.006020137072354555
1772794968607427000,7.533427001953125,0.010168927314877509,-0.005696025392744923,-0.00804082011184655
1772794968617472300,7.54347216796875,0.02588029118776321,-0.015094019709120037,0.009110741765145211
1772794968627516000,7.553515869140625,0.02079261265993118,-0.006471680232137441,-0.0038986970721278337
1772794968637560000,7.56356005859375,0.023336451923847198,0.0006728863013733643,0.0001421210175845772
1772794968647604000,7.57360400390625,0.016452537629008293,0.004942948852985864,-0.0028654267679434266
1772794968657648000,7.583648193359375,0.018998130458593367,-0.0065004119946330315,0.003354205798730254
1772794968667692300,7.5936923828125,0.0170534261316061,0.012078758974594529,0.012805230635218321
1772794968677737000,7.603737060546875,0.0180991357922554,0.005152207689493662,-0.01183029378899373
1772794968687781000,7.613781005859375,0.03007014409303665,0.0007440153088246007,-0.013914415719825773
1772794968697825300,7.6238251953125,0.023186229798197743,0.015968303484242642,-0.011385609628260135
1772794968707869000,7.633868896484375,0.023334113836288452,0.009780940635799196,-0.010025436324113979
1772794968717913000,7.6439130859375,0.01555120487511158,0.015026200328540289,0.009174573382129892
1772794968727958000,7.6539580078125,0.01210953998863697,-0.00012588797705830073,-0.01177162240431644
1772794968738002200,7.664002197265625,0.014206220006942749,0.01101996835337486,-0.00838672920637764
1772794968748046000,7.674046142578125,0.013756722673773765,0.004980322862952016,0.007599496951978653
1772794968758090000,7.684090087890625,0.021836568754911422,0.003638704703870462,0.0077382478355430065
1772794968768134100,7.694134033203125,0.013905775755643843,0.0021138617652584797,-0.005265619777468964
1772794968778179000,7.704178955078125,0.023930910685658453,-0.003041309632878983,-0.0074118380259256805
1772794968788223000,7.714222900390625,0.023780104038119313,-0.0050966404357110145,-0.00822598568671383
1772794968798267100,7.72426708984375,0.02647474994957447,-0.0031468717745388856,-0.0033582061204127964
1772794968808311000,7.73431103515625,0.00956628524661064,-0.011973074676992837,-0.011285172327933832
1772794968818355200,7.744355224609375,0.03979425024986267,0.0033434811920276843,-0.008221711370395497
1772794968828400000,7.754400146484375,0.03126490683555603,-0.0001537475232966244,-0.0028132764555979517
1772794968838444000,7.764444091796875,0.0061252048820257185,0.004046857388142961,-0.0036032577895093705
1772794968848488200,7.77448828125,0.015253683233261107,0.010045931122871115,-0.002094214066583663
1772794968858532000,7.784531982421875,0.022585341295599935,0.016404744973016205,-0.008707028935616836
1772794968868576000,7.794575927734375,0.016598668101429938,-0.00525538493617787,0.00006620623716153204
1772794968878621200,7.80462109375,0.024977789390087126,-0.006755137957661645,-0.016137078471668065
1772794968888665000,7.8146650390625,0.0164478614538908,-0.007921283102117012,-0.0052456821011379355
1772794968898709000,7.824708984375,0.014500819039344786,-0.0023334307915822135,-0.011023754045926034
1772794968908753200,7.834753173828125,0.020038579422235487,0.006350496971304528,0.0014353665653616188
1772794968918797000,7.844797119140625,0.02347965978682041,0.0059326186191057785,0.009779517005337402
1772794968928842000,7.854842041015625,0.021086042648553845,-0.0025131084822234695,0.012958430169243364
1772794968938886100,7.86488623046875,0.033955461093783376,-0.0007669109855778515,-0.003907008242746815
1772794968948930000,7.874929931640625,0.01120762271285057,0.0019065539988863747,0.003534622133243829
1772794968958974200,7.88497412109375,0.026171383088827133,0.016067483834177256,-0.010237252443889155
1772794968969017900,7.895017822265625,0.006418050348758697,0.00026488431415054944,-0.014358277896651997
1772794968979063000,7.90506298828125,0.023477321699261665,-0.001786254370753886,-0.018090532360691577
1772794968989107200,7.915107177734375,0.020483985102176666,-0.016131178453844038,0.009127948628272861
1772794968999151000,7.925151123046875,0.021681670454144476,-0.004897908701439155,-0.000878655131207779
1772794969009195000,7.935195068359375,0.0031260230660438535,-0.0006770464532601181,0.005510689712874591
1772794969019239200,7.9452392578125,0.020333178454637526,-0.002595576301019173,-0.00653351168828085
1772794969029283000,7.955282958984375,0.011802665996551514,0.0005713587307254784,-0.002714574454631656
1772794969039328000,7.965327880859375,0.014945640197396278,-0.00020545944422483442,-0.001926858143042773
1772794969049372200,7.9753720703125,0.00746492905318737,-0.003812722121994011,-0.005765614322014153
1772794969059416000,7.985416015625,0.015095277801156043,0.008544367453502491,0.015247911079600452
1772794969069460200,7.995460205078125,0.022574819901585576,0.00195764829023974,0.008078677037358284
1772794969079504100,8.005504150390625,0.010903671330213546,-0.007144226323504699,0.0020121800726279615
1772794969089548000,8.015548095703124,0.018086276310682294,-0.007344114543468458,0.0021561368542723355
1772794969099592000,8.025592041015624,0.022722703939676285,-0.00653566711274907,0.0027491160450503226
1772794969109636000,8.035635986328124,0.025562895801663398,0.0048973915365641005,0.003147778240125626
1772794969119681000,8.045680908203124,0.01927694739997387,-0.0020915928512346,-0.004702880461327732
1772794969129725000,8.055724853515626,0.029005145210027693,-0.00011436421933467499,0.007387954826839268
1772794969139769000,8.06576904296875,0.022272622084617614,0.0036448193508258554,0.0008715221375226974
1772794969149813200,8.075813232421876,0.01733282759487629,0.010519889327150303,-0.010312774498667568
1772794969159857200,8.085857177734376,0.019725860211253166,0.0071393971680488895,-0.014441252605523914
1772794969169902000,8.095902099609376,0.011644845086336135,-0.013353781595802866,0.011871109856572002
1772794969179946800,8.10594677734375,0.026906711626052855,0.006182236865465529,-0.016779248832724986
1772794969189990700,8.11599072265625,0.010447159734368324,-0.009032432956591946,-0.019469419498462228
1772794969200034800,8.126034912109375,0.022268530431389807,-0.0031488913433335253,0.006855802445206791
1772794969210078700,8.13607861328125,0.014337152910232543,0.006773734201921616,-0.01548005760135129
1772794969220123600,8.14612353515625,0.011342062747478484,0.009107932178484043,-0.02461934960754588
1772794969230167600,8.15616748046875,0.014484452426433562,-0.00507885704220389,-0.005632160668075085
1772794969240211700,8.166211669921875,0.019422493350505828,0.00946383066077833,0.004539086468052119
1772794969250256000,8.176255859375,0.026155600997805593,0.0032277218833391087,-0.0040139848817139865
1772794969260299800,8.1862998046875,0.026454876205325124,0.00501188476170646,-0.006867237154673784
1772794969270344700,8.1963447265625,0.024810616129636764,0.0006161922446510288,-0.007488602189719676
1772794969280388900,8.206388916015625,0.023614099821448326,-0.012965724134776974,-0.013891290572565048
1772794969290432800,8.216432861328125,0.017478958067297934,-0.0021749888268590436,-0.004753313740622252
1772794969300476700,8.2264765625,0.023614099821448326,-0.011712223792209988,-0.00026106208898127076
1772794969310520600,8.2365205078125,0.027505262041091917,-0.008137260515423258,-0.0010062726994045077
1772794969320565800,8.246565673828124,0.011494622960686682,-0.012514936743531142,-0.003216222100146115
1772794969330610000,8.25660986328125,0.008801730614900588,0.0021714463045471345,-0.011559157830569893
1772794969340653600,8.266653564453126,0.01927694739997387,0.011583498829026938,-0.011082187968585639
1772794969350697700,8.27669775390625,0.008803484180569648,0.003433144794945838,-0.003082476185262203
1772794969360742000,8.286741943359376,0.005063128608465194,-0.0004086047754215542,-0.0012580920360051094
1772794969370785800,8.296785888671875,0.020326164191961288,-0.000823571934615029,-0.0021299612333998083
1772794969380830700,8.306830810546876,0.02242050612270832,-0.01666694870631327,-0.0036478732493706047
1772794969390875000,8.316875,0.011945873859524727,0.0018870033399784004,-0.007406275934819131
1772794969400920600,8.326920654296876,0.013142390167713165,-0.01374694677349762,-0.009812716022040695
1772794969410964700,8.33696484375,0.014488544079661369,-0.008975002539285924,0.0015024587185122071
1772794969421009000,8.3470087890625,0.015386369702219961,-0.006729584532941225,-0.005084006999712437
1772794969431052800,8.357052734375,0.004611877709627152,0.01129608758923714,-0.011712960152793675
1772794969441096700,8.3670966796875,0.012990414476394653,0.0019815942797635215,-0.008501706488709897
1772794969451142000,8.377141845703125,0.014934534281492232,0.00365236676139757,0.0018973397876136005
1772794969461185800,8.387185791015625,0.027354455393552777,-0.007623004550085169,-0.001836275516450405
1772794969471229700,8.397229736328125,0.018375614646077156,-0.00812062333280919,0.007869820059649646
1772794969481273600,8.407273681640625,0.020918284866213797,-0.01434824170147185,0.013654193881060928
1772794969491317800,8.41731787109375,0.03333703693449497,0.002328625610657036,0.004866272595804184
1772794969501362700,8.42736279296875,0.019869652596116064,0.005133151362574426,0.00997963355416432
1772794969511406600,8.437406494140625,0.011789221993088721,0.012072315534076186,-0.01308092403775081
1772794969521450800,8.44745068359375,0.03288987768888473,0.0010121761421614793,-0.011631236686091869
1772794969531495000,8.457494873046874,0.009994155269861221,-0.0035181756052304987,-0.010474851458892225
1772794969541538800,8.467538818359374,0.01882160484790802,-0.007254389291757252,-0.013528156348597258
1772794969551583700,8.477583740234374,0.013584873238205909,-0.0017239548404410015,-0.0015127243841998278
1772794969561628000,8.4876279296875,0.024509587356448172,-0.02191591075157048,-0.013581932362448423
1772794969571671800,8.497671875,0.02001929019987583,-0.004747903488209704,0.003996924149058759
1772794969581715700,8.5077158203125,0.013733926320075989,0.010514958565350388,-0.01307829368924722
1772794969591759600,8.517759521484376,0.013136544948816298,-0.00912351904832758,0.011817205978557467
1772794969601804800,8.5278046875,0.017325813332200048,-0.002333211595873581,-0.00582622193545103
1772794969611848700,8.5378486328125,0.019421908828616143,0.0055477840199833735,-0.018937230584211647
1772794969621892600,8.547892578125,0.011791560080647467,0.0019210779978719073,-0.0053539647812023755
1772794969631936800,8.557936767578125,0.012389525973796844,0.006403925925283692,-0.001351231945864856
1772794969641980700,8.567980712890625,0.014336568388342857,0.01519511687986087,-0.019799382105190305
1772794969652024800,8.57802490234375,0.015232640445232391,0.004344526302110171,-0.0012091748603619635
1772794969662069800,8.58806982421875,0.03154138568937778,0.004790274475346086,-0.008513506524357945
1772794969672113700,8.59811376953125,0.014781389546394347,0.009085721488320268,-0.014375640023406595
1772794969682157800,8.60815771484375,0.015229717835783958,0.009201629210769897,0.0026496194596402345
1772794969692201700,8.61820166015625,0.02390752981007099,0.011165516587195452,-0.0012922500339336692
1772794969702245600,8.62824560546875,0.008346388062834739,-0.00996261962892604,0.008333309385553002
1772794969712290800,8.638290771484375,0.026752397847175598,0.011569344722799723,-0.004041165149584412
1772794969722335000,8.6483349609375,0.02944704375863075,-0.001970439273153897,-0.004404500302951783
1772794969732378600,8.658378662109374,0.01702770716845989,0.0029233469506609253,-0.002124262144975364
1772794969742422800,8.6684228515625,0.018526421293616292,-0.00616433245766093,-0.011277582676522433
1772794969752466700,8.678466796875,0.023612346255779265,-0.015292479732044739,-0.007027651880774647
1772794969762511600,8.68851171875,0.021067922469973563,-0.01669250213103369,-0.009470496721938252
1772794969772555800,8.6985556640625,0.02585632579028606,-0.02072906873731408,0.000385894045047462
1772794969782599700,8.708599609375,0.024808862563967703,0.012910516498953802,0.001298040453903377
1772794969792643800,8.718643798828126,0.011938859596848487,0.017439381825446614,-0.011323979101516305
1772794969802687700,8.728687744140625,0.021215806508064268,0.005404087533243,-0.0024055267717689273
1772794969812731600,8.738731689453125,0.013434651112556456,-0.004609250786056509,-0.0004376790312118828
1772794969822776800,8.74877685546875,0.017925532791018484,-0.01219694884403143,-0.010953903680108486
1772794969832820700,8.75882080078125,0.007601122653484344,-0.0018871597452496643,-0.004774831452686339
1772794969842864600,8.76886474609375,0.011790975558757782,0.012419800097763072,-0.011313603837974369
1772794969852908800,8.77890869140625,0.024360534274578093,-0.0004579432178172283,-0.021931590094603597
1772794969862952700,8.78895263671875,0.024659809482097624,-0.010169938811741303,-0.0038569676890969273
1772794969872998000,8.798997802734375,0.024058920979499816,0.009444553996506146,-0.011627236364409326
1772794969883041800,8.809041748046875,0.029595512318611142,0.0020520862496865447,-0.007872231212444602
1772794969893085700,8.819085693359375,0.021366613155603408,-0.005685500573797617,-0.008835815547592937
1772794969903129900,8.8291298828125,0.015230886879563331,0.00323443703520461,-0.005879742220975458
1772794969913173800,8.839173828125,0.033334698846936225,-0.000987419585173484,-0.0024540238223038613
1772794969923218700,8.84921875,0.02720014161467552,-0.006035419123165775,-0.013354790809378026
1772794969933262800,8.859262939453124,0.021663550275564193,-0.004242921099648811,-0.013343630094546824
1772794969943306800,8.869306640625,0.023908698853850364,-0.004996561611699871,0.0013416603999212384
1772794969953350700,8.8793505859375,-0.0049719431936740876,-0.008487964516080682,0.0017943543371744452
1772794969963394600,8.88939453125,0.01717676025032997,-0.005570096316491253,-0.00809135385584086
1772794969973439700,8.899439697265626,0.031242695003747937,-0.010635461406171089,-0.011275372453127055
1772794969983484000,8.90948388671875,0.01657762531340122,-0.002165794023539638,-0.014744802129361778
1772794969993527600,8.919527587890625,0.020467033967375755,0.000978713405621238,0.008063278538826853
1772794970003571700,8.92957177734375,0.017922025659680367,-0.006052579178876476,-0.010426792799774556
1772794970013615900,8.939615966796875,0.034680852758884426,-0.002741800388274714,-0.004155128651764243
1772794970023660500,8.94966064453125,0.006699205377697944,0.009336072670330759,-0.011744743530545384
1772794970033704700,8.95970458984375,0.008943769434094428,0.002432704756350722,0.00020474705817177891
1772794970043748900,8.969748779296875,0.023607085558772084,-0.014840379449835744,-0.0056983760383911425
1772794970053792800,8.979792724609375,0.019117957445979116,-0.006740229224541689,-0.014520583185739814
1772794970063837000,8.9898369140625,0.006999065107107162,0.008338751604006392,-0.001725216357409954
1772794970073880600,8.999880615234375,0.024356442621350286,-0.0018691297565703278,0.00047844943301752205
1772794970083925800,9.00992578125,0.016276012018322943,0.008831886007857974,-0.006993950540572404
1772794970093970000,9.019969970703125,0.011188333490490913,0.0040608482392330185,0.015901607481669633
1772794970104013600,9.030013671875,0.018223054432868955,-0.007646957389474846,-0.01124603676078841
1772794970114057700,9.0400576171875,0.02046761848926544,0.00872252104898216,-0.005731145796831697
1772794970124101600,9.0501015625,0.021963994526863095,0.0021538786818156947,-0.002564608057308942
1772794970134146800,9.060146728515624,0.006999649628996849,-0.006132607303769327,-0.009646182082407176
1772794970144190700,9.070190673828124,0.018820435804128646,-0.01670011004875414,-0.011468940530158579
1772794970154234600,9.080234619140626,0.01687573147714138,-0.00854950599456788,0.014905874442588537
1772794970164278800,9.09027880859375,0.026452538117766378,-0.005387417242943775,-0.005918594660330564
1772794970174322400,9.100322509765626,0.020015783068537712,-0.007538522870716406,-0.006954988503362983
1772794970184367400,9.110367431640626,0.024803601866960526,-0.008420354056410723,0.0019926168556325136
1772794970194411300,9.120411376953125,0.015375848308205604,-0.0072241688250738656,-0.0009066117172129452
1772794970204455400,9.130455322265625,0.03228548205494881,0.0018369799109932499,0.01020849214028567
1772794970214499600,9.14049951171875,0.020016367590427398,-0.0009570689710380974,-0.015777725373674185
1772794970224543200,9.150543212890625,0.015676877081394196,0.00480968128707027,-0.008907602142170071
1772794970234587400,9.16058740234375,0.03004091799855232,-0.002966269352001836,-0.018419965244457125
1772794970244632600,9.170632568359375,0.011485270610451698,-0.0031351539372815747,-0.004535889863967895
1772794970254676200,9.18067626953125,0.010438976427912711,-0.006294800711714197,0.003463657522574067
1772794970264720400,9.190720458984375,0.02091419321298599,0.003274961983482353,-0.013123009613808244
1772794970274764300,9.200764404296875,0.02570435009896755,0.002496671087364666,-0.004030972549133003
1772794970284808400,9.210808349609374,0.015678630647063256,0.0028094519471400414,0.0032896161299198865
1772794970294853400,9.220853271484375,0.040519057393074036,-0.0008542102431179955,-0.014451938396319745
1772794970304897300,9.230897216796874,0.01433247673511505,0.00428922619309742,0.0002104826792143285
1772794970314941400,9.24094140625,0.022715105155110358,0.005020746204885654,-0.00453011771030724
1772794970324985300,9.2509853515625,0.007751344779133796,-0.00080139777706936,0.005941464079264551
1772794970335029200,9.261029296875,0.025557635104656216,-0.01873403616230935,-0.003499148961063474
1772794970345074400,9.271074462890626,0.011790975558757782,0.008001314651942811,-0.0021564473815262318
1772794970355118300,9.281118408203126,-0.015902502530813215,-0.01970437446522992,-0.027418095214292407
1772794970365162500,9.29116259765625,0.08874737398922443,0.015157620713952928,0.04696937517677433
1772794970375206400,9.301206298828125,-0.04865267948806286,0.004304711456596851,-0.03689229999696836
1772794970385250300,9.311250244140625,0.06536708292365073,-0.0006415287569514475,-0.006357223539613187
1772794970395294500,9.32129443359375,-0.07905249392688274,0.02602438040014822,-0.015718195472471413
1772794970405339400,9.33133935546875,0.1241623862415552,-0.012406134615303016,-0.0054885509463027116
1772794970415383300,9.34138330078125,-0.05390753127634525,0.004445188506366685,-0.006492028900422156
1772794970425427500,9.351427490234375,0.06894377236664295,-0.01642241420209175,0.009306173005700111
