time,seconds_elapsed,z,y,x
1772794961154624300,0.080624267578125,-0.00027915299870073795,0.00007707066833972931,0.0003016411792486906
1772794961164668200,0.090668212890625,0.00045191904064267874,0.00024792505428195,0.0002982902806252241
1772794961174711800,0.1007119140625,0.0011600536527112126,0.0003781537525355816,-0.002300156047567725
1772794961184755700,0.110755615234375,-0.0007266618777066469,0.0011182823218405247,-0.0017813844606280327
1772794961194801000,0.12080078125,-0.0004984289407730103,0.0013531730510294437,-0.0028884606435894966
1772794961204844800,0.1308447265625,-0.00008221017196774483,-0.00007321592420339584,0.0010034830775111914
1772794961214888700,0.140888671875,-0.001260925317183137,0.0016929921694099903,-0.0018423708388581872
1772794961224932600,0.1509326171875,-0.0021932784002274275,0.0018978742882609367,0.0015882141888141632
1772794961234976800,0.160976806640625,0.00017533707432448864,-0.00012799259275197983,0.000834805890917778
1772794961245021700,0.171021728515625,0.0005473615601658821,-0.0009552910923957825,-0.0006796225206926465
1772794961255065600,0.181065673828125,0.0004014202859252691,0.0011810967698693275,0.000178447924554348
1772794961265109800,0.19110986328125,-0.00005190633237361908,0.0006353547796607018,-0.0002856855280697346
1772794961275153700,0.201153564453125,-0.0004881321801804006,0.001620457973331213,0.001132447854615748
1772794961285198600,0.211198486328125,0.00035332306288182735,0.0027014953084290028,0.002014431171119213
1772794961295242800,0.22124267578125,0.00035518722143024206,0.0007571214810013771,-0.002409345470368862
1772794961305286700,0.23128662109375,0.0023153508082032204,-0.002793368650600314,0.00010253570508211851
1772794961315330800,0.241330810546875,-0.002017345977947116,0.0030911522917449474,-0.003304712474346161
1772794961325374700,0.251374755859375,0.0010979549260810018,-0.0012623174116015434,-0.001871665590442717
1772794961335419600,0.261419677734375,-0.0004136551870033145,0.0005704700015485287,-0.0000782929128035903
1772794961345463800,0.2714638671875,0.00029600621201097965,0.001217074692249298,-0.0006104251369833946
1772794961355508000,0.281508056640625,0.0017833817983046174,0.00041626160964369774,-0.0015324115520343184
1772794961365551600,0.291551513671875,-0.00002065720036625862,-0.0002472647465765476,-0.00016549008432775736
1772794961375596800,0.3015966796875,-0.0007695381063967943,0.0005988217890262604,-0.0008097087265923619
1772794961385641000,0.311640869140625,0.001797062810510397,0.00020154379308223724,0.001281845266930759
1772794961395684600,0.3216845703125,-0.0001566320424899459,0.0043606022372841835,-0.001082775415852666
1772794961405728800,0.331728759765625,-0.001005892176181078,-0.0006905728951096535,-0.0004892065189778805
1772794961415773700,0.341773681640625,0.0020780484192073345,-0.002107640728354454,-0.0018945566844195127
1772794961425817900,0.35181787109375,0.0005583821330219507,-0.0010001780465245247,-0.0010248793987557292
1772794961435861800,0.36186181640625,-0.00017665023915469646,0.0006400630809366703,0.000021742889657616615
1772794961445905700,0.37190576171875,-0.0003351699560880661,-0.0017557581886649132,0.0012926527997478843
1772794961455949800,0.38194970703125,-0.0005420975503511727,0.00203924672678113,-0.00008286978118121624
1772794961465994800,0.391994873046875,-0.0009264644468203187,0.000628424808382988,0.0023865678813308477
1772794961476038700,0.40203857421875,0.0014533363282680511,-0.0002062101848423481,0.0018139882013201714
1772794961486082800,0.412082763671875,0.00012524379417300224,0.0010255258530378342,-0.0014787873951718211
1772794961496126700,0.422126708984375,0.00005520263221114874,-0.0006117857992649078,0.0002061945851892233
1772794961506171600,0.432171630859375,-0.0006894897087477148,-0.0013574706390500069,-0.00015306577552109957
1772794961516215800,0.4422158203125,0.00026525359135121107,0.0013080872595310211,0.0016158056678250432
1772794961526259700,0.452259765625,-0.0004948951536789536,0.00013246433809399605,0.003902767552062869
1772794961536303900,0.462303955078125,-0.0007976965280249715,-0.0003383825533092022,-0.003407343290746212
1772794961546347800,0.47234765625,-0.00007262418512254953,-0.0008542174473404884,0.0005833973409608006
1772794961556392700,0.482392822265625,-0.001210592919960618,0.000041136983782052994,-0.00008452346082776785
1772794961566436900,0.492436767578125,0.0012615740997716784,0.0003708968870341778,-0.00004223501309752464
1772794961576480500,0.50248046875,-0.0007179535459727049,0.0028596208430826664,-0.0013445207150653005
1772794961586524700,0.512524658203125,-0.0015618405304849148,0.0004262719303369522,-0.0019298773258924484
1772794961596569900,0.52256982421875,-0.001432144665159285,0.0007138936780393124,-0.00019695842638611794
1772794961606613800,0.53261376953125,-0.0007219808758236468,-0.0000964682549238205,-0.0015169947873800993
1772794961616657700,0.54265771484375,-0.0013803142355754972,0.0005362988449633121,0.00022631045430898666
1772794961626701800,0.552701904296875,0.0006914312252774835,-0.0026457244530320168,0.0023667144123464823
1772794961636745700,0.562745849609375,-0.0008619906147941947,-0.0016579576767981052,0.0001421759370714426
1772794961646790700,0.572790771484375,-0.00029997702222317457,-0.0009053600952029228,0.001134949503466487
1772794961656834800,0.582834716796875,0.0006984419887885451,-0.0017663598991930485,0.002833513543009758
1772794961666878700,0.592878662109375,0.0021670153364539146,0.00026210909709334373,-0.00043629942229017615
1772794961676923000,0.6029228515625,-0.0023366562090814114,0.0018006167374551296,-0.00019688124302774668
1772794961686967800,0.6129677734375,0.0002804490504786372,0.000030846334993839264,0.0022503798827528954
1772794961697011700,0.62301171875,-0.001112384139560163,0.0007605524733662605,-0.0017896355129778385
1772794961707055900,0.633055908203125,0.0013970454456284642,-0.0018257969059050083,-0.00017695978749543428
1772794961717099800,0.643099853515625,-0.0036680204793810844,-0.0011147325858473778,-0.0015394329093396664
1772794961727144700,0.653144775390625,-0.0006301208049990237,-0.00009054318070411682,0.0012720298254862428
1772794961737188900,0.66318896484375,0.0015523397596552968,-0.0009395587258040905,0.0033365124836564064
1772794961747232800,0.673232666015625,-0.0003503544139675796,-0.0008428394794464111,-0.0013706819154322147
1772794961757276700,0.683276611328125,-0.0014039009111002088,-0.00091128284111619,-0.0012255395995453
1772794961767320600,0.693320556640625,0.0008010457968339324,-0.002823015209287405,0.0004775670822709799
1772794961777365800,0.70336572265625,0.0005808024434372783,-3.3061951398849487e-7,0.00022350158542394638
1772794961787409700,0.71340966796875,-0.001621697098016739,-0.0006799092516303062,-0.000036061275750398636
1772794961797453600,0.72345361328125,0.0014862118987366557,-0.00009854091331362724,0.00020602007862180471
1772794961807497700,0.733497802734375,0.0003852727822959423,-0.0025823311880230904,0.00240699271671474
1772794961817543000,0.74354296875,-0.0023812190629541874,-0.00003315368667244911,0.001422422006726265
1772794961827586600,0.753586669921875,-0.0005504926084540784,-0.0006922553293406963,-0.00022233871277421713
1772794961837630700,0.763630615234375,0.0029566241428256035,-0.0012296810746192932,0.0025896928273141384
1772794961847675000,0.7736748046875,-0.00014199805445969105,-0.00009501306340098381,-0.0029082673136144876
1772794961857718800,0.78371875,-0.00007914751768112183,-0.0010462943464517593,-0.00018385355360805988
1772794961867763700,0.793763671875,-0.0014785907696932554,0.003279457800090313,0.0009693971369415522
1772794961877807900,0.803807861328125,-0.0011169335339218378,-0.00025721965357661247,-0.0005304953083395958
1772794961887851800,0.813851806640625,0.0006235162727534771,-0.0006484990008175373,-0.0021232464350759983
1772794961897896000,0.82389599609375,-0.0002497342065908015,0.002861547749489546,0.0008906528819352388
1772794961907940900,0.83394091796875,-0.001127305906265974,0.00004133535549044609,0.0009747693547978997
1772794961917984800,0.84398486328125,-0.0010447478853166103,0.0004631802439689636,-0.0026465971022844315
1772794961928029000,0.85402880859375,0.0005838793003931642,-0.002566563431173563,-0.0002067072782665491
1772794961938072600,0.864072509765625,0.0012992044212296605,-0.0002746470272541046,-0.0026650712825357914
1772794961948116700,0.87411669921875,-0.0005337106413207948,-0.0018581179901957512,0.0020244158804416656
1772794961958162000,0.884161865234375,0.0006516623543575406,0.0015576528385281563,0.00187021866440773
1772794961968205600,0.89420556640625,-0.0014327449025586247,0.0032840431667864323,-0.0009378866525366902
1772794961978249700,0.904249755859375,-0.0012002509320154786,0.0005329977720975876,0.002383341547101736
1772794961988293600,0.914293701171875,0.0013625968713313341,0.000529770739376545,-0.00018844613805413246
1772794961998338800,0.9243388671875,-0.0008760562632232904,-0.000024699140340089798,-0.000055554439313709736
1772794962008382700,0.9343828125,0.0012259746436029673,-0.0012105130590498447,-0.0027378052473068237
1772794962018426600,0.944426513671875,-0.001467280089855194,0.00001960108056664467,0.0030292700976133347
1772794962028470800,0.954470703125,0.0012803325662389398,-0.00006031570956110954,0.0012800546828657389
1772794962038515000,0.964514892578125,-0.0010669776238501072,0.0017575575038790703,-0.0005996044492349029
1772794962048559600,0.9745595703125,0.0002135486574843526,0.00006733089685440063,0.00018891377840191126
1772794962058603800,0.984603759765625,-0.001624298864044249,-0.0003923308104276657,-0.002587431576102972
1772794962068648000,0.99464794921875,0.0018949615769088268,-0.0018004775047302246,0.0004410396795719862
1772794962078691800,1.00469189453125,0.0024406432639807463,-0.00011949054896831512,-0.00016403058543801308
1772794962088736800,1.01473681640625,-0.000361900485586375,0.0032914578914642334,0.0005672466941177845
1772794962098780700,1.02478076171875,-0.0013992016902193427,-0.0008918354287743568,-0.0005768472328782082
1772794962108824800,1.034824951171875,0.0020984704606235027,-0.00005534756928682327,-0.0010137842036783695
1772794962118868700,1.04486865234375,0.001350388745777309,-0.000948039349168539,-0.0034923884086310863
1772794962128913700,1.05491357421875,0.0012814861256629229,0.000023684930056333542,0.0008593810489401221
1772794962138957800,1.064957763671875,0.001630360260605812,-0.0004450310952961445,-0.0016937913605943322
1772794962149001700,1.075001708984375,-0.0015878718113526702,-0.0002129185013473034,0.0002458728849887848
1772794962159045600,1.085045654296875,0.0006547761149704456,0.0008209208026528358,0.0012421614956110716
1772794962169089300,1.09508935546875,-0.0025472561828792095,1.341104507446289e-7,0.0004323875764384866
1772794962179134500,1.105134521484375,0.0004706379259005189,-0.00004913425073027611,0.0012885939795523882
1772794962189178000,1.11517822265625,-0.0006545006763190031,-0.0005878456868231297,0.00010228087194263935
1772794962199222300,1.12522216796875,0.00004271487705409527,-0.0016488488763570786,0.00001759233418852091
1772794962209266400,1.135266357421875,0.00047584017738699913,0.000059077516198158264,0.0006959788734093308
1772794962219311400,1.145311279296875,-0.0014818495837971568,0.00044869817793369293,-0.0004214835353195667
1772794962229355300,1.155355224609375,0.0019455011934041977,-0.0004285629838705063,-0.0008793195011094213
1772794962239399400,1.1653994140625,0.0009638601914048195,0.001385049894452095,-0.0002731840359047055
1772794962249443300,1.175443359375,0.0031891614198684692,-0.0006402609869837761,-0.0009772886987775564
1772794962259487500,1.185487548828125,0.0023404122330248356,-0.0004794062115252018,0.00043445301707834005
1772794962269532400,1.195532470703125,-0.00025240430841222405,0.000790031161159277,0.0007857737364247441
1772794962279576300,1.205576416015625,-0.00033629388781264424,0.000260861124843359,-0.0030244109220802784
1772794962289620500,1.215620361328125,0.0008187377825379372,-0.0006451774388551712,0.002442100550979376
1772794962299664400,1.225664306640625,-0.0007472009165212512,-0.0005873870104551315,0.0004420666955411434
1772794962309709300,1.235709228515625,-0.00005401996895670891,0.001519752200692892,0.0019399410812184215
1772794962319753500,1.24575341796875,-0.000908362097106874,0.0005479645915329456,0.0010571031598374248
1772794962329797400,1.25579736328125,0.0011931818444281816,-0.0005004629492759705,0.0007164017297327518
1772794962339841300,1.26584130859375,-0.000028143753297626972,0.00006465986371040344,-0.002791247796267271
1772794962349885200,1.27588525390625,-0.0004683322040364146,0.00009061535820364952,0.002133498666808009
1772794962359930400,1.285930419921875,0.0008547261822968721,-0.000848681665956974,0.0018575950525701046
1772794962369974300,1.295974365234375,-0.00011259724851697683,0.0008309660479426384,0.0023184227757155895
1772794962380018200,1.30601806640625,-0.0019658911041915417,0.002255757339298725,-0.0002632457762956619
1772794962390062300,1.316062255859375,0.0013424009084701538,-0.0008410187438130379,-0.0013485820963978767
1772794962400107300,1.326107177734375,0.00006248569115996361,-0.002200828865170479,0.0020155231468379498
1772794962410151200,1.336151123046875,0.0012981939362362027,0.00206458056345582,0.001561707234941423
1772794962420195300,1.3461953125,-0.001313035492785275,0.00042780162766575813,-0.0003464476321823895
1772794962430239500,1.356239501953125,-0.00043517519952729344,-0.0016288161277770996,-0.0002904757857322693
1772794962440283400,1.366283447265625,-0.0012447761837393045,-0.00039630522951483727,0.0007532171439379454
1772794962450328300,1.376328369140625,0.001239155069924891,-0.00005429564043879509,0.0011793182929977775
1772794962460372500,1.38637255859375,0.00022342533338814974,-0.0009342040866613388,0.0010304475435987115
1772794962470416400,1.39641650390625,0.001185875735245645,-0.0006186873652040958,-0.00006331328768283129
1772794962480460300,1.406460205078125,0.0008090385235846043,-0.00039604678750038147,-0.00011977239046245813
1772794962490505200,1.416505126953125,0.00008679507300257683,0.001990649849176407,0.001008713967166841
1772794962500549400,1.42654931640625,-0.0014455877244472504,-0.0006322972476482391,-0.0034970883280038834
1772794962510593500,1.436593505859375,-0.0012136510340496898,0.0011178483255207539,-0.0003945422940887511
1772794962520637200,1.44663720703125,0.0001666654134169221,-0.0030103172175586224,0.0010478256735950708
1772794962530681300,1.456681396484375,0.0007180954562500119,0.0009097903966903687,-0.0007036455208435655
1772794962540726500,1.4667265625,0.0015524637419730425,0.0007904809899628162,0.000770414131693542
1772794962550770200,1.476770263671875,-0.0003375760279595852,-0.001249358057975769,-0.0006433838861994445
1772794962560814300,1.486814453125,-0.0012840634444728494,0.0011429591104388237,0.001298326882533729
1772794962570858200,1.496858154296875,0.0023437021300196648,-0.0010810005478560925,0.0009674627799540758
1772794962580903200,1.506903076171875,-0.0009498291183263063,0.0001626955345273018,0.00034108723048120737
1772794962590947300,1.516947265625,-0.0002264757640659809,0.002186237834393978,-0.002502082847058773
1772794962600991200,1.5269912109375,-0.001009445171803236,0.0005212291143834591,-0.0004365352797321975
1772794962611035400,1.537035400390625,0.0005754975136369467,-0.00041220709681510925,-0.0021435164380818605
1772794962621079600,1.54707958984375,0.000781892566010356,-0.0014196811243891716,-0.0006564073846675456
1772794962631124200,1.557124267578125,-0.00032980088144540787,0.0010061119683086872,-0.0004363994812592864
1772794962641168400,1.56716845703125,0.002348806709051132,0.0019483380019664764,-0.0008321452187374234
1772794962651212300,1.57721240234375,0.00021065864711999893,0.001499101985245943,-0.001284944824874401
1772794962661256200,1.587256103515625,0.0010309121571481228,0.00029854895547032356,0.002892755903303623
1772794962671301400,1.59730126953125,-0.0012289227452129126,0.0011215656995773315,-0.0024354401975870132
1772794962681345300,1.60734521484375,0.0021021589636802673,-0.0018427981995046139,-0.0007693664520047605
1772794962691389400,1.617389404296875,-0.000942232261877507,0.000990548636764288,0.001720647094771266
1772794962701433300,1.627433349609375,-0.0006125329528003931,-0.001663025002926588,-0.001307899714447558
1772794962711477200,1.637477294921875,0.0010789147345349193,0.001157769002020359,0.0009385209996253252
1772794962721522400,1.6475224609375,-0.002402369398623705,0.0008163521997630596,-0.0003792110946960747
1772794962731566300,1.65756640625,-0.0009590592235326767,0.0007387669757008553,-0.0002831870806403458
1772794962741610200,1.6676103515625,0.0033267661929130554,0.0007491535507142544,-0.002521574031561613
1772794962751654400,1.677654296875,-0.0012930567609146237,-0.0013773911632597446,0.002082566265016794
1772794962761699300,1.68769921875,0.0010907388059422374,-0.0002743094228208065,-0.002579563297331333
1772794962771743200,1.6977431640625,-0.00020269595552235842,0.0011701020412147045,-0.0004259070847183466
1772794962781787400,1.707787353515625,0.00015523284673690796,0.001448668073862791,0.0020766654051840305
1772794962791831300,1.717831298828125,0.00013554433826357126,-0.000053998082876205444,-0.00036442914279177785
1772794962801875500,1.72787548828125,-0.0002420918899588287,0.00016145175322890282,0.00213787704706192
1772794962811920400,1.73792041015625,-0.00044171581976115704,-0.00002215662971138954,0.002357544843107462
1772794962821964300,1.74796435546875,0.000010755262337625027,-0.0018139313906431198,0.00003819784615188837
1772794962832008400,1.758008544921875,-0.0007618883391842246,0.0005871374160051346,-0.002144013298675418
1772794962842052000,1.768052001953125,0.000287397182546556,0.001065707765519619,-0.0003594290465116501
1772794962852097300,1.77809716796875,0.00009579909965395927,0.0015750727616250515,-0.00031091441633179784
1772794962862141400,1.788141357421875,0.0014470870373770595,-0.0014532078057527542,0.0000289049930870533
1772794962872185300,1.798185302734375,0.0014790857676416636,0.0002954346127808094,0.000046581728383898735
1772794962882229200,1.808229248046875,-0.0007515780162066221,-0.0009759585373103619,0.0008098436519503593
1772794962892273400,1.8182734375,0.0004895646125078201,-0.0004905229434370995,0.0022400817833840847
1772794962902318300,1.828318359375,0.0010988960275426507,0.0005220104940235615,0.0010184897109866142
1772794962912362200,1.8383623046875,0.0007165512070059776,-0.00021946290507912636,-0.0007490267744287848
1772794962922406400,1.848406494140625,-0.00015643303049728274,-0.0013371915556490421,0.0015407592291012406
1772794962932450300,1.8584501953125,0.0007371011888608336,0.0001648985780775547,-0.0012355134822428226
1772794962942494500,1.868494384765625,-0.0005180466105230153,0.0010642479173839092,0.0002944725565612316
1772794962952539400,1.878539306640625,0.001795581541955471,-0.003781618783250451,-0.000974956143181771
1772794962962583300,1.888583251953125,-0.0022761253640055656,0.001322329044342041,-0.0018727077404037118
1772794962972627500,1.89862744140625,-0.000466198252979666,-0.0015623285435140133,-0.0004859404289163649
1772794962982671400,1.90867138671875,-0.00019402318866923451,-0.0007886802777647972,0.00244060717523098
1772794962992716300,1.91871630859375,0.0013691806234419346,-0.0012954617850482464,0.0007546368287876248
1772794963002760400,1.928760498046875,-0.0002960940473712981,-0.000333528034389019,0.0011434581829234958
1772794963012804400,1.938804443359375,0.0002748069819062948,-0.0012226947583258152,-0.00042381760431453586
1772794963022848300,1.94884814453125,0.0005110293859615922,0.0005855914205312729,0.0008619566215202212
1772794963032892200,1.95889208984375,-0.0008741964120417833,-0.001165635883808136,-0.0007291629444807768
1772794963042937300,1.968937255859375,-0.002392730675637722,-0.0013933363370597363,0.00036646146327257156
1772794963052981500,1.9789814453125,0.00040363019797950983,0.00039705121889710426,-0.0017146393656730652
1772794963063025200,1.989025146484375,0.0010593004990369081,0.00002234429121017456,0.0012603778159245849
1772794963073069300,1.9990693359375,-0.0014867486897855997,0.0003687199205160141,-0.0016653710044920444
1772794963083114500,2.009114501953125,0.00011540891136974096,-0.00029786955565214157,0.0004981810925528407
1772794963093158100,2.019158203125,-0.0012761828256770968,-0.0009229960851371288,-0.0037517768796533346
1772794963103202300,2.029202392578125,-0.002094305818900466,0.0014429562725126743,-0.0008942049462348223
1772794963113246500,2.03924658203125,-0.00041624397272244096,-0.002090730704367161,-0.001176274148747325
1772794963123290400,2.049290283203125,0.0004250486381351948,0.0007186383008956909,-0.001212226809002459
1772794963133335300,2.059335205078125,0.0002691707341000438,0.000502259936183691,0.0010624981950968504
1772794963143379200,2.069379150390625,-0.000797957880422473,0.000778696034103632,-0.00006854627281427383
1772794963153423400,2.07942333984375,0.001542852260172367,0.0004953867755830288,-0.0017590434290468693
1772794963163467500,2.089467529296875,0.0017862652894109488,-0.001365363597869873,0.00029212329536676407
1772794963173512700,2.0995126953125,0.0021958223078399897,-0.002055855467915535,-0.0013709078775718808
1772794963183556900,2.109556884765625,-0.0015576370060443878,-0.00040096696466207504,0.0006139460019767284
1772794963193600800,2.119600830078125,0.0014092734782025218,0.000559062696993351,-0.0002812741440720856
1772794963203644700,2.129644775390625,-0.0002831653691828251,-0.0003349604085087776,0.0018125030910596251
1772794963213688800,2.139688720703125,0.0000526100629940629,-0.000031647272408008575,0.0010846129152923822
1772794963223733800,2.149733642578125,-0.00021663546795025468,0.00021602679044008255,-0.0034038787707686424
1772794963233777700,2.159777587890625,-0.0014329544501379132,0.0023417319171130657,-0.0005458163795992732
1772794963243821800,2.16982177734375,0.0002861160319298506,-0.00113662239164114,-0.001538642798550427
1772794963253865700,2.17986572265625,0.003993358463048935,-0.002403094433248043,0.0017247084761038423
1772794963263910000,2.189909912109375,0.0013139521470293403,-0.000576432328671217,-0.0025797586422413588
1772794963273954600,2.19995458984375,0.0003474096301943064,-0.00009781075641512871,-0.0017136784736067057
1772794963283998700,2.209998779296875,0.001087502227164805,0.0014819763600826263,-0.00126227259170264
1772794963294043000,2.22004296875,-0.0008962928550317883,-0.0007280921563506126,-0.003508494235575199
1772794963304086800,2.230086669921875,-0.0010371740208938718,-0.00004685577005147934,-0.0016685164300724864
1772794963314131700,2.240131591796875,-0.00021049409406259656,0.0005903700366616249,0.00011676829308271408
1772794963324176000,2.25017578125,-0.0005135618266649544,0.00022818055003881454,0.000004915520548820496
1772794963334219800,2.2602197265625,0.00016527739353477955,0.0029059480875730515,0.0001405719667673111
1772794963344263700,2.270263671875,0.0015093748224899173,-0.0005825269035995007,0.001270817476324737
1772794963354307600,2.2803076171875,-0.00024177669547498226,-0.0023085540160536766,0.0006709364242851734
1772794963364352800,2.290352783203125,0.0024088677018880844,0.0014265291392803192,0.003455537371337414
1772794963374397000,2.30039697265625,-0.00021981325699016452,-0.0007957075722515583,-0.0029552504420280457
1772794963384440600,2.310440673828125,-0.0015396758681163192,0.00004451954737305641,-0.00163538777269423
1772794963394484700,2.320484619140625,-0.0015539637533947825,-0.0006255870684981346,-0.00037352711660787463
1772794963404530000,2.330530029296875,0.0008391528390347958,-0.0011419742368161678,-0.001264088205061853
1772794963414573600,2.340573486328125,0.0015669669955968857,-0.0017966767773032188,-0.0010363322217017412
1772794963424617700,2.35061767578125,0.0013035803567618132,-0.00008266652002930641,-0.00161610241048038
1772794963434661600,2.36066162109375,-0.0003561227931641042,-0.0004730415530502796,0.0013673016801476479
1772794963444705800,2.370705810546875,-0.0013361660530790687,-0.0015588123351335526,0.0007856672164052725
1772794963454750700,2.380750732421875,0.001224277075380087,0.00023962464183568954,0.001283119316212833
1772794963464794600,2.390794677734375,0.001854913542047143,-0.0015944945625960827,0.0005784470122307539
1772794963474838800,2.4008388671875,0.0002669389359652996,0.0021953159011900425,0.00006358185783028603
1772794963484883000,2.410883056640625,-0.0004196239751763642,0.001037107314914465,0.0013403012417256832
1772794963494926600,2.420926513671875,0.0022680750116705894,0.000322478823363781,0.0014887657016515732
1772794963504971800,2.4309716796875,-0.00023716065334156156,-0.001272488385438919,-0.0006034135585650802
1772794963515016000,2.441015869140625,0.00011329783592373133,0.00007834890857338905,0.00038752786349505186
1772794963525059600,2.4510595703125,0.0005154351238161325,-0.0013429801911115646,-0.0011507140006870031
1772794963535103700,2.461103759765625,0.00017756130546331406,-0.0001810537651181221,0.0018581902841106057
1772794963545149000,2.47114892578125,0.0006715776398777962,-0.00001274188980460167,0.0017165100434795022
1772794963555192800,2.48119287109375,-0.0014656209386885166,0.0017214049585163593,-0.0017471688333898783
1772794963565236700,2.49123681640625,-0.0007779926527291536,-0.00016997195780277252,-0.0007372981053777039
1772794963575280600,2.50128076171875,0.0006119062891229987,0.0011480282992124557,0.001794360694475472
1772794963585324800,2.51132470703125,0.0023837073240429163,0.0009336438961327076,-0.0024909316562116146
1772794963595369700,2.52136962890625,-0.00011223903857171535,0.002282481174916029,0.0008564532035961747
1772794963605413600,2.53141357421875,-0.00044007424730807543,0.002264904323965311,-0.001808039378374815
1772794963615457800,2.541457763671875,0.0023748930543661118,-0.0026266369968652725,-0.002731241285800934
1772794963625501700,2.551501708984375,0.00010694516822695732,-0.0012812083587050438,0.00047067715786397457
1772794963635546600,2.561546630859375,0.0009698934154585004,0.0005298834294080734,0.0010841392213478684
1772794963645590800,2.5715908203125,-0.000247703748755157,-0.0002645375207066536,-0.0014988607726991177
1772794963655634700,2.581634765625,0.0011973438085988164,0.0009328792802989483,0.0007484253728762269
1772794963665678800,2.591678955078125,0.00048787775449454784,0.00033073872327804565,0.00012790889013558626
1772794963675722800,2.60172265625,-0.000543864443898201,0.0019417922012507915,0.001191773684695363
1772794963685767700,2.611767578125,-0.0007886089151725173,0.00011619506403803825,0.0015643499791622162
1772794963695811800,2.621811767578125,-0.00031414045952260494,0.001139070838689804,-0.0025692544877529144
1772794963705855700,2.631855712890625,-0.00022439192980527878,0.0008237524889409542,-0.00039957702392712235
1772794963715899600,2.641899658203125,0.00045262742787599564,0.0002221427857875824,0.0000890169758349657
1772794963725943800,2.65194384765625,-0.0013716379180550575,-0.0026878933422267437,-0.0003536003641784191
1772794963735988700,2.66198876953125,0.0014765893574804068,-0.00045897020027041435,0.001524096354842186
1772794963746032600,2.67203271484375,0.0021777995862066746,-0.003944515250623226,-0.0010828720405697823
1772794963756076800,2.682076904296875,-0.0003238749341107905,0.0018834462389349937,-0.0009678549831733108
1772794963766120700,2.69212060546875,-0.0014903395203873515,0.0014195237308740616,0.0010825126664713025
1772794963776165600,2.70216552734375,-0.0012258681235834956,0.0010264799930155277,-0.0012569139944389462
1772794963786209800,2.712209716796875,0.001066580880433321,0.00018066028133034706,0.002460326300933957
1772794963796253700,2.722253662109375,0.0013100047362968326,-0.0000868532806634903,0.0012585128424689174
1772794963806297900,2.7322978515625,0.0006841617869213223,0.00034857355058193207,0.0007666269084438682
1772794963816341800,2.742341796875,-0.0005437789368443191,0.0009498340077698231,-0.001569427433423698
1772794963826386700,2.75238671875,-0.0004705420578829944,-0.00015085050836205482,0.0035992353223264217
1772794963836430800,2.762430908203125,0.0010694421362131834,0.0008695004507899284,-0.00044797692680731416
1772794963846474800,2.772474853515625,0.000562109868042171,0.001336885616183281,-0.0016748951748013496
1772794963856518700,2.7825185546875,0.0028339361306279898,-0.0006307009607553482,0.0020007402636110783
1772794963866562800,2.792562744140625,-0.0020393822342157364,-0.0006083305925130844,0.0012539898743852973
1772794963876607700,2.802607666015625,-0.0002623341279104352,0.001343307550996542,0.0022939599584788084
1772794963886651600,2.812651611328125,0.0014807048719376326,0.0012863161973655224,-0.0015298067592084408
1772794963896695800,2.82269580078125,-0.0012616189196705818,-0.0005158558487892151,-0.000021180137991905212
1772794963906739700,2.83273974609375,-0.002675491152331233,-0.0015156064182519913,0.0029317326843738556
1772794963916784600,2.84278466796875,0.00011049280874431133,0.0023184786550700665,0.0010696703102439642
1772794963926828800,2.852828857421875,-0.0005249374080449343,0.0003416142426431179,0.0019860640168190002
1772794963936872700,2.862872802734375,0.0009778277017176151,-0.0019230400212109089,-0.0014546152669936419
1772794963946916900,2.872916748046875,0.00017488468438386917,-0.002116651739925146,0.0002399542136117816
1772794963956960800,2.882960693359375,-0.0006262588431127369,0.0009807092137634754,0.000944170169532299
1772794963967005700,2.893005615234375,-0.0006925715133547783,0.0026595662347972393,0.00039981992449611425
1772794963977049900,2.9030498046875,-0.0023190712090581656,0.002852031495422125,-0.002229635138064623
1772794963987093800,2.91309375,0.0012969688978046179,0.0011532013304531574,0.0022279638797044754
1772794963997137700,2.9231376953125,-0.0011002651881426573,-0.0002645561471581459,-0.0005936826346442103
1772794964007181600,2.933181640625,-0.0010613830527290702,0.0002896478399634361,0.001085174037143588
1772794964017226800,2.943226806640625,-0.0013345533516258001,0.0001887013204395771,0.001232682028785348
1772794964027271000,2.95327099609375,-0.0005313439760357141,-0.00002381904050707817,-0.0009242120431736112
1772794964037314600,2.963314453125,0.0014290596591308713,-0.0012457617558538914,0.0002924061845988035
1772794964047358700,2.973358642578125,0.0022389269433915615,-0.00048196734860539436,0.0004074547905474901
1772794964057404000,2.98340380859375,-0.001102693029679358,-0.0025960574857890606,0.00005316035822033882
1772794964067447600,2.993447509765625,0.0005167752970010042,0.00025245966389775276,0.0003748702583834529
1772794964077491700,3.00349169921875,0.0010202029952779412,-0.0009821695275604725,0.0003974342253059149
1772794964087535900,3.013535888671875,0.001888659899123013,0.0012522228062152863,0.003987642005085945
1772794964097579800,3.023579833984375,0.0024255900643765926,0.001279663760215044,-0.002694095252081752
1772794964107624700,3.033624755859375,-0.0015569007955491543,-0.0013299677520990372,-0.0012637113686650991
1772794964117668600,3.043668701171875,0.0007088014390319586,-0.0024305228143930435,-0.0004906149697490036
1772794964127712800,3.053712646484375,-0.0003929483355022967,-0.0003125108778476715,0.0009477583225816488
1772794964137757000,3.0637568359375,-0.00020676065469160676,0.0003126119263470173,-0.001390270539559424
1772794964147800600,3.073800537109375,-0.0006938527803868055,-0.0018243086524307728,-0.00024910608772188425
1772794964157845800,3.083845703125,-0.0016201524995267391,-0.0005653607659041882,0.0012566292425617576
1772794964167890000,3.093889892578125,-0.00013011391274631023,0.00002000248059630394,-0.0002331429859623313
1772794964177933800,3.103933837890625,0.0019652070477604866,-0.0007164361886680126,0.0001712788362056017
1772794964187977700,3.113977783203125,0.0013012809213250875,-0.0006748908199369907,0.003286378225311637
1772794964198023000,3.12402294921875,-0.0013981754891574383,-0.0016233003698289394,-0.0012632899452000856
1772794964208066800,3.13406689453125,0.00232146168127656,-0.0016019949689507484,-0.0016209525056183338
1772794964218110700,3.14411083984375,0.0012366784503683448,-0.0012786602601408958,-0.00008091877680271864
1772794964228155000,3.15415478515625,0.0011301519116386771,-0.0007055480964481831,0.000896727666258812
1772794964238198800,3.16419873046875,0.0023949621245265007,-0.001275941263884306,0.0001737095881253481
1772794964248243700,3.17424365234375,0.00020930601749569178,-0.0013670213520526886,-0.001647626282647252
1772794964258287900,3.184287841796875,0.0004183758283033967,-0.00017645535990595818,-0.0006478095310740173
1772794964268331800,3.194331787109375,-0.0009976269211620092,-0.0014827358536422253,0.0020502388942986727
1772794964278376000,3.2043759765625,0.0005461249966174364,0.0013386928476393223,0.0005013552727177739
1772794964288419800,3.214419921875,-0.002140471711754799,0.00025505246594548225,-0.0017732505220919847
1772794964298464800,3.22446484375,0.000004966859705746174,-0.0005680196918547153,0.0010012126294896007
1772794964308509000,3.234509033203125,-0.0006461759912781417,0.00014703860506415367,0.0014259867602959275
1772794964318553000,3.244552978515625,0.003252164926379919,-0.0014892066828906536,0.0023644317407160997
1772794964328596700,3.2545966796875,-0.0006315230275504291,-0.0022804317995905876,0.002768965670838952
1772794964338642000,3.264641845703125,-0.0013057688483968377,0.00012425705790519714,0.002598294522613287
1772794964348686000,3.27468603515625,-0.00023704231716692448,0.00033837510272860527,-0.0011335930321365595
1772794964358729700,3.284729736328125,-0.0012095399433746934,0.000954220537096262,0.0006639633793383837
1772794964368774000,3.29477392578125,-0.001059071277268231,0.001194703858345747,0.00014517956878989935
1772794964378817800,3.30481787109375,0.00005546340253204107,0.0010860278271138668,0.0006406408501788974
1772794964388863000,3.314863037109375,-0.0015608090907335281,-0.0005875024944543839,-0.0009114493732340634
1772794964398907000,3.324906982421875,0.001135586411692202,-0.002822794020175934,-0.0012816495727747679
1772794964408950800,3.33495068359375,-0.0007587200962007046,-0.0024648653343319893,-0.0006701878155581653
1772794964418995000,3.344994873046875,-0.0014554255176335573,-0.0005000452511012554,-0.0003118672175332904
1772794964429038800,3.355038818359375,-0.0016580921364948153,0.0006893221288919449,0.00022262928541749716
1772794964439083800,3.365083740234375,0.0006542886840179563,-0.0010118884965777397,0.0018188507528975606
1772794964449128000,3.3751279296875,-0.0009750332683324814,-0.0003346465528011322,-0.00025575177278369665
1772794964459171800,3.385171875,-0.000579235318582505,-0.0012580957263708115,-0.002370906062424183
1772794964469215700,3.3952158203125,-0.0014871068997308612,-0.00010574562475085258,-0.0022888807579874992
1772794964479260000,3.405260009765625,0.000751747633330524,0.0005523893050849438,-0.00047082966193556786
1772794964489304800,3.415304931640625,-0.002294908743351698,0.0015494772233068943,-0.0007073183660395443
1772794964499349000,3.425348876953125,0.0006809186888858676,0.000582356471568346,0.001284262165427208
1772794964509393000,3.435392822265625,-0.0006666407571174204,0.0001767571084201336,0.000522864400409162
1772794964519436800,3.445436767578125,-0.0025738244876265526,0.0006354758515954018,0.0004328937502577901
1772794964529482000,3.45548193359375,0.0009532658150419593,-0.002452459651976824,0.0023895183112472296
1772794964539526000,3.46552587890625,0.0010478850454092026,-0.000013235490769147873,-0.0004277678672224283
1772794964549569800,3.47556982421875,0.000938961748033762,-0.0007003312930464745,0.001540308236144483
1772794964559614000,3.485614013671875,-0.001315615139901638,-0.0010414938442409039,0.0009535225108265877
1772794964569657900,3.495657958984375,-0.0016860608011484146,0.0011984906159341335,0.0015759032685309649
1772794964579702800,3.505702880859375,-0.002107935957610607,-0.0008236058056354523,0.0012380615808069706
1772794964589747000,3.515746826171875,-0.002464533317834139,-0.0005487673915922642,-0.0001526410924270749
1772794964599790800,3.525790771484375,-0.0012877879198640585,0.0008555222302675247,-0.0005739626358263195
1772794964609835000,3.5358349609375,0.0014938837848603725,-0.00036021042615175247,-0.000039199949242174625
1772794964619878700,3.545878662109375,-0.0006351745105348527,-0.0006637480109930038,-0.0009454809478484094
1772794964629923800,3.555923828125,-0.0010767265921458602,0.0021775783970952034,0.0006066093919798732
1772794964639968000,3.565968017578125,0.0011132408399134874,-0.0013663806021213531,-0.0014188827481120825
1772794964650012000,3.576011962890625,-0.00037733028875663877,0.0008536307141184807,-0.00013577169738709927
1772794964660055800,3.586055908203125,-0.0010450140107423067,0.0013929852284491062,0.00010516529437154531
1772794964670100000,3.596099853515625,-0.0005043922574259341,-0.00008187303319573402,-0.00014996551908552647
1772794964680145000,3.606144775390625,0.0000014776596799492836,-0.00038590608164668083,-0.0006964675267226994
1772794964690188800,3.616188720703125,-0.0007769643561914563,0.0019171959720551968,0.0015088962391018867
1772794964700233000,3.62623291015625,-0.0007260933634825051,-0.0011814194731414318,0.0012444575550034642
1772794964710276900,3.63627685546875,-0.0004885394009761512,-0.0022607985883951187,-0.0006290762103162706
1772794964720321800,3.64632177734375,0.000147132552228868,0.00004527578130364418,-0.0013154817279428244
1772794964730365700,3.65636572265625,0.00009599979966878891,-0.0016181347891688347,0.0021064141765236855
1772794964740409900,3.666409912109375,-0.0014423552202060819,0.0013796971179544926,0.0005694309948012233
1772794964750454000,3.6764541015625,0.0006982936756685376,-0.0009503019973635674,0.0022714571096003056
1772794964760498000,3.686497802734375,0.00027474784292280674,-0.001022270880639553,-0.00022906833328306675
1772794964770542800,3.69654296875,-0.0008592261001467705,0.0033927178010344505,-0.0016144447727128863
1772794964780587000,3.7065869140625,-0.0013552871532738209,0.00005637388676404953,0.0001974640181288123
1772794964790631000,3.716630859375,0.0002340873470529914,-0.001647250261157751,-0.0013407778460532427
1772794964800674800,3.7266748046875,-0.00011226499918848276,0.00040951091796159744,-0.001539586577564478
1772794964810718700,3.73671875,-0.0013708749320358038,-0.0000011487863957881927,-0.001081522786989808
1772794964820764000,3.746763916015625,0.000005413778126239777,-0.0006450791843235493,-0.0026733260601758957
1772794964830807800,3.756807861328125,0.0018523158505558968,0.0008699931204319,0.00047026912216097116
1772794964840851700,3.766851806640625,0.0009855853859335184,0.00043425383046269417,0.0023753223940730095
1772794964850896000,3.776895751953125,-0.0001515843323431909,0.0006489045917987823,-0.0009906466584652662
1772794964860941000,3.786941162109375,-0.0012587403180077672,-0.0018387781456112862,-0.00010406458750367165
1772794964870984700,3.796984619140625,0.0018957739230245352,-0.0012459587305784225,-0.000902480271179229
1772794964881028900,3.80702880859375,0.003504558000713587,-0.0018046223558485508,-0.0008904354181140661
1772794964891073000,3.817072998046875,0.00011142471339553595,-0.0011031460016965866,0.0007735076360404491
1772794964901117000,3.827116943359375,-0.00015779118984937668,-0.0009152311831712723,0.0005053847562521696
1772794964911161900,3.837161865234375,-0.003190066199749708,-0.0005434541963040829,-0.0011939783580601215
1772794964921205800,3.847205810546875,0.0011278486344963312,0.0024493923410773277,-0.000465690391138196
1772794964931250000,3.85725,0.000520115252584219,-0.00032508838921785355,-0.0004901914508081973
1772794964941294000,3.867294189453125,0.001513467519544065,0.0016548666171729565,-0.000026394380256533623
1772794964951337700,3.877337646484375,0.0009297026554122567,0.0011613829992711544,0.0006013127276673913
1772794964961383000,3.8873828125,-0.0003589516272768378,-0.0013580583035945892,0.004015960730612278
1772794964971427000,3.897427001953125,-0.0005176760023459792,0.00008351076394319534,-0.00011406897101551294
1772794964981470700,3.907470703125,0.0012566260993480682,0.0011730329133570194,-0.0016955924220383167
1772794964991515000,3.917514892578125,-0.0013556686462834477,0.0009139073081314564,-0.0008729420369490981
1772794965001558800,3.927558837890625,0.0005463926354423165,-0.00047852378338575363,-0.001289835199713707
1772794965011603700,3.937603759765625,-0.000954564951825887,0.000052510760724544525,0.002048170892521739
1772794965021648000,3.94764794921875,0.0008342418586835265,0.0021956865675747395,-0.002410334534943104
1772794965031691800,3.95769189453125,-0.0021170731633901596,0.0009541213512420654,-0.0005799438804388046
1772794965041736000,3.96773583984375,-0.0003035229165107012,0.0017363685183227062,0.00046386232133954763
1772794965051780900,3.97778076171875,-0.0014742484781891108,-0.00022957753390073776,-0.000599804159719497
1772794965061823700,3.98782373046875,-0.00037421786691993475,0.0010290970094501972,-0.0014861805830150843
1772794965071868000,3.997867919921875,-0.0004312095115892589,0.0018205889500677586,0.002079259604215622
1772794965081912800,4.007912841796875,0.000972243957221508,0.00041844602674245834,-0.000527374679222703
1772794965091956700,4.017956787109375,0.00003108277451246977,-0.0018452410586178303,0.0014697297010570765
1772794965102001000,4.0280009765625,0.0004885318921878934,0.0013474212028086185,0.00014824536629021168
1772794965112044800,4.038044921875,-0.0008790013380348682,-0.0003700512461364269,0.0009759558597579598
1772794965122089000,4.0480888671875,0.0015970042441040277,0.000033492688089609146,0.00021256436593830585
1772794965132134000,4.0581337890625,-0.0011492475168779492,-0.00019846856594085693,-0.0005248648812994361
1772794965142177800,4.068177734375,0.000015189056284725666,-0.0016913493163883686,0.001538761775009334
1772794965152222000,4.078221923828125,-0.001479643164202571,-0.001017303206026554,-0.0029286909848451614
1772794965162265900,4.088265869140625,0.0010160352103412151,0.0013997480273246765,0.0026316866278648376
1772794965172310300,4.098310302734375,0.0015089863445609808,0.0011142566800117493,0.0011677471920847893
1772794965182354400,4.1083544921875,-0.0007375311106443405,0.0030213105492293835,-0.00029153062496334314
1772794965192398600,4.118398681640625,0.00023691949900239706,-0.0006370735354721546,0.002740478375926614
1772794965202442500,4.1284423828125,-0.0024754321202635765,0.0006080814637243748,-0.002929696114733815
1772794965212486400,4.138486328125,-0.0013443876523524523,-0.00025957636535167694,-0.0022561827208846807
1772794965222531600,4.148531494140625,0.0009482246823608875,0.0002359701320528984,0.00020660983864217997
1772794965232575500,4.158575439453125,0.0014369147829711437,-0.00002342183142900467,0.0010585550917312503
1772794965242619400,4.168619384765625,0.0014254481066018343,-0.0008679237216711044,-0.0006440660799853504
1772794965252663300,4.178663330078125,-0.000631577568128705,0.0016215997748076916,-0.00028720253612846136
1772794965262707500,4.18870751953125,0.0012536447029560804,-0.0035835409071296453,-0.0023927432484924793
1772794965272752600,4.198752685546875,0.0000264599802903831,-0.0002162400633096695,-0.0026790329720824957
1772794965282796300,4.20879638671875,0.0005226193461567163,-0.000022630207240581512,0.0005328354891389608
1772794965292840400,4.21884033203125,-0.0008193475077860057,0.004395553842186928,0.000506470212712884
1772794965302884400,4.22888427734375,0.00041524902917444706,0.00012824730947613716,0.00109101552516222
1772794965312928500,4.238928466796875,-0.0024841343984007835,0.0018553072586655617,0.0015389590989798307
1772794965322973400,4.248973388671875,0.00020327279344201088,0.002028665505349636,0.0001898107584565878
1772794965333017300,4.259017333984375,-0.0006310954922810197,0.000767925288528204,-0.002092252019792795
1772794965343061500,4.2690615234375,0.0010801245225593448,-0.00034275325015187263,-0.0005149256903678179
1772794965353105700,4.279105712890625,0.002210902515798807,0.0013227877207100391,0.0000624476233497262
1772794965363149300,4.2891494140625,0.0015797922387719154,-0.0013407659716904163,0.002996413502842188
1772794965373194500,4.299194580078125,-0.00034860282903537154,0.0000789654441177845,-0.0006649004644714296
1772794965383238700,4.30923876953125,-0.0006280461675487459,0.0018603131175041199,-0.002166051883250475
1772794965393282300,4.3192822265625,-0.001178787904791534,-0.0003471807576715946,-0.0007489839335903525
1772794965403326500,4.329326416015625,0.0014854969922453165,-0.0006019114516675472,0.00005697156302630901
1772794965413371600,4.33937158203125,-0.0010104174725711346,0.0008170208893716335,-0.0006160092889331281
1772794965423415300,4.349415283203125,0.0002243189373984933,0.0007222932763397694,0.0008590735960751772
1772794965433459500,4.35945947265625,0.0013905171072110534,-0.0007064924575388432,0.0025288756005465984
1772794965443504600,4.369504638671875,0.0018940357258543372,-0.0006709019653499126,0.0010475128656253219
1772794965453548500,4.379548583984375,0.00022663059644401073,0.0008396431803703308,-0.0047667003236711025
1772794965463592400,4.389592529296875,0.000893499527592212,0.0005319025367498398,-0.0011225934140384197
1772794965473636400,4.39963623046875,0.0017454447224736214,0.0009060767479240894,0.0022518979385495186
1772794965483680500,4.409680419921875,0.00027106114430353045,0.0008862935937941074,0.0009966774377971888
1772794965493725400,4.419725341796875,0.0009706735727377236,0.0008830977603793144,0.00016337435226887465
1772794965503769300,4.429769287109375,0.0005196278216317296,0.0016326145268976688,-0.0009739531087689102
1772794965513813500,4.4398134765625,0.001523373182862997,-0.0003959154710173607,0.0005491087213158607
1772794965523857400,4.449857421875,-0.0007874720031395555,0.00039860932156443596,-0.00007105350960046053
1772794965533902300,4.45990234375,0.002521239221096039,-0.002584663685411215,-0.0005871740868315101
1772794965543946500,4.469946533203125,0.0014955244259908795,0.0024195308797061443,0.0023658089339733124
1772794965553990400,4.479990478515625,0.0004718053387477994,0.0024099438451230526,-0.0005879030795767903
1772794965564034600,4.49003466796875,-0.002213019412010908,0.0018245857208967209,0.0010571852326393127
1772794965574078500,4.500078369140625,0.0016142092645168304,-0.0013035633601248264,-0.0017870706506073475
1772794965584123400,4.510123291015625,-0.0005109327612444758,0.002386515960097313,-0.0012263830285519361
1772794965594167600,4.52016748046875,-0.0013932380825281143,0.0008235066197812557,-0.00109482288826257
1772794965604211500,4.53021142578125,0.004461529664695263,-0.0010991762392222881,0.0014246737118810415
1772794965614255400,4.54025537109375,0.0003706475254148245,0.0009226957336068153,0.0012068271171301603
1772794965624299500,4.550299560546875,0.0025107976980507374,-0.0006652399897575378,0.0016680540284141898
1772794965634344400,4.560344482421875,0.0003017056733369827,0.0004663369618356228,-0.0018305405974388123
1772794965644388400,4.570388427734375,0.000921530881896615,0.0001910231076180935,0.0007572883041575551
1772794965654432500,4.5804326171875,-0.0009863576851785183,-0.0006593242287635803,0.0008595535764470696
1772794965664476400,4.590476318359375,0.0016323770396411419,-0.0010041715577244759,-0.0002767271362245083
1772794965674520600,4.6005205078125,0.0007103907410055399,0.0032859141938388348,0.0009123742347583175
1772794965684565500,4.6105654296875,-0.00007392506813630462,-0.0002742479555308819,-0.00034036103170365095
1772794965694609400,4.620609375,0.0023772483691573143,-0.00017784163355827332,0.00045858731027692556
1772794965704653600,4.630653564453125,0.0014936364023014903,0.00175806088373065,-0.0017319368198513985
1772794965714697500,4.640697509765625,-0.0011562089202925563,0.004116289783269167,-0.0006168712861835957
1772794965724741400,4.650741455078125,-0.000047152163460850716,0.0019433479756116867,-0.000795450177974999
1772794965734786600,4.66078662109375,0.0010031985584646463,-0.0011866651475429535,-0.0014460603706538677
1772794965744830500,4.67083056640625,-0.0018722377717494965,0.001610766164958477,-0.0019092027796432376
1772794965754874400,4.680874267578125,0.0014274189015850425,0.0011713444255292416,0.00004609010647982359
1772794965764918500,4.69091845703125,0.0015129009261727333,0.002549245487898588,-0.000325540779158473
1772794965774963500,4.70096337890625,-0.0023654603864997625,-0.0002444107085466385,0.0014257540460675955
1772794965785007400,4.71100732421875,-0.0012207177933305502,-0.0008584880270063877,-0.001475560711696744
1772794965795051300,4.72105126953125,-0.0020761252380907536,0.0006334148347377777,-0.0013019226025789976
1772794965805095400,4.731095458984375,0.0011859420919790864,0.0013479795306921005,-0.0016974123427644372
1772794965815139600,4.7411396484375,-0.0012452576775103807,0.0011226763017475605,-0.00010963564272969961
1772794965825184300,4.751184326171875,0.0005842599202878773,-0.000691635999828577,0.0008024864364415407
1772794965835228400,4.761228515625,0.000854038109537214,-0.00031213555485010147,0.0012512290850281715
1772794965845272600,4.7712724609375,0.0016286378959193826,-0.0006376728415489197,0.000949289184063673
1772794965855316500,4.78131640625,-0.0005788562120869756,-0.0004467237740755081,-0.0012233175802975893
1772794965865360400,4.7913603515625,-0.0012951220851391554,-0.0023239227011799812,0.0018978007137775421
1772794965875405600,4.801405517578125,-0.0011347997933626175,0.00047319522127509117,-0.00018585659563541412
1772794965885449500,4.811449462890625,0.0013111416483297944,0.0006834007799625397,-0.002546267118304968
1772794965895493600,4.82149365234375,0.0006698524812236428,0.0002857907675206661,-0.0008820578223094344
1772794965905537300,4.831537353515625,-0.00022806762717664242,0.0016230642795562744,0.000010836287401616573
1772794965915581400,4.84158154296875,-0.0033250576816499233,-0.0010787127539515495,0.002488907426595688
1772794965925626600,4.851626708984375,-0.0001614188076928258,0.00004112161695957184,-0.00028989906422793865
1772794965935670300,4.861670166015625,-0.000141178781632334,-0.000280055683106184,0.0015407579485327005
1772794965945714400,4.87171435546875,0.0007912642322480679,0.001185462810099125,0.003206367837265134
1772794965955758600,4.881758544921875,-0.0006098247831687331,-0.0013045924715697765,0.0010657187085598707
1772794965965802500,4.891802490234375,0.0006536832661367953,-0.0008254493586719036,0.00030971597880125046
1772794965975847400,4.901847412109375,0.0026928656734526157,-0.0010688621550798416,0.002040238119661808
1772794965985891300,4.911891357421875,-0.00020468281581997871,-0.00014338456094264984,-0.0006449196371249855
1772794965995935500,4.921935546875,0.001398540218360722,0.00018258625641465187,0.0001859866315498948
1772794966005979600,4.931979736328125,-0.0012954983394593,0.0013213283382356167,0.0012241563526913524
1772794966016024300,4.9420244140625,-0.0009247863781638443,0.0003980104811489582,0.002100070007145405
1772794966026068500,4.952068359375,-0.00019265367882326245,0.001143528614193201,0.0012564579956233501
1772794966036112600,4.962112548828125,-0.0005215540295466781,0.0012987907975912094,0.0005334096495062113
1772794966046156300,4.97215625,-0.002307870890945196,0.0005799485370516777,0.0016147182323038578
1772794966056200400,4.982200439453125,0.0003366480814293027,0.0013538636267185211,-0.001157366088591516
1772794966066245600,4.99224560546875,0.0011085147270932794,0.0006678127683699131,0.0005822796374559402
1772794966076289500,5.00228955078125,0.0001561683602631092,-0.0006898664869368076,0.001230226713232696
1772794966086333400,5.01233349609375,-0.0011888090521097183,-0.000548521988093853,0.0007465372327715158
1772794966096377300,5.02237744140625,-0.00018799304962158203,0.000467473641037941,-0.002171488478779793
1772794966106421500,5.03242138671875,0.0014332334976643324,0.0024046339094638824,0.003095267340540886
1772794966116466400,5.042466552734375,-0.0007308513158932328,0.0006485451012849808,0.00016152916941791773
1772794966126510300,5.05251025390625,0.0005317266331985593,-0.00026114843785762787,-0.0005478130769915879
1772794966136554500,5.062554443359375,0.0013109676074236631,0.0006041126325726509,0.0012615385930985212
1772794966146598400,5.072598388671875,-0.0004998174263164401,-0.00021795788779854774,0.0010518580675125122
1772794966156642600,5.082642578125,-0.0013616164214909077,0.00005368422716856003,0.0003154939040541649
1772794966166687500,5.0926875,-0.002126432955265045,0.0004157247021794319,0.00023515347857028246
1772794966176732000,5.10273193359375,-0.0010052421130239964,0.0005978848785161972,-0.001277788309380412
1772794966186775800,5.11277587890625,-0.0005890295142307878,0.0008149510249495506,0.0008784109959378839
1772794966196819700,5.12281982421875,-0.00007503939559683204,0.00011826818808913231,0.0004946496337652206
1772794966206864000,5.13286376953125,-0.0010051309363916516,-0.0016855373978614807,-0.0009771953336894512
1772794966216909000,5.142908935546875,-0.00024213525466620922,-0.001057563815265894,-0.001684797229245305
1772794966226952700,5.15295263671875,-0.0006756082875654101,0.0011813407763838768,0.0012561054900288582
1772794966236996900,5.162996826171875,-0.0001224697334691882,0.001022349577397108,0.000166606274433434
1772794966247040800,5.173040771484375,-0.0010601093526929617,-0.0017147520557045937,-0.0013253060169517994
1772794966257085000,5.1830849609375,0.001521026249974966,-0.0018252735026180744,-0.00036736694164574146
1772794966267129900,5.1931298828125,0.0007320092990994453,0.0011746701784431934,0.0008455186616629362
1772794966277173800,5.203173828125,-0.0000131431152112782,-0.0023103426210582256,0.0011943925637751818
1772794966287218000,5.213218017578125,-0.0023316671140491962,-0.0015787682496011257,-0.0012727606808766723
1772794966297261800,5.22326171875,0.0014944964786991477,0.00023617595434188843,-0.0018211056012660265
1772794966307305700,5.2333056640625,-0.0001636309316381812,0.0017363312654197216,0.0019739586859941483
1772794966317351000,5.243350830078125,0.0010888536926358938,0.0019160942174494267,0.0002857806393876672
1772794966327394800,5.253394775390625,-0.000025815621484071016,0.0021621212363243103,-0.0026874884497374296
1772794966337438700,5.263438720703125,0.000167529855389148,0.00043106684461236,-0.0022893459536135197
1772794966347483000,5.27348291015625,-0.00042984142783097923,0.0002924366854131222,0.001241721911355853
1772794966357526800,5.28352685546875,-0.0009797841776162386,0.000537180807441473,-0.0025444943457841873
1772794966367571700,5.29357177734375,-0.0012194530572742224,0.0014132698997855186,0.0007720871362835169
1772794966377616000,5.303615966796875,0.0026330756954848766,0.0007573328912258148,-0.00061328912852332
1772794966387659800,5.31365966796875,0.0005179863073863089,0.0020472388714551926,0.000008149305358529091
1772794966397704000,5.323703857421875,-0.0006048023933544755,-0.00049608014523983,0.00016447692178189754
1772794966407748900,5.333748779296875,-0.000003220688086003065,0.0004991139285266399,0.002272167708724737
1772794966417792800,5.343792724609375,-0.00022665993310511112,-0.00004843203350901604,-0.0015215054154396057
1772794966427837000,5.3538369140625,-0.0001175917568616569,-0.0005267700180411339,-0.0006066740024834871
1772794966437880800,5.363880859375,0.00126831722445786,-0.00155581533908844,0.000631695962511003
1772794966447924700,5.3739248046875,0.0005752863362431526,0.0010200506076216698,-0.00016327027697116137
1772794966457970000,5.383969970703125,-0.0023672403767704964,0.002630730625241995,-0.0016000455943867564
1772794966468013800,5.394013916015625,-0.00028345780447125435,-0.001696055755019188,-0.0012959622545167804
1772794966478058000,5.40405810546875,-0.00030023575527593493,0.0008227620273828506,0.0022175461053848267
1772794966488101600,5.4141015625,0.0003791090566664934,-0.0011928477324545383,0.0005455752834677696
1772794966498145800,5.424145751953125,0.00008509610779583454,-0.0002945633605122566,-0.00012207916006445885
1772794966508191000,5.43419091796875,0.0019057756289839745,-0.00022689346224069595,0.002432285575196147
1772794966518234600,5.444234619140625,0.00011959357652813196,0.000004002358764410019,0.0018197584431618452
1772794966528278800,5.45427880859375,-0.0000731997424736619,-0.0005027619190514088,-0.0004694649251177907
1772794966538323000,5.464322998046875,0.0015710359439253807,-0.0029496741481125355,0.0006767596350982785
1772794966548366800,5.474366943359375,-0.0009370553307235241,0.0020209159702062607,0.0017246182542294264
1772794966558411800,5.484411865234375,0.002419060096144676,-0.0008566295728087425,0.001149109099060297
1772794966568456000,5.4944560546875,-0.0021319796796888113,-0.00044144270941615105,0.0004679508274421096
1772794966578499800,5.504499755859375,-0.0002661690232343972,0.0010355464182794094,0.0018360167741775513
1772794966588544000,5.5145439453125,0.0002289764815941453,0.0010584569536149502,-0.001032315194606781
1772794966598587600,5.524587646484375,-0.000831227982416749,-0.0017354651354253292,-0.00007490883581340313
1772794966608632800,5.5346328125,-0.0010506361722946167,-0.000380068551748991,0.00019681011326611042
1772794966618677000,5.544677001953125,-0.00038644374581053853,0.00038239452987909317,0.0009286468848586082
1772794966628720600,5.554720703125,0.001020347699522972,-0.00047019170597195625,0.00016026280354708433
1772794966638764800,5.564764892578125,0.0023820220958441496,0.0006283624097704887,-0.0013718537520617247
1772794966648808700,5.57480859375,0.00011829991126433015,-0.0007243044674396515,0.00038542854599654675
1772794966658854000,5.58485400390625,-0.0008007569122128189,0.00037877680733799934,0.0005702519556507468
1772794966668897800,5.594897705078125,0.0007735359249636531,0.00009015761315822601,-0.00021172245033085346
1772794966678941700,5.604941650390625,-0.0011588537599891424,0.00028616609051823616,-0.00007803179323673248
1772794966688985900,5.61498583984375,-0.001248720451258123,0.0000678463838994503,0.0003354086074978113
1772794966699030000,5.625030029296875,0.0001888538827188313,0.0009426949545741081,0.00021743052639067173
1772794966709074700,5.63507470703125,0.000289859832264483,-0.0011384054087102413,-0.0009765822906047106
1772794966719118800,5.645118896484375,0.00045151368249207735,-0.00016608554869890213,0.00036751513835042715
1772794966729163000,5.6551630859375,0.0005071319174021482,-0.00009372318163514137,-0.002619398757815361
1772794966739207000,5.66520703125,0.0006512089166790247,0.000007743481546640396,0.0009164800867438316
1772794966749250800,5.675250732421875,0.002354192081838846,0.0010425932705402374,-0.000463015865534544
1772794966759296000,5.6852958984375,-0.0009292191825807095,0.001598394475877285,-0.0010832661064341664
1772794966769340000,5.69533984375,0.0008720031473785639,0.0005739694461226463,0.00114403513725847
1772794966779383800,5.7053837890625,0.0007537588244304061,-0.0013634799979627132,0.000021779094822704792
1772794966789427700,5.715427734375,0.00016003329074010253,-0.0006748652085661888,-0.0005082775023765862
1772794966799471900,5.725471923828125,0.0008231604588218033,0.0011781626380980015,-0.00018949713557958603
1772794966809516800,5.735516845703125,0.00282762898132205,-0.00002013612538576126,0.0004237395478412509
1772794966819560700,5.745560791015625,0.0015003096777945757,-0.0023013995960354805,-0.0014910732861608267
1772794966829604900,5.75560498046875,0.0004250210477039218,-0.0012161843478679657,0.0016487481771036983
1772794966839648800,5.765648681640625,0.0011643145699054003,0.0006192661821842194,0.0011123873991891742
1772794966849693000,5.77569287109375,-0.0014310333644971251,0.0006727729924023151,0.00021134060807526112
1772794966859737900,5.78573779296875,0.0023786185774952173,0.0004890146665275097,0.0006568874232470989
1772794966869781800,5.79578173828125,-0.0008708800305612385,0.00014109862968325615,-0.00006792880594730377
1772794966879826000,5.805825927734375,-0.0004698080010712147,0.0016841343604028225,-0.0038094038609415293
1772794966889869800,5.815869873046875,0.00032912997994571924,-0.00030192313715815544,0.0011701058829203248
1772794966899913700,5.825913818359375,-0.002247211989015341,0.0018954514525830746,-0.0007878501783125103
1772794966909959000,5.835958984375,0.00008948205504566431,-0.00119012501090765,-0.0004929496208205819
1772794966920002800,5.8460029296875,0.0009427588665857911,-0.0008479086682200432,0.001801097416318953
1772794966930046700,5.856046630859375,-0.0003649700083769858,0.0018970686942338943,-0.0004952444578520954
1772794966940091000,5.8660908203125,0.0009064230835065246,0.0021862881258130074,0.0010456605814397335
1772794966950136000,5.876135986328125,0.0004887620452791452,-0.00003367476165294647,0.0015798233216628432
1772794966960179700,5.8861796875,-0.001365597010590136,-0.0001969262957572937,0.00239182123914361
1772794966970223900,5.896223876953125,-0.00019414525013417006,-0.0005637328140437603,-0.0021842278074473143
1772794966980267800,5.906267822265625,0.00011744454968720675,0.0010293698869645596,0.00003312004264444113
1772794966990312000,5.91631201171875,0.0012193782022222877,0.000988602638244629,0.0006844011368229985
1772794967000356900,5.92635693359375,0.0002734233858063817,-0.00030329683795571327,0.0021006702445447445
1772794967010400800,5.93640087890625,-0.00008504441939294338,0.0006938520818948746,0.00408300431445241
1772794967020445000,5.94644482421875,0.0012859508860856295,0.0018629799596965313,0.0009436701657250524
1772794967030488800,5.95648876953125,-0.0011491372715681791,-0.0007133712060749531,0.001076000859029591
1772794967040532700,5.96653271484375,-0.00044526380952447653,-0.0019267075695097446,0.001888531376607716
1772794967050578000,5.976577880859375,0.0005405296105891466,-0.000550583004951477,-0.0011847722344100475
1772794967060621800,5.986621826171875,0.0007104392861947417,0.0007197447121143341,-0.00013921514619141817
1772794967070665700,5.996665771484375,-0.00021419866243377328,-0.0008632256649434566,0.0008878043154254556
1772794967080710000,6.0067099609375,-0.0004496221081353724,-0.00012979097664356232,-0.00025708856992423534
1772794967090753800,6.01675390625,0.00041013804730027914,-0.0012523536570370197,-0.00021546008065342903
1772794967100798700,6.026798828125,0.000329710659570992,-0.000015049241483211517,0.0007976063061505556
1772794967110843000,6.0368427734375,-0.0015355120413005352,-0.0008343756198883057,0.0007025799714028835
1772794967120886800,6.04688671875,-0.0012713264441117644,0.0014484860002994537,0.0001600941177457571
1772794967130931000,6.056930908203125,-0.00007071276195347309,-0.00007908279076218605,0.001266586477868259
1772794967140974800,6.066974853515625,-0.001347165904007852,-0.002200556918978691,0.0010189126478508115
1772794967151019800,6.077019775390625,-0.0006672167219221592,0.00048463884741067886,0.0010757293784990907
1772794967161064000,6.08706396484375,0.00018552748952060938,0.001502232626080513,-0.0011623912723734975
1772794967171107800,6.09710791015625,0.0014388690469786525,-0.0019404422491788864,0.0011327307438477874
1772794967181152000,6.107152099609375,-0.001114836079068482,0.001782124862074852,-0.0006124386563897133
1772794967191196200,6.117196044921875,-0.0015566367655992508,0.002130206674337387,0.0006979350000619888
1772794967201241000,6.127240966796875,-0.0002921678824350238,-0.0006551928818225861,-0.001309555838815868
1772794967211285000,6.137284912109375,0.0013843192718923092,0.001101919449865818,-0.002353902906179428
1772794967221329200,6.1473291015625,0.0011321180500090122,-0.0003756028600037098,-0.00047877116594463587
1772794967231373000,6.157373046875,-0.0004503634409047663,-0.0014866655692458153,-0.0015718790236860514
1772794967241417200,6.167417236328125,0.0009115771390497684,-0.0017907987348735332,-0.0016853297129273415
1772794967251462100,6.177462158203125,-0.0014247798826545477,-0.00015633832663297653,-0.0017082227859646082
1772794967261506000,6.187506103515625,0.0006002876907587051,-0.0015771347098052502,0.00029793637804687023
1772794967271550200,6.19755029296875,-0.0007024190854281187,-0.000018613412976264954,0.0007660370320081711
1772794967281594000,6.207593994140625,0.000504525494761765,-0.00399018544703722,-0.0005130792269483209
1772794967291638000,6.217637939453125,0.0010693735675886273,0.0002160356380045414,-0.0010161447571590543
1772794967301683200,6.22768310546875,-0.0012419840786606073,-0.001078261062502861,-0.0018611657433211803
1772794967311727000,6.23772705078125,-0.0009184037335216999,0.0006598136387765408,-0.001178124686703086
1772794967321771300,6.247771240234375,0.0015311719616875052,-0.00235408591106534,0.00029593496583402157
1772794967331815000,6.25781494140625,0.0005916010122746229,-0.0004654722288250923,0.0011274955468252301
1772794967341859000,6.267859130859375,-0.0010422483319416642,-0.00000767456367611885,-0.0007899804622866213
1772794967351904300,6.277904296875,0.0014441476669162512,-0.0005694427527487278,-0.000307886628434062
1772794967361948000,6.287947998046875,0.0011466725263744593,-0.00043468689545989037,0.0008559146663174033
1772794967371992000,6.297991943359375,-0.0006726884166710079,0.0015016784891486168,-0.0005938645335845649
1772794967382036200,6.3080361328125,0.001242923317477107,0.0008124522864818573,0.0009616878814995289
1772794967392080100,6.318080078125,0.00033750024158507586,0.0002004466950893402,-0.00038930558366701007
1772794967402125000,6.328125,0.0025716261006891727,0.0008398718200623989,0.0019215194042772055
1772794967412169200,6.338169189453125,-0.0003407619660720229,0.0018695411272346973,-0.002710560569539666
1772794967422213000,6.348213134765625,-0.0007024192600511014,-0.00017496803775429726,-0.00003461632877588272
1772794967432257300,6.35825732421875,0.0005359675269573927,-0.0017462722025811672,-0.0027772444300353527
1772794967442301000,6.368301025390625,0.0014278602320700884,-0.00042188214138150215,-0.0017058546654880047
1772794967452346000,6.37834619140625,0.0006265656556934118,0.0006007817573845387,-0.000026965630240738392
1772794967462390300,6.388390380859375,0.00013574515469372272,0.0008982568979263306,0.0018127459334209561
1772794967472434000,6.398433837890625,0.000612429459579289,0.00017626071348786354,0.0017482275143265724
1772794967482478000,6.40847802734375,-0.00005549134220927954,-0.0013726339675486088,-0.00047338136937469244
1772794967492522200,6.418522216796875,0.0013034454314038157,-0.0006459588184952736,0.002343288389965892
1772794967502567200,6.428567138671875,0.0010613639606162906,0.00011011259630322456,0.000704379053786397
1772794967512611000,6.438611083984375,-0.0025786790065467358,0.0016009206883609295,-0.00013205083087086678
1772794967522655000,6.448655029296875,-0.00010300445137545466,0.0012515136040747166,0.0011574516538530588
1772794967532699100,6.45869921875,0.0011748331598937511,-0.0027055335231125355,-0.0006459286087192595
1772794967542743300,6.468743408203125,-0.0014382604276761413,-0.0017105764709413052,-0.001426501083187759
1772794967552788000,6.4787880859375,-0.0013154573971405625,0.0007036654278635979,0.0006975875003263354
1772794967562832100,6.48883203125,0.0008118756813928485,-0.001188244204968214,0.0006951907416805625
1772794967572876300,6.498876220703125,-0.0011834650067612529,0.0024749371223151684,-0.0023889802396297455
1772794967582920200,6.508920166015625,-0.00034190609585493803,0.0005457433871924877,-0.0009655207395553589
1772794967592964000,6.518964111328125,-0.0009268831927329302,-0.001870627049356699,-0.001535900984890759
1772794967603009300,6.52900927734375,0.0010893961880356073,0.0003091702237725258,-0.001110594137571752
1772794967613053200,6.53905322265625,-0.0018415406811982393,0.00251711905002594,-0.003770229872316122
1772794967623097000,6.54909716796875,0.0006003117887303233,-0.0007654931396245956,0.00006152642890810966
1772794967633141000,6.55914111328125,-0.00010142603423446417,-0.0015418794937431812,-0.00043160509085282683
1772794967643185200,6.56918505859375,0.001020563649944961,-0.0013195052742958069,0.0029079988598823547
1772794967653230000,6.57922998046875,-0.0008223871700465679,-0.0008021807298064232,-0.0002548400079831481
1772794967663274000,6.58927392578125,-0.0012615424348041415,-0.003514610230922699,0.0008799327770248055
1772794967673318100,6.599318115234375,-0.0012543742777779698,0.0012634382583200932,-0.00011833535972982645
1772794967683362000,6.609362060546875,0.00016642222180962563,-0.00036588357761502266,-0.00028824503533542156
1772794967693406200,6.61940625,0.002333111362531781,0.001666040625423193,0.0007659185212105513
1772794967703451100,6.629451171875,-0.0005127424956299365,-0.0017497297376394272,-0.0007153317565098405
1772794967713495000,6.6394951171875,0.0009888210333883762,0.0008348282426595688,-0.0004054754972457886
1772794967723539200,6.649539306640625,-0.0012769963359460235,0.0004787635989487171,-0.0005841735983267426
1772794967733583000,6.6595830078125,-0.0006477979477494955,-0.0005315542221069336,0.0014543486759066582
1772794967743627000,6.669626953125,-0.0013503398513421416,-0.0028024318162351847,0.00035472947638481855
1772794967753672200,6.679672119140625,0.0022819750010967255,-0.0006516990251839161,-0.0007958518108353019
1772794967763716000,6.689716064453125,0.0018606631783768535,0.0012367484159767628,-0.0005636241985484958
1772794967773760000,6.699760009765625,-0.0005134760867804289,-0.0000741095282137394,0.0012393506476655602
1772794967783804200,6.70980419921875,-0.0005603477475233376,0.0012233825400471687,0.001417516148649156
1772794967793848000,6.71984814453125,-0.0014750199625268579,0.00027390383183956146,0.0000875513069331646
1772794967803893000,6.72989306640625,-0.00027473323279991746,-0.0006715185008943081,-0.0016746623441576958
1772794967813937200,6.739937255859375,-0.0016704447334632277,-0.002206713892519474,-0.001145092537626624
1772794967823981000,6.74998095703125,0.0022060524206608534,-0.0014618276618421078,0.00013109424617141485
1772794967834025200,6.760025146484375,-0.0009720948291942477,-0.0007302942685782909,0.000024322071112692356
1772794967844069000,6.770069091796875,-0.0003196203033439815,0.000845764297991991,-0.00033493840601295233
1772794967854114000,6.780114013671875,0.0011786938412114978,0.0009462498128414154,-0.0016510217683389783
1772794967864158200,6.790158203125,0.000005571288056671619,0.00009350571781396866,-0.0018140071770176291
1772794967874202000,6.8002021484375,0.0008040439570322633,0.0018937932327389717,0.0013328914064913988
1772794967884246000,6.81024609375,0.0013284202432259917,-0.0007488611154258251,0.001259388169273734
1772794967894290200,6.820290283203125,-0.00029106729198247194,0.0003851652145385742,-0.00034774665255099535
1772794967904335000,6.830335205078125,0.0008519614348188043,0.001776933204382658,-0.00013842224143445492
1772794967914379000,6.84037890625,-0.0010364297777414322,-0.0005573364906013012,-0.003324559424072504
1772794967924423200,6.850423095703125,0.00022670754697173834,-0.00170808844268322,0.00029600795824080706
1772794967934467000,6.860467041015625,-0.0013928113039582968,-0.0014132428914308548,0.0005250560352578759
1772794967944511200,6.87051123046875,-0.003726006718352437,-0.0004925881512463093,-0.0025908425450325012
1772794967954556200,6.88055615234375,-0.00039140006992965937,-0.0027653330471366644,0.0005217279540374875
1772794967964600000,6.89060009765625,-0.00018713565077632666,-0.00137755973264575,0.00040907622314989567
1772794967974644200,6.900644287109375,0.0007954238681122661,0.0023011770099401474,-0.001669539138674736
1772794967984688000,6.910688232421875,-0.000051727634854614735,0.00031738821417093277,-0.0006980179459787905
1772794967994732000,6.92073193359375,-0.00007725739851593971,-0.00163746764883399,0.0012554905842989683
1772794968004777200,6.930777099609375,0.0012716336641460657,-0.00040176091715693474,0.0019321998115628958
1772794968014821000,6.940821044921875,0.00014255638234317303,-0.000657747033983469,0.000055018579587340355
1772794968024865000,6.950864990234375,-0.0019264534348621964,-0.0004620044492185116,-0.0031876463908702135
1772794968034909000,6.960908935546875,-0.0005872430047020316,-0.0002733240835368633,0.0024006618186831474
1772794968044953000,6.970953125,-0.0018077697604894638,0.0004364084452390671,0.0002533550141379237
1772794968054998300,6.980998291015625,0.0014094271464273334,-0.0011924919672310352,-0.001550974790006876
1772794968065042000,6.9910419921875,0.00015481188893318176,-0.0005389521829783916,0.000986751401796937
1772794968075086000,7.001086181640625,-0.0007367548532783985,0.0015958119183778763,0.003176948055624962
1772794968085130200,7.011130126953125,0.0006922973552718759,-0.0007770643569529057,-0.0012420348357409239
1772794968095174100,7.021174072265625,0.00008673977572470903,0.001095607876777649,-0.0002970424247905612
1772794968105218000,7.031218017578125,-0.0031343535520136356,0.0017784424126148224,0.0000377169344574213
1772794968115263200,7.04126318359375,0.0013995894696563482,0.00010911328718066216,0.0008250708924606442
1772794968125307100,7.05130712890625,-0.0006318697123788297,0.00010911328718066216,0.001707376097328961
1772794968135351300,7.061351318359375,-0.00039407669100910425,0.0005151387304067612,-0.001344630029052496
1772794968145395000,7.07139501953125,-0.000003657303750514984,0.0017047733999788761,0.0020439759828150272
1772794968155440000,7.081440185546875,0.0008900610264390707,-0.0005990839563310146,-0.0002767760306596756
1772794968165484300,7.091484375,0.002275703940540552,-0.001563947182148695,0.00015039497520774603
1772794968175527200,7.101527099609375,-0.00041846127714961767,0.0002719569019973278,-0.00028849951922893524
1772794968185571000,7.111571044921875,-0.003781767562031746,-0.0000865045003592968,0.0009535988792777061
1772794968195615000,7.121614990234375,0.000488981488160789,-0.0010074120946228504,0.00003809959162026644
1772794968205659100,7.1316591796875,0.001411766861565411,0.0012749163433909416,0.0007070857100188732
1772794968215704000,7.1417041015625,-0.0026004966348409653,0.0001475941389799118,0.0004380972823128104
1772794968225748000,7.151748046875,0.00007171917241066694,-0.001489983405917883,0.0004154604393988848
1772794968235792100,7.161792236328125,0.00008490367326885462,-0.0007750857621431351,0.0015687070554122329
1772794968245836000,7.1718359375,-0.0006386771565303206,-0.0004778769798576832,-0.0036992919631302357
1772794968255880200,7.181880126953125,0.00016571814194321632,0.0006019026041030884,0.0024583423510193825
1772794968265925000,7.191925048828125,0.0009835747769102454,-0.0035446390975266695,-0.0015808740863576531
1772794968275969000,7.201968994140625,-0.0022991234436631203,-0.0001609576866030693,0.0008275695145130157
1772794968286013200,7.21201318359375,0.001500941114500165,0.00021055294200778008,0.0011878951918333769
1772794968296057000,7.22205712890625,0.0016894435975700617,0.001118432730436325,0.002283253474161029
1772794968306101000,7.23210107421875,-0.0016962330555543303,0.0014582518488168716,0.00018601410556584597
1772794968316146200,7.242146240234375,-0.000017462880350649357,-0.00032614171504974365,0.002552266698330641
1772794968326190000,7.252190185546875,0.00009438989218324423,-0.0005162917077541351,-0.0013958695344626904
1772794968336234000,7.26223388671875,-0.0012643866939470172,0.00002357829362154007,-0.0015243872767314315
1772794968346278100,7.272278076171875,-0.000651327078230679,0.0003141295164823532,0.0012988297967240214
1772794968356322000,7.282322021484375,-0.0020085456781089306,0.0005064932629466057,-0.0010555828921496868
1772794968366367000,7.292366943359375,-0.0000013210810720920563,0.0007893210276961327,0.0012230176944285631
1772794968376411000,7.302410888671875,0.0009512519463896751,-0.0005294852890074253,-0.00011212413664907217
1772794968386455000,7.312455078125,0.0003829332999885082,-0.00009512342512607574,0.002387785352766514
1772794968396499200,7.322499267578125,-0.00001718965359032154,0.0007100757211446762,-0.002027868526056409
1772794968406543000,7.332543212890625,0.0014310372062027454,0.00019342266023159027,0.00042170705273747444
1772794968416588000,7.342588134765625,0.0013777031563222408,0.000743398442864418,0.0017435033805668354
1772794968426632200,7.352632080078125,0.0013745075557380915,-0.000805229414254427,-0.0009686598787084222
1772794968436676000,7.362676025390625,0.00034571264404803514,-0.0009113531559705734,0.0007752578239887953
1772794968446720000,7.372719970703125,0.0019124504178762436,-0.0010567614808678627,0.00007271592039614916
1772794968456764000,7.382763916015625,0.0005193466786295176,0.0012119151651859283,0.0012392101343721151
1772794968466809000,7.39280908203125,0.001972900005057454,-0.004208683036267757,0.0008376054465770721
1772794968476853200,7.402853271484375,-0.002149021252989769,-0.0015650084242224693,0.0012564162025228143
1772794968486897000,7.41289697265625,-0.0008968031033873558,0.00022490229457616806,-0.0010778444120660424
1772794968496941000,7.422941162109375,-0.0015720005612820387,-0.0017045238055288792,-0.0021434766240417957
1772794968506985200,7.432985107421875,0.001444029388949275,-0.0017053228802978992,-0.0007684865850023925
1772794968517030000,7.44302978515625,-0.002234184881672263,0.0006136111915111542,-0.0003910035593435168
1772794968527074000,7.453073974609375,-0.0008735758601687849,-0.00010437704622745514,0.0007440355839207768
1772794968537118200,7.4631181640625,0.0025598483625799417,0.0013999324291944504,0.00019982631783932447
1772794968547162000,7.473162109375,0.0008559578564018011,-0.00029570190235972404,-0.00019245734438300133
1772794968557206300,7.483206298828125,0.0011997787514701486,0.000205217394977808,-0.0003976933076046407
1772794968567251000,7.4932509765625,0.0012170892441645265,-0.0013181106187403202,0.0002875380450859666
1772794968577295000,7.503295166015625,-0.0008062795968726277,-0.000011647120118141174,-0.0003310925094410777
1772794968587339300,7.51333935546875,0.0004475365858525038,0.00024534808471798897,0.000011656433343887329
1772794968597383000,7.5233828125,0.00017537525855004787,0.0009808074682950974,0.000744004501029849
1772794968607427000,7.533427001953125,-0.0015615384327247739,-0.0004839310422539711,-0.001019806950353086
1772794968617472300,7.54347216796875,0.0032513365149497986,-0.0004297369159758091,-0.0007511173607781529
1772794968627516000,7.553515869140625,-0.0025903075002133846,-0.0003074975684285164,0.001247584936209023
1772794968637560000,7.56356005859375,-0.0010602327529340982,-0.0002246936783194542,0.0030393912456929684
1772794968647604000,7.57360400390625,-0.0006458449643105268,-0.0010292348451912403,-0.0012275256449356675
1772794968657648000,7.583648193359375,-0.0003351724590174854,-0.001710070762783289,0.0009470199001953006
1772794968667692300,7.5936923828125,-0.0005503558786585927,0.002076944801956415,-0.00024953833781182766
1772794968677737000,7.603737060546875,0.00047207216266542673,0.003421101253479719,0.000375974690541625
1772794968687781000,7.613781005859375,0.0008790030842646956,0.0005624638870358467,0.00008861965034157038
1772794968697825300,7.6238251953125,0.000920239370316267,-0.0014289198443293571,0.001144571346230805
1772794968707869000,7.633868896484375,0.0001508521381765604,0.0008403598330914974,-0.0032539055682718754
1772794968717913000,7.6439130859375,-0.0006108377710916102,-0.0012006587348878384,0.000093635986559093
1772794968727958000,7.6539580078125,-0.000684607308357954,-0.0003537731245160103,0.0008499736431986094
1772794968738002200,7.664002197265625,0.0004785828059539199,0.00038823485374450684,-0.0005725332885049284
1772794968748046000,7.674046142578125,0.00190150982234627,0.0010415082797408104,0.0013792973477393389
1772794968758090000,7.684090087890625,-0.002155718859285116,0.0005487976595759392,0.0009195994352921844
1772794968768134100,7.694134033203125,0.0005732222925871611,-0.0006115417927503586,-0.00039307272527366877
1772794968778179000,7.704178955078125,-0.000896465964615345,0.0025026248767971992,-0.0006717442302033305
1772794968788223000,7.714222900390625,0.001450577867217362,-0.0013315281830728054,0.0015847522299736738
1772794968798267100,7.72426708984375,-0.0009813137585297227,0.0005334732122719288,-0.0013984822435304523
1772794968808311000,7.73431103515625,0.0023774649016559124,0.0013643796555697918,-0.002792913466691971
1772794968818355200,7.744355224609375,0.0004390454851090908,-0.0009423638693988323,0.00033472839277237654
1772794968828400000,7.754400146484375,-0.0008192980894818902,-0.0010496890172362328,-0.0004104240797460079
1772794968838444000,7.764444091796875,-0.0010956869227811694,-0.0001662890426814556,0.002226798329502344
1772794968848488200,7.77448828125,0.0009562786435708404,0.00014609983190894127,-0.002042781561613083
1772794968858532000,7.784531982421875,-0.0008974672527983785,0.0010606939904391766,-0.000016517937183380127
1772794968868576000,7.794575927734375,-0.0007999956142157316,0.0010559004731476307,-0.0005624659825116396
1772794968878621200,7.80462109375,-0.0003156742895953357,0.00008925516158342361,-0.0023797713220119476
1772794968888665000,7.8146650390625,-0.0011210142401978374,-0.00012033572420477867,0.0022083225194364786
1772794968898709000,7.824708984375,-0.0019497489556670189,0.0022745290771126747,-0.0002728644758462906
1772794968908753200,7.834753173828125,0.0010441766353324056,-0.0003324388526380062,-0.0015791449695825577
1772794968918797000,7.844797119140625,-0.0003481470630504191,0.001255950890481472,0.0009919404983520508
1772794968928842000,7.854842041015625,0.0023283297196030617,-0.0015643364749848843,-0.0006379139958880842
1772794968938886100,7.86488623046875,-0.0001234209630638361,0.003613295964896679,-0.0003585764206945896
1772794968948930000,7.874929931640625,-0.0007585848798044026,0.0024561528116464615,0.00011067255400121212
1772794968958974200,7.88497412109375,0.0005059530958533287,-0.00009691575542092323,0.0006900931475684047
1772794968969017900,7.895017822265625,-0.00014146137982606888,-0.001494009979069233,-0.0006100620958022773
1772794968979063000,7.90506298828125,0.002185084857046604,0.0007749423384666443,0.0010679576080292463
1772794968989107200,7.915107177734375,-0.0016637153457850218,-0.0013995282351970673,-0.0006870654760859907
1772794968999151000,7.925151123046875,0.0005635552806779742,0.000922253355383873,-0.00044544588308781385
1772794969009195000,7.935195068359375,0.0012088391231372952,-0.0003368891775608063,0.00141610368154943
1772794969019239200,7.9452392578125,-0.0015107187209650874,0.0024662823416292667,-0.0009569340036250651
1772794969029283000,7.955282958984375,-0.002048677299171686,-0.0009990227408707142,0.0013155414490029216
1772794969039328000,7.965327880859375,0.00034712522756308317,-0.0005269567482173443,-0.003083121730014682
1772794969049372200,7.9753720703125,-0.0008092192583717406,-0.0004957979544997215,-0.001256459509022534
1772794969059416000,7.985416015625,0.001106850104406476,0.0009751901961863041,-0.0008475022623315454
1772794969069460200,7.995460205078125,-0.0005230044480413198,0.0008966266177594662,-0.00015401514247059822
1772794969079504100,8.005504150390625,0.00040996947791427374,0.001225021667778492,0.0024406074080616236
1772794969089548000,8.015548095703124,0.0007031834684312344,-0.0004373234696686268,-0.0012425442691892385
1772794969099592000,8.025592041015624,0.0010729302885010839,0.0022740643471479416,-0.0014744973741471767
1772794969109636000,8.035635986328124,-0.0015875676181167364,0.0014839041978120804,-0.0007775481208227575
1772794969119681000,8.045680908203124,0.0014207838103175163,-0.001159454695880413,-0.0008696133154444396
1772794969129725000,8.055724853515626,0.002026652917265892,-0.0019027427770197392,0.0008715614676475525
1772794969139769000,8.06576904296875,-0.0006400579586625099,-0.0004481715150177479,0.000336224096827209
1772794969149813200,8.075813232421876,0.00012107344809919596,0.0005084355361759663,-0.0016832510009407997
1772794969159857200,8.085857177734376,0.001325999735854566,-0.0006482931785285473,0.0009864517487585545
1772794969169902000,8.095902099609376,0.0011512964265421033,0.0013091303408145905,-0.002567270305007696
1772794969179946800,8.10594677734375,0.0023150015622377396,0.001037886831909418,0.0003810758935287595
1772794969189990700,8.11599072265625,0.0003879382275044918,0.001007260289043188,-0.001857577357441187
1772794969200034800,8.126034912109375,-0.00005019374657422304,-0.0002024732530117035,-0.00017109315376728773
1772794969210078700,8.13607861328125,-0.00031384668545797467,0.0017115403898060322,-0.0028678099624812603
1772794969220123600,8.14612353515625,-0.0012378657702356577,0.0022441758774220943,-0.0013618418015539646
1772794969230167600,8.15616748046875,0.0011014548363164067,0.0016726613976061344,0.0014539185212925076
1772794969240211700,8.166211669921875,-0.000752623425796628,0.0024413620121777058,0.000048131681978702545
1772794969250256000,8.176255859375,-0.0003853734815493226,-0.0014282106421887875,0.0009155232692137361
1772794969260299800,8.1862998046875,-0.0026908842846751213,-0.0013718935661017895,-0.0010844810167327523
1772794969270344700,8.1963447265625,-0.0005758017068728805,-0.00010769115760922432,-0.0008964618900790811
1772794969280388900,8.206388916015625,0.0022357574198395014,0.0001283641904592514,0.0022073532454669476
1772794969290432800,8.216432861328125,0.00017287279479205608,-0.0005797701887786388,0.00019134045578539371
1772794969300476700,8.2264765625,-0.000631936767604202,0.00008490541949868202,0.0012179531622678041
1772794969310520600,8.2365205078125,0.0008176217088475823,-0.0017228485085070133,0.00021713715977966785
1772794969320565800,8.246565673828124,-0.0008928739698603749,0.001084631308913231,0.0002586547052487731
1772794969330610000,8.25660986328125,0.0016616302309557796,-0.0005508158355951309,-0.001722737099044025
1772794969340653600,8.266653564453126,-0.0009010781068354845,-0.0012206248939037323,-0.0002429909072816372
1772794969350697700,8.27669775390625,-0.0005141207948327065,-0.00023871706798672676,0.0004928405396640301
1772794969360742000,8.286741943359376,0.001437450759112835,-0.002527696080505848,0.001359943998977542
1772794969370785800,8.296785888671875,-0.00021477427799254656,0.002093687653541565,0.000143412034958601
1772794969380830700,8.306830810546876,-0.001512177288532257,0.0010356470011174679,-0.0023414334282279015
1772794969390875000,8.316875,0.0024085284676402807,0.0012937071733176708,0.00035554973874241114
1772794969400920600,8.326920654296876,-0.0014865756966173649,-0.00047348905354738235,-0.0009592727292329073
1772794969410964700,8.33696484375,-0.0013209270546212792,-0.0010159746743738651,0.0007760429289191961
1772794969421009000,8.3470087890625,-0.0021952863316982985,0.003165637608617544,-0.0009975706925615668
1772794969431052800,8.357052734375,0.0006060928571969271,0.00055360933765769,0.0009241662919521332
1772794969441096700,8.3670966796875,-0.0001400286564603448,0.00016608182340860367,-0.003609050065279007
1772794969451142000,8.377141845703125,-0.0000393610680475831,-0.0001359209418296814,0.0019047587411478162
1772794969461185800,8.387185791015625,0.0012251705629751086,0.0013303016312420368,0.0008200490847229958
1772794969471229700,8.397229736328125,0.001422510831616819,-0.00017465092241764069,0.0011087357997894287
1772794969481273600,8.407273681640625,-0.0009285048581659794,0.00036557484418153763,0.00018505007028579712
1772794969491317800,8.41731787109375,0.0012574178399518132,0.001306469552218914,-0.004315692000091076
1772794969501362700,8.42736279296875,-0.00010557507630437613,0.0012098029255867004,-0.0002830573357641697
1772794969511406600,8.437406494140625,0.0007913775043562055,-0.0026579056866467,-0.00025269738398492336
1772794969521450800,8.44745068359375,-0.0004512350424192846,-0.0014404794201254845,0.0012781999539583921
1772794969531495000,8.457494873046874,-0.0006243404932320118,0.00019177235662937164,0.000351952388882637
1772794969541538800,8.467538818359374,-0.0009994754800572991,-0.0002566073089838028,0.0011329858098179102
1772794969551583700,8.477583740234374,-0.0010900229681283236,-0.0018696840852499008,-0.0005059235263615847
1772794969561628000,8.4876279296875,0.0003472268581390381,1.9371509552001953e-7,0.00047457905020564795
1772794969571671800,8.497671875,0.00010807497892528772,0.00020206114277243614,-0.0004572610487230122
1772794969581715700,8.5077158203125,-0.0009127724915742874,-0.000033692456781864166,0.0016902288189157844
1772794969591759600,8.517759521484376,0.000008947565220296383,0.0006246408447623253,-0.0012043608585372567
1772794969601804800,8.5278046875,0.0013655986404046416,-0.0014417641796171665,0.00011644384358078241
1772794969611848700,8.5378486328125,0.0011418930953368545,-0.002166144084185362,0.001584910787642002
1772794969621892600,8.547892578125,-0.0020663931500166655,0.001255976501852274,0.0020630820654332638
1772794969631936800,8.557936767578125,-0.0008701012120582163,0.0005885884165763855,0.001126181916333735
1772794969641980700,8.567980712890625,0.00030047481413930655,0.0007469053380191326,-0.0011361787328496575
1772794969652024800,8.57802490234375,0.0006450879154726863,0.0013330671936273575,0.000596740166656673
1772794969662069800,8.58806982421875,-0.000013312092050909996,-0.0003250562585890293,-0.0007058782503008842
1772794969672113700,8.59811376953125,-0.0009555384749546647,0.00039852457121014595,0.0022422410547733307
1772794969682157800,8.60815771484375,0.0022305527236312628,0.0013911831192672253,0.002447673585265875
1772794969692201700,8.61820166015625,-0.00170559948310256,0.00006839074194431305,-0.00048260262701660395
1772794969702245600,8.62824560546875,-0.0003337414236739278,-0.0004983935505151749,-0.0011437393259257078
1772794969712290800,8.638290771484375,0.0006867818301543593,-0.0014763064682483673,0.0024065207690000534
1772794969722335000,8.6483349609375,-0.00025651720352470875,-0.0002990216016769409,0.0007604432757943869
1772794969732378600,8.658378662109374,-0.00016144244000315666,-0.0012428462505340576,-0.0007881848141551018
1772794969742422800,8.6684228515625,-0.001732611795887351,-0.000012656673789024353,0.0005494356155395508
1772794969752466700,8.678466796875,0.0014908782904967666,0.0008025369606912136,0.0001963004469871521
1772794969762511600,8.68851171875,0.002293198835104704,0.002312084659934044,0.0003693340113386512
1772794969772555800,8.6985556640625,-0.0006179024348966777,-0.0001457463949918747,-0.0007513242308050394
1772794969782599700,8.708599609375,-0.0018452589865773916,0.0006187115795910358,0.0018199147889390588
1772794969792643800,8.718643798828126,-0.0008132841321639717,-0.0000034025870263576508,-0.0014603006420657039
1772794969802687700,8.728687744140625,0.0004951154114678502,-0.0002527330070734024,0.0000846831826493144
1772794969812731600,8.738731689453125,-0.0014407364651560783,-0.0004024030640721321,0.0009336988441646099
1772794969822776800,8.74877685546875,-0.0007090051658451557,0.000368666835129261,0.001331357634626329
1772794969832820700,8.75882080078125,-0.003236078657209873,0.0013108933344483376,0.00233457051217556
1772794969842864600,8.76886474609375,0.0009729756275191903,-0.002268662676215172,0.001048222417011857
1772794969852908800,8.77890869140625,-0.0007138706860132515,0.0006043557077646255,0.0005906913429498672
1772794969862952700,8.78895263671875,-0.0014646034687757492,0.0019491715356707573,0.0019857720471918583
1772794969872998000,8.798997802734375,0.0010771173983812332,0.0008341060020029545,0.0005780251231044531
1772794969883041800,8.809041748046875,-0.0014893332263454795,0.001834894996136427,-0.00035024259705096483
1772794969893085700,8.819085693359375,0.0003511774120852351,-0.0022882111370563507,-0.0007012472487986088
1772794969903129900,8.8291298828125,-0.001331676379777491,0.0019032089039683342,-0.0025602804962545633
1772794969913173800,8.839173828125,-0.002687757834792137,0.0007255594246089458,0.00030101987067610025
1772794969923218700,8.84921875,-0.00018397474195808172,0.0005792761221528053,-0.0009922680910676718
1772794969933262800,8.859262939453124,0.0006115115247666836,-0.0015046470798552036,0.0016778171993792057
1772794969943306800,8.869306640625,0.0008246666984632611,-0.0011855494230985641,0.0003516454016789794
1772794969953350700,8.8793505859375,-0.001240081968717277,-0.0006723580881953239,-0.00026088173035532236
1772794969963394600,8.88939453125,0.0011280737817287445,-0.00009060883894562721,-0.0013817367143929005
1772794969973439700,8.899439697265626,-0.00009032234083861113,0.001369335688650608,0.00010776927229017019
1772794969983484000,8.90948388671875,0.0005526505410671234,0.00019314419478178024,-0.00206345459446311
1772794969993527600,8.919527587890625,-0.0020386050455272198,0.0007587997242808342,-0.00029325135983526707
1772794970003571700,8.92957177734375,-0.00028728076722472906,0.0012506153434515,0.0007588134612888098
1772794970013615900,8.939615966796875,0.0013236652594059706,0.0005757701583206654,0.0014139509294182062
1772794970023660500,8.94966064453125,-0.00028706283774226904,-2.3888424038887024e-7,-0.005002949386835098
1772794970033704700,8.95970458984375,-0.0009480593726038933,0.00014943070709705353,0.0011785137467086315
1772794970043748900,8.969748779296875,-0.0020600128918886185,0.0006639151833951473,-0.0014126882888376713
1772794970053792800,8.979792724609375,0.0006388345500454307,-0.00028976285830140114,0.0007314226822927594
1772794970063837000,8.9898369140625,-0.00008081074338406324,-0.002531887963414192,0.00006048637442290783
1772794970073880600,8.999880615234375,0.00009895267430692911,0.0008673705160617828,-0.000325938337482512
1772794970083925800,9.00992578125,-0.0010353998513892293,-0.0014849603176116943,-0.00022821314632892609
1772794970093970000,9.019969970703125,0.003075188957154751,-0.0006607118993997574,-0.0003640343202278018
1772794970104013600,9.030013671875,-0.0007005538209341466,-0.0005090748891234398,-0.001621756935492158
1772794970114057700,9.0400576171875,0.00016497354954481125,-0.0012060240842401981,-0.0016569106373935938
1772794970124101600,9.0501015625,-0.0005618545692414045,0.0005485615693032742,0.0002256493316963315
1772794970134146800,9.060146728515624,0.0007873028516769409,0.00036000972613692284,0.00157826894428581
1772794970144190700,9.070190673828124,-0.00256819324567914,0.00043348129838705063,0.0002497495152056217
1772794970154234600,9.080234619140626,0.0004981704987585545,0.00005184998735785484,-0.0005337524344213307
1772794970164278800,9.09027880859375,-0.0018023967277258635,0.0024327021092176437,-0.0017934690695255995
1772794970174322400,9.100322509765626,-0.002306000329554081,0.001962919719517231,0.0010571785969659686
1772794970184367400,9.110367431640626,-0.0018167069647461176,-0.00025369226932525635,0.0013049500994384289
1772794970194411300,9.120411376953125,0.0006682885577902198,0.00003100000321865082,0.002173406770452857
1772794970204455400,9.130455322265625,-0.000048768939450383186,-0.0013606706634163857,-0.0013418636517599225
1772794970214499600,9.14049951171875,-0.00014171330258250237,-0.0004357551224529743,-0.0021493341773748398
1772794970224543200,9.150543212890625,-0.00036143523175269365,0.0005069323815405369,-0.001990671269595623
1772794970234587400,9.16058740234375,0.0012969152303412557,0.001427320297807455,-0.0017808141419664025
1772794970244632600,9.170632568359375,0.0007408808451145887,-0.00021262932568788528,-0.0017075835494324565
1772794970254676200,9.18067626953125,-0.0011547572212293744,0.0011823344975709915,-0.0007914562011137605
1772794970264720400,9.190720458984375,0.000994929694570601,0.000780235044658184,-0.0013661509146913886
1772794970274764300,9.200764404296875,-0.0000959011958912015,-0.0027809441089630127,0.00045811443123966455
1772794970284808400,9.210808349609374,-0.0004873053403571248,-0.00032554706558585167,0.00008021306712180376
1772794970294853400,9.220853271484375,0.00224616308696568,-0.000742331612855196,0.0006597168976441026
1772794970304897300,9.230897216796874,-0.0015684482641518116,-0.0004608249291777611,-0.0011344735976308584
1772794970314941400,9.24094140625,0.0010787337087094784,-0.0015423349104821682,0.0012754208873957396
1772794970324985300,9.2509853515625,-0.0014453454641625285,0.0012758257798850536,-0.001706583658233285
1772794970335029200,9.261029296875,0.002313972683623433,-0.000190777238458395,0.0016479340847581625
1772794970345074400,9.271074462890626,0.0015446986071765423,-0.000055528245866298676,0.00017970160115510225
1772794970355118300,9.281118408203126,-0.011612914502620697,-0.01320728287100792,0.03950686752796173
1772794970365162500,9.29116259765625,-0.0007808215450495481,0.02535259537398815,0.00940514262765646
1772794970375206400,9.301206298828125,0.002242132555693388,0.00957975722849369,-0.008124049752950668
1772794970385250300,9.311250244140625,0.0012048548087477684,-0.0025010458193719387,-0.001596950925886631
1772794970395294500,9.32129443359375,0.002488498343154788,0.010145507752895355,-0.0077302111312747
1772794970405339400,9.33133935546875,-0.00015194027218967676,-0.011267727240920067,-0.006644903682172298
1772794970415383300,9.34138330078125,-0.001173528959043324,0.010118521749973297,0.003426372306421399
1772794970425427500,9.351427490234375,-0.0023106136359274387,-0.007994255051016808,-0.0017275753198191524
