time,seconds_elapsed,z,y,x
1772794080797471200,0.06347119140625,0.09301146117448807,0.17022271114885806,0.15680990654192864
1772794080807516400,0.073516357421875,0.1134089370369911,0.18451427135169504,0.12226064427345991
1772794080817561300,0.083561279296875,0.13556640830934047,0.14517887078523636,0.12768727243207395
1772794080827606500,0.0936064453125,0.1485363645195961,0.0824614255875349,0.1532059637658298
1772794080837651200,0.103651123046875,0.18360826242268086,0.038004444223642346,0.184322255910933
1772794080847696400,0.1136962890625,0.2086900967091322,0.03112052992880344,0.15612572367005048
1772794080857741300,0.1237412109375,0.20381927580237388,0.029386253482103344,0.15366941655911504
1772794080867785500,0.133785400390625,0.13517945481836796,0.008920973080396652,0.15920878437720237
1772794080877830100,0.143830078125,0.09180968416929244,0.006892682123184204,0.14164485144019126
1772794080887875300,0.153875244140625,0.013093874850869177,0.008325345274806021,0.13322722477205096
1772794080897920300,0.163920166015625,-0.008798223483562469,-0.00032733225822448726,0.11136274509690701
1772794080907965400,0.17396533203125,-0.07333060914874076,0.004537058907747268,0.09713095225729047
1772794080918010400,0.18401025390625,-0.10618892265558243,0.023299042522907255,0.06410561162047088
1772794080928055300,0.19405517578125,-0.08635551041662692,0.010289923346042633,0.01135492222905159
1772794080938100200,0.204100341796875,-0.08118424525856971,0.008663783448934554,0.00243679869286716
1772794080948145400,0.2141455078125,-0.08315759115815162,0.005387538257241249,-0.0004136223021894693
1772794080958190300,0.2241904296875,-0.08079378463625908,0.013532266268134117,0.0012845599178224801
1772794080968235300,0.2342353515625,-0.051063832283020014,0.01239887832403183,-0.015408508468791842
1772794080978279400,0.244279541015625,-0.02436988662481308,-0.01383095695376396,-0.005271802923083305
1772794080988324400,0.254324462890625,0.021149171012639998,0.016739537876844405,0.009205416044965387
1772794080998369500,0.26436962890625,0.02792904041111469,0.034924013864994045,0.04082929238602519
1772794081008414200,0.274414306640625,0.03470423363447189,0.06344575947225094,0.09105966951958834
1772794081018459400,0.28445947265625,0.04090425731837749,0.06270341667234897,0.11195391592308879
1772794081028504300,0.29450439453125,0.046888007903099056,0.061218731072545045,0.1460109376952052
1772794081038549500,0.304549560546875,0.06120996324419975,0.06640168666839599,0.15601992520801722
1772794081048594400,0.314594482421875,0.08546528357863425,0.07601707175374031,0.17194880428910253
1772794081058639400,0.324639404296875,0.060064300340414045,0.09895780235826969,0.18810323575437068
1772794081068684300,0.334684326171875,0.042816812941432,0.12827215964794159,0.23174838927872476
1772794081078729500,0.3447294921875,0.04673252508044243,0.12207622761726379,0.23450177964009344
1772794081088774400,0.3547744140625,0.045620764446258545,0.11772037049531936,0.24123262226507067
1772794081098819300,0.3648193359375,0.04681085101366043,0.11143091496229171,0.25741701047718524
1772794081108863200,0.37486328125,0.05262918190360069,0.07818506344258785,0.2843931340776384
1772794081118908400,0.384908447265625,0.0883914001584053,0.07120178042650223,0.2758575070530176
1772794081128953300,0.394953369140625,0.10079261656999587,0.0748012662231922,0.28679128126055
1772794081138998300,0.404998291015625,0.12301321620643138,0.07721241901814938,0.2743228448316455
1772794081149043200,0.415043212890625,0.11644845086336135,0.06489478923678398,0.24551059184521434
1772794081159088400,0.42508837890625,0.03630816169977188,0.05067220261693001,0.21512940904162822
1772794081169133300,0.43513330078125,-0.03995499376952648,0.03466331710219383,0.17880509992465377
1772794081179178500,0.445178466796875,-0.08897826013565063,0.03963526029586792,0.13261464583165944
1772794081189223200,0.45522314453125,-0.08770166432857512,0.009494389054179191,0.10162833674177527
1772794081199268400,0.465268310546875,-0.07645546317100524,0.0010538929671049118,0.08793415791019797
1772794081209313300,0.475313232421875,-0.03896130655705929,0.0206786308914423,0.062419412099197505
1772794081219358500,0.4853583984375,0.011667641440033912,0.04632686688899994,0.06176935069262981
1772794081229402400,0.49540234375,0.033551556468009947,0.053041269835829734,0.05388721914067864
1772794081239447300,0.505447265625,0.0761304690003395,0.046829555714130396,0.04147891540117562
1772794081249492500,0.515492431640625,0.08109189079999923,0.044268180793523786,0.030974399456381797
1772794081259537400,0.525537353515625,0.10010404978394508,0.031653613892197605,0.038393005149811504
1772794081269582300,0.535582275390625,0.09569207856059074,0.03466682423353195,0.05095759542956948
1772794081279627300,0.545627197265625,0.04449322172105312,0.06906418387591838,0.0754053695961833
1772794081289672400,0.55567236328125,-0.0026093057155609127,0.0332704014390707,0.04157989155761897
1772794081299717400,0.56571728515625,0.019015666115283963,-0.018127192842960358,0.004126870671659707
1772794081309762600,0.575762451171875,0.06321487332582473,-0.02994330284297466,0.06426394398733973
1772794081319807200,0.58580712890625,0.09347381798923016,0.001893266400694847,0.125847343653813
1772794081329853000,0.59585302734375,0.14656126505434514,0.051551908060908314,0.16115078529044985
1772794081339897600,0.605897705078125,0.2093862622797489,0.10655658692419528,0.20947905512973666
1772794081349941800,0.615941650390625,0.19949556738436222,0.0863438199788332,0.2036127934448421
1772794081359986700,0.625986572265625,0.10518646761476994,0.058842065069079394,0.17050532748252153
1772794081370031900,0.636031982421875,-0.02840016505420208,0.033086277043819425,0.12429697240665555
1772794081380076500,0.64607666015625,-0.1384451786160469,0.04123451218605041,0.16720497076287866
1772794081390121700,0.656121826171875,-0.20002806682586668,0.10996902571618557,0.23801497539281843
1772794081400166700,0.666166748046875,-0.30001755031943317,0.18870061712563035,0.2844168072141707
1772794081410211800,0.6762119140625,-0.2825906147003174,0.25281916129291054,0.30391455775797366
1772794081420256800,0.6862568359375,-0.2279693821966648,0.2425660628259182,0.30386582324542105
1772794081430301700,0.6963017578125,-0.1488543444275856,0.16036358043551444,0.2731579657707363
1772794081440346600,0.7063466796875,-0.016003040295839308,0.08293839544951916,0.2458687576331198
1772794081450391800,0.716391845703125,0.08804302511215209,-0.014309680381417274,0.20408318743556736
1772794081460436700,0.726436767578125,0.20055647461414336,-0.05987140811681747,0.19801767685152588
1772794081470480600,0.736480712890625,0.24156945300400257,-0.07207622517347335,0.1624851026341319
1772794081480525800,0.74652587890625,0.1775152062445879,-0.0622884061306715,0.13873707423470913
1772794081490570800,0.75657080078125,0.14773556953072547,-0.04146422928869724,0.0869081758633256
1772794081500616000,0.766615966796875,0.09617956981658934,-0.04265606942176819,0.0682291943565011
1772794081510660600,0.77666064453125,0.08940203850567341,-0.040676878303289414,0.05663410669602453
1772794081520705800,0.786705810546875,0.08259528110027313,-0.023399580287933347,0.04993197870887816
1772794081530750700,0.796750732421875,0.09106617232561111,0.00587502951323986,0.07944288148395717
1772794081540796000,0.8067958984375,0.0806879861742258,0.05815057567358017,0.07088686925843357
1772794081550840800,0.8168408203125,0.08079086202681064,0.08253624438941479,0.07088263147473335
1772794081560885800,0.8268857421875,0.06302315014600754,0.1046522146075964,0.06342939285933971
1772794081570930700,0.8369306640625,0.04652326624393463,0.12730945209562777,0.08910188651531935
1772794081580975900,0.846975830078125,0.00017126491367816925,0.14042963043153286,0.10647058914117515
1772794081591020800,0.857020751953125,-0.05932254206240177,0.11900105795562267,0.1378424634825438
1772794081601064700,0.867064697265625,-0.11424246525168419,0.09687982704043388,0.15370456093773244
1772794081611109600,0.877109619140625,-0.13010346672832965,0.08387889117002487,0.14080971579030155
1772794081621154800,0.88715478515625,-0.1055062010884285,0.09538403552472591,0.15731887897737323
1772794081631199700,0.89719970703125,-0.09108253893852233,0.0951098947584629,0.20932591039463877
1772794081641244700,0.90724462890625,-0.000012859481573104858,0.07844809829294681,0.23713804642781613
1772794081651289600,0.91728955078125,0.10301146166324615,0.05985796411335468,0.23378069882392882
1772794081661334800,0.927334716796875,0.154569799464941,0.054393853488564486,0.23132307653874157
1772794081671379700,0.937379638671875,0.1761556083291769,0.03427168743610382,0.22267507518082855
1772794081681425000,0.9474248046875,0.16035422808527947,0.011132803910970688,0.18812179432436824
1772794081691469600,0.957469482421875,0.13844400957226752,-0.01736672986447811,0.1356382314365357
1772794081701514800,0.9675146484375,0.10855740535259246,-0.025496260306239128,0.10044869850315152
1772794081711559700,0.9775595703125,0.059033788248896595,-0.02541851889491081,0.07415902279689908
1772794081721603600,0.987603515625,-0.017844868770241735,-0.002336918514966965,0.05138838806226849
1772794081731648800,0.997648681640625,-0.09751227972507476,0.015916531056165695,0.025480039823800323
1772794081741693700,1.007693603515625,-0.1261369011849165,0.01016717374920845,0.023441081342101096
1772794081751739000,1.01773876953125,-0.1531155090034008,0.014932196193933486,0.036291722021624444
1772794081761783800,1.02778369140625,-0.2116267346829176,0.035357144585251805,0.0482242980081588
1772794081771828700,1.037828857421875,-0.21192542536854742,0.046372459596395486,0.033116379921138285
1772794081781873700,1.047873779296875,-0.19625673159360885,0.05047288065254688,0.049031595803052185
1772794081791918800,1.0579189453125,-0.1435696820229292,0.05166004461050033,0.05268924152776599
1772794081801963800,1.0679638671875,-0.09046353025734424,0.036550153762102126,0.05148841437064111
1772794081812009000,1.078009033203125,-0.014907646274566649,0.03393675639331341,0.03282221928015351
1772794081822053600,1.0880537109375,0.04233692046999931,0.01182195521891117,0.016092837471142412
1772794081832098800,1.098098876953125,0.09628127662539482,0.005060790520906448,-0.009088000210374593
1772794081842142700,1.108142822265625,0.12938275123834608,0.0103740944981575,0.021695041392371057
1772794081852187600,1.118187744140625,0.1466179636776447,0.04047521825134754,0.06624941871613264
1772794081862232600,1.128232666015625,0.1306371352136135,0.028026071044802665,0.10502323987707494
1772794081872277800,1.13827783203125,0.09802782803177833,0.030812486892938612,0.13872384942695498
1772794081882322700,1.14832275390625,0.0411304672896862,0.06434416961669921,0.13802834144346415
1772794081892368000,1.158367919921875,0.01159457620382309,0.08310381514430046,0.17059578224495053
1772794081902412500,1.16841259765625,-0.02231470766067505,0.08762567648291587,0.21827048354633152
1772794081912457700,1.178457763671875,-0.014889526095986365,0.07529986339509487,0.23010902457386254
1772794081922502700,1.188502685546875,-0.030164836639165877,0.08703238676488399,0.26291100478358564
1772794081932547800,1.1985478515625,-0.049534723019599915,0.09129998108148574,0.28066110794246196
1772794081942592800,1.2085927734375,-0.07989362092614173,0.09143325207233428,0.2888699141655117
1772794081952637700,1.2186376953125,-0.06131634622812271,0.06876315510272979,0.300665565899387
1772794081962682600,1.2286826171875,-0.043137130936980246,0.07387187641859054,0.2958491055283695
1772794081972726800,1.238726806640625,-0.018978256714344024,0.09516951599121093,0.3089870387166738
1772794081982771700,1.248771728515625,-0.016124620848894117,0.09371522552967071,0.3335291401032358
1772794081992816600,1.258816650390625,0.021792729613184927,0.09228957664072512,0.36198300810605283
1772794082002861800,1.26886181640625,0.06066109718978405,0.1030880340307951,0.3553293954357505
1772794082012906800,1.27890673828125,0.0960077203810215,0.11655658741295337,0.3192703861914575
1772794082022952000,1.288951904296875,0.12109481536448001,0.11061433788239955,0.30351335654594
1772794082032996600,1.29899658203125,0.12777706960737706,0.1221364333719015,0.2966333147086203
1772794082043041800,1.309041748046875,0.1352478438794613,0.10375146637558937,0.2599094118148088
1772794082053086700,1.319086669921875,0.11272913807928561,0.09851005859076976,0.2248835450105369
1772794082063132000,1.3291318359375,0.08298924885392188,0.1030395187139511,0.21000972794033584
1772794082073176800,1.3391767578125,0.0260813667178154,0.08135667921602725,0.21275712695233523
1772794082083221800,1.3492216796875,-0.019111527705192564,0.07521276963353156,0.18191965174861252
1772794082093265700,1.359265625,-0.03148760967552662,0.05947627131938934,0.15639350776076316
1772794082103310800,1.369310791015625,-0.04757365207970142,0.028157588469982144,0.1342940502859652
1772794082113355500,1.37935546875,-0.029857378125190733,0.030118659409880635,0.09820165022872387
1772794082123400700,1.389400634765625,0.014939794978499411,0.034621231526136394,0.0653607262481004
1772794082133445600,1.399445556640625,0.011352584141492842,0.03432137179672718,0.05893580776713788
1772794082143490800,1.40949072265625,0.020314473754167554,0.021166706669330595,0.03718077981583774
1772794082153535700,1.41953564453125,0.0034603695869445798,0.03356850760281086,0.01843282472603023
1772794082163580700,1.42958056640625,-0.011824877828359602,0.03877192146480083,0.016111176845431327
1772794082173625600,1.43962548828125,-0.009116203391551971,0.03870937762260437,0.006579305325075983
1772794082183670800,1.4496708984375,-0.010136778610944747,0.02490706224143505,0.04798910101279616
1772794082193715700,1.4597158203125,-0.0051554830670356745,0.03756254567503929,0.07361125272102653
1772794082203761000,1.469760986328125,0.007311784318089484,0.04563946914672851,0.08028722335360944
1772794082213804800,1.4798046875,0.025841712743043897,0.06490589515268802,0.07650894692391157
1772794082223849700,1.489849609375,0.047156887972354886,0.069943304798007,0.09070552231967449
1772794082233895000,1.49989501953125,0.04015490025579929,0.0628501316666603,0.12203056184463203
1772794082243939600,1.509939697265625,0.03534954580068588,0.06813070241808891,0.11286372424438595
1772794082253984800,1.51998486328125,0.032470190972089766,0.043138884502649306,0.12182575998753309
1772794082264029700,1.53002978515625,0.02454232058227062,0.041275428718328476,0.11309461039081216
1772794082274075000,1.540074951171875,0.027242227190732955,0.04489537278115749,0.1353146985705942
1772794082284119800,1.550119873046875,0.05062485634386539,0.0497398902028799,0.16157682868279516
1772794082294164700,1.560164794921875,0.04161620498001575,0.05773147347867488,0.1859188774526119
1772794082304209700,1.570209716796875,0.018858429726958274,0.07257891399860382,0.1790355476796627
1772794082314254800,1.5802548828125,0.017828502157330513,0.08300386190116404,0.18138269532769918
1772794082324300000,1.590300048828125,0.034306174227595326,0.061413376861810684,0.1893617113828659
1772794082334344000,1.600343994140625,-0.020433716219663618,0.05010580090582371,0.17998693012036382
1772794082344388900,1.610388916015625,-0.07164601706266403,0.07743453733623028,0.18784378110058605
1772794082354434000,1.62043408203125,-0.058006783288717265,0.06282850435674191,0.18423545441031455
1772794082364479000,1.63047900390625,-0.03620762393474579,0.06438567067086697,0.1776387595590204
1772794082374524000,1.64052392578125,-0.020396891340613364,0.04595861809849739,0.1672971060257405
1772794082384568800,1.65056884765625,0.028804654201865194,0.039278117421269416,0.1526212957456708
1772794082394614000,1.660614013671875,0.07668518027365208,0.044642859324812885,0.10704422431066632
1772794082404659000,1.670658935546875,0.10510405002832413,0.036541385933756824,0.09571903963275254
1772794082414703900,1.680703857421875,0.15101298376619815,0.01888940938711166,0.07324592653997242
1772794082424748800,1.690748779296875,0.14983108050525187,-0.0018839140504598615,0.03977949107214808
1772794082434794000,1.7007939453125,0.1220446634352207,0.004305588239431381,0.018868147403374315
1772794082444839000,1.7108388671875,0.07148001284599304,0.004060089045763015,-0.011795651733875274
1772794082454884000,1.720884033203125,0.03186111916303634,-0.00036591070294380185,-0.0007461421921849251
1772794082464928000,1.730927978515625,0.020050854381918906,-0.013856091395020484,-0.010771569383144377
1772794082474973000,1.740972900390625,0.00755903707742691,-0.01516074425280094,-0.009535159455984831
1772794082485018000,1.75101806640625,-0.03715747200548648,-0.007738485297560691,-0.004622983625531196
1772794082495063000,1.76106298828125,-0.05424363136291504,0.020772154393792153,-0.032050942646712065
1772794082505108000,1.77110791015625,-0.04766776010394096,0.0419932215988636,0.015559753507748245
1772794082515153000,1.78115283203125,-0.0366080214291811,0.050416766551136964,0.0211856305655092
1772794082525198000,1.791197998046875,-0.015441899281740187,0.04565642028152942,0.06587269435822964
1772794082535243000,1.801242919921875,-0.005050853648781776,0.06579846007823943,0.08411891047097741
1772794082545288000,1.811287841796875,0.025734745237231252,0.06685293756723404,0.08984649433754384
1772794082555332900,1.821332763671875,0.08023147457838058,0.04767828149795532,0.10907697224728763
1772794082565378000,1.8313779296875,0.07788754180073737,0.04954524441361427,0.12508761132769286
1772794082575423000,1.841423095703125,0.04974222829043865,0.06115209557712078,0.130668845526129
1772794082585467000,1.851466796875,0.026571196061372756,0.06007306816875934,0.1312055827513337
1772794082595511800,1.86151171875,-0.007380757901072501,0.030385785913467404,0.1084961766846478
1772794082605557000,1.871556884765625,-0.02776829689145088,0.02382745031118393,0.10901508599221706
1772794082615602000,1.881601806640625,-0.04284370094835758,0.009701894325017928,0.16813925593830645
1772794082625647000,1.891647216796875,-0.09789923321604728,0.028672552254796025,0.18890695335268973
1772794082635691800,1.90169189453125,-0.10792729075551033,0.06366203257143498,0.21537381225675342
1772794082645737000,1.911737060546875,-0.11549275757372379,0.07887421475052833,0.2173220237150788
1772794082655782000,1.921781982421875,-0.08275134844481945,0.06694003132879733,0.20234014316052198
1772794082665827000,1.9318271484375,-0.04562660966515541,0.07161562192440032,0.1709904806509614
1772794082675871700,1.941871826171875,-0.011626140385866164,0.06555296088457108,0.15173939834460615
1772794082685917000,1.9519169921875,0.022731471768021583,0.0627063392817974,0.1408585964333266
1772794082695961900,1.9619619140625,0.03849661165475845,0.06328092429935932,0.17376082214713096
1772794082706006000,1.972006103515625,0.04004734822809696,0.05518763421475887,0.19856193979606032
1772794082716051000,1.982051025390625,0.04121113131046295,0.0667892246812582,0.1846643473468721
1772794082726096000,1.992095947265625,0.036922494205832476,0.06344049877524376,0.15434972697347402
1772794082736141000,2.00214111328125,0.04296118984818458,0.05823708491325378,0.14132738298885522
1772794082746186000,2.01218603515625,0.05864274310469627,0.042725043004751204,0.12806041659340262
1772794082756231200,2.022231201171875,0.08913491200208663,0.05440145227313042,0.13740443739145994
1772794082766275800,2.03227587890625,0.08858136977255344,0.061384735289216036,0.14986812458001075
1772794082776321000,2.042321044921875,0.06849836668670177,0.06803484082818032,0.12115735920667647
1772794082786366000,2.052365966796875,0.0788888277977705,0.06548164921402931,0.11915844047442078
1772794082796411100,2.0624111328125,0.08035130156576634,0.06933890916407108,0.14310959023050962
1772794082806455800,2.072455810546875,0.08503507546782493,0.06694879915714264,0.16350874659344553
1772794082816501000,2.0825009765625,0.06448328582644462,0.06840308961868286,0.17192396210879085
1772794082826545000,2.092544921875,0.0405816012352705,0.08086918796002865,0.19799225014932453
1772794082836590000,2.102590087890625,0.05486965430676937,0.08208382444679736,0.20068733445219694
1772794082846634800,2.112634765625,0.05264321042895317,0.08262976789176464,0.1898127430859953
1772794082856680000,2.122679931640625,0.019213819035887716,0.07724982841908931,0.17485921184308825
1772794082866724900,2.132724853515625,-0.008948445609211922,0.07856266458332538,0.15963373179100454
1772794082876770000,2.14277001953125,-0.014608955588936805,0.058357496422529215,0.1540472368955612
1772794082886815000,2.15281494140625,-0.032635026144981386,0.027697569742798803,0.13736892768666148
1772794082896860000,2.16285986328125,-0.03337327729165554,0.02927987049818039,0.10461838540323078
1772794082906904800,2.17290478515625,-0.03231470814943314,0.04264496350586414,0.12696246528886257
1772794082916950000,2.182949951171875,-0.025593875461816785,0.03228840466439724,0.11186331503018736
1772794082926995000,2.192994873046875,-0.00874853912293911,0.01585749434530735,0.08672302855476736
1772794082937040000,2.203039794921875,0.018182137900590895,0.027872341787815093,0.10228446256294846
1772794082947084000,2.213083984375,0.023573183289170265,0.01751402938067913,0.0682515523187816
1772794082957129000,2.22312890625,0.05159457815885544,0.016854104167222977,0.06863412189558148
1772794082967174100,2.233174072265625,0.06086158819794654,0.018858429726958274,0.04988170982636511
1772794082977218800,2.24321875,0.07098024663031101,0.01354687931537628,0.026246494151651856
1772794082987264000,2.253263916015625,0.0697778851032257,0.011914894199371338,0.023291955194994805
1772794082997309000,2.263308837890625,0.06719137574136257,0.02114215674996376,0.035223435202986
1772794083007354000,2.27335400390625,0.08168108886480331,0.04905658411383629,0.03980360260009765
1772794083017399000,2.28339892578125,0.06026537587046623,0.046565351819992065,0.06382905970141291
1772794083027444000,2.29344384765625,0.01846563101708889,0.06215630418360233,0.07974770964942872
1772794083037489000,2.303489013671875,-0.03046761897802353,0.056576458224654194,0.0752656688645482
1772794083047534000,2.3135341796875,-0.0525374119669199,0.058929743352532385,0.07962496005259453
1772794083057579000,2.3235791015625,-0.05847907697558403,0.05537409669756889,0.09072240038923919
1772794083067623000,2.333622802734375,-0.06048047992587089,0.050040334454178804,0.07187588029578328
1772794083077667800,2.343667724609375,-0.024738135415315627,0.021000702452659607,0.08561382520385086
1772794083087713000,2.353713134765625,0.009258826732635497,0.007204232290387153,0.08455138360410928
1772794083097758000,2.363758056640625,0.0698778383463621,0.028402503141760824,0.08536898359730839
1772794083107803000,2.373802978515625,0.08093757702112198,0.018740356305241585,0.08658741947636008
1772794083117847800,2.383847900390625,0.10896832424104214,0.044774961271882054,0.09979001539871096
1772794083127893000,2.39389306640625,0.11816168452203273,0.03475567156076431,0.08985949994958936
1772794083137938000,2.40393798828125,0.07496084069907664,0.03346037105321884,0.08807926546931266
1772794083147982800,2.41398291015625,0.031926585614681244,0.017044073781371117,0.0674839289471507
1772794083158027800,2.42402783203125,-0.020965046617388725,-0.00827273830473423,0.06752703743651509
1772794083168073000,2.434072998046875,-0.06168810214996338,0.005122749841213226,0.032641309755295514
1772794083178118000,2.444117919921875,-0.06826397340893745,0.009908230552077292,0.04495711290575564
1772794083188163000,2.4541630859375,-0.04595628001093864,0.019018004202842713,0.05652998873442411
1772794083198207000,2.46420703125,-0.033925650477409364,0.03845335703492164,0.06346592547744512
1772794083208252000,2.474251953125,-0.02267185053527355,0.03241115426123142,0.06542538898214698
1772794083218297000,2.484297119140625,-0.017220014870166778,0.017920272094011307,0.08689217457659543
1772794083228342000,2.494342041015625,-0.013134206861257552,0.032980478581786155,0.10516220995634794
1772794083238387000,2.504386962890625,-0.04114975651204586,0.03809562963843345,0.12866539674922822
1772794083248431900,2.514431884765625,-0.023430559948086738,0.04587795407772064,0.13865860217101872
1772794083258477000,2.52447705078125,0.0036433249384164807,0.04709609769582748,0.13114464634433387
1772794083268522000,2.53452197265625,0.03561316517293453,0.03370294763743877,0.12761055393405257
1772794083278567000,2.54456689453125,0.07116846267879008,0.02315466561615467,0.1519496800944209
1772794083288611800,2.55461181640625,0.09177753546535969,0.03314882088601589,0.14526925248242914
1772794083298657000,2.564656982421875,0.08657821325659751,0.027653146079182622,0.1568975117601454
1772794083308702000,2.574701904296875,0.08202244964838028,0.06573825432360172,0.1726357636399567
1772794083318745900,2.584745849609375,0.06734335143268108,0.07453764685094356,0.18077106623537836
1772794083328789800,2.594789794921875,0.07123451365232467,0.08668459624052047,0.19684395689703524
1772794083338834700,2.604834716796875,0.07280980014503002,0.0792763658106327,0.1935804250564426
1772794083348880000,2.6148798828125,0.04809913725852966,0.06736556326448917,0.16974259948171674
1772794083358924500,2.624924560546875,0.0734597884863615,0.06523731906414032,0.16983911865875123
1772794083368969700,2.6349697265625,0.06296878961026668,0.04982230778932571,0.17612411721237003
1772794083379014700,2.6450146484375,0.05836918686032295,0.030556466305255887,0.15103862966410814
1772794083389059800,2.655059814453125,0.05913724862337112,0.03907002762854099,0.14451317341811953
1772794083399104800,2.665104736328125,0.03213058375418186,0.04366320063769817,0.1307519206997007
1772794083409149700,2.675149658203125,-0.0267260943621397,0.05461947893798351,0.1284079148568213
1772794083419194600,2.685194580078125,-0.05442307958304882,0.04106850796937942,0.11681385010965167
1772794083429238800,2.69523876953125,-0.0894365252971649,0.038435821378231046,0.07548471844270825
1772794083439284000,2.705283935546875,-0.102312373483181,0.032150457498431206,0.05139123760648071
1772794083449328600,2.71532861328125,-0.11135668068230152,0.05052081144750118,0.03767228965982795
1772794083459373800,2.725373779296875,-0.10662965216040611,0.04532674993574619,0.06710442811027169
1772794083469418800,2.735418701171875,-0.08862287082672118,0.03131809832751751,0.08791391883976757
1772794083479464000,2.7454638671875,-0.0747276164650917,0.03702127840518951,0.09693725631609558
1772794083489508600,2.755508544921875,-0.02766366747319698,0.02092822173833847,0.1188622340068221
1772794083499553800,2.7655537109375,0.005219195953011513,0.020702596288919448,0.08813311454840005
1772794083509598700,2.7755986328125,0.020810732838511467,0.012702829706668852,0.08142360697239637
1772794083519644000,2.785643798828125,0.06387304497361183,0.02422258710861206,0.06596599866487085
1772794083529688800,2.795688720703125,0.08608955295681953,0.02605564775466919,0.07017506772726774
1772794083539733800,2.805733642578125,0.11676643077135085,0.022940146082639692,0.06784377523548901
1772794083549777700,2.815777587890625,0.1291296532601118,0.026982114949822424,0.07634886099137365
1772794083559822800,2.82582275390625,0.12148936764001846,0.05729308206140995,0.10760339256338775
1772794083569867800,2.83586767578125,0.10017945310771464,0.04277122023403644,0.10771839724518358
1772794083579912700,2.84591259765625,0.0981903251171112,0.04965864166021347,0.11916311664953827
1772794083589957600,2.85595751953125,0.060414428952336306,0.07324526895284653,0.13316234284229575
1772794083600002800,2.8660029296875,0.023159341791272162,0.07226034956872462,0.1318197691269219
1772794083610047700,2.8760478515625,0.011942366728186606,0.06524608689248561,0.1110115935716778
1772794083620092700,2.8860927734375,0.028594226321578025,0.04488017521202564,0.07118234507367015
1772794083630137600,2.8961376953125,0.01545709685087204,0.03374678677916527,0.0784351657461375
1772794083640182800,2.906182861328125,0.002633271113038063,0.028800562548637387,0.07597257502488791
1772794083650227700,2.916227783203125,0.0041810850769281385,0.018863690423965452,0.08164017233252525
1772794083660273000,2.92627294921875,0.003231821528077125,0.021674071669578552,0.0924109379980713
1772794083670317600,2.936317626953125,-0.009363456150889396,0.03118248924911022,0.08885646038688719
1772794083680361700,2.94636181640625,-0.025280571728944778,0.033625790748000144,0.09961984646357595
1772794083690407000,2.956406982421875,-0.056360769647359844,0.047670682713389395,0.1162827389076352
1772794083700451800,2.966451904296875,-0.03952653922438621,0.036793314868211746,0.09664901395924388
1772794083710496800,2.976496826171875,-0.02093640504479408,0.045015784290432924,0.08783866164647042
1772794083720541700,2.986541748046875,0.011075520765781402,0.04927928695380687,0.11978848200626671
1772794083730587000,2.9965869140625,0.02172083342075348,0.04978840551972389,0.11778773664310574
1772794083740631800,3.0066318359375,0.011591653594374656,0.05519289491176605,0.1309619832538068
1772794083750676700,3.0166767578125,0.03372165233790874,0.04784720832407474,0.14225078144408762
1772794083760721700,3.0267216796875,0.033819267493486405,0.0478361024081707,0.1393639008961618
1772794083770766800,3.036766845703125,0.011909048980474471,0.05282967291176319,0.1375743140656501
1772794083780811800,3.046811767578125,0.008212532550096512,0.06137421389520168,0.15803455296605826
1772794083790855700,3.056855712890625,0.03277589592039585,0.05407002836167812,0.12794270849786699
1772794083800900600,3.066900634765625,0.05575929662287235,0.04576514135301113,0.12059665658399461
1772794083810945800,3.07694580078125,0.031140403673052788,0.06263561213314534,0.1230342589944601
1772794083820990700,3.08699072265625,0.040512043130397794,0.07526420755982399,0.15320435633063315
1772794083831036000,3.097035888671875,0.03291793473958969,0.05572597887516021,0.16048457646667957
1772794083841080600,3.10708056640625,0.019675006806850432,0.04516775998175144,0.15471366491504013
1772794083851125800,3.117125732421875,-0.006259644916653633,0.044967853495478625,0.12140914201065897
1772794083861170700,3.127170654296875,-0.017702829951047896,0.05480535689890385,0.10864574122317135
1772794083871215900,3.1372158203125,-0.017682371684908865,0.0322942498832941,0.12427658720575273
1772794083881260500,3.147260498046875,-0.00978372738957405,0.015388123267889022,0.12300006446391343
1772794083891305700,3.1573056640625,-0.009520692539215087,0.033034839117527005,0.13866948889121414
1772794083901350700,3.1673505859375,0.001218143618106842,0.041408699709177016,0.1206728636253625
1772794083911395800,3.177395751953125,0.040541269224882125,0.02532441087067127,0.1093941484376788
1772794083921439700,3.187439697265625,0.025319734695553778,0.028097382715344427,0.1072149047024548
1772794083931484700,3.197484619140625,0.002661328163743019,0.02859013466835022,0.09191314454376696
1772794083941529900,3.20752978515625,0.007864157503843307,0.03372515946924686,0.08212474097907543
1772794083951574800,3.21757470703125,0.017858897295594214,0.025949849292635916,0.08133753612414002
1772794083961620000,3.227619873046875,0.031443186011910436,0.025243162328004835,0.06723492262214421
1772794083971664600,3.23766455078125,0.028416531667113304,0.0387777666836977,0.05148600321784615
1772794083981709800,3.247709716796875,0.030193478211760518,0.0480102899312973,0.04146320637539029
1772794083991754800,3.257754638671875,0.029248890838026998,0.030565818655490875,0.05283332617357373
1772794084001800000,3.267800048828125,0.019600772526860235,0.015600304713845253,0.049284474585577845
1772794084011844600,3.2778447265625,-0.009459317740797996,0.04188274696171283,0.0594192804351449
1772794084021889800,3.287889892578125,-0.02637713479399681,0.052550271448493,0.038733050759136675
1772794084031934700,3.297934814453125,-0.001827215427160263,0.03368833459019661,0.03405556046739221
1772794084041979000,3.307978759765625,0.01399345403909683,0.031098902618885038,0.03838898656181991
1772794084052023600,3.3180234375,0.0550993714094162,0.03458148403763771,0.053735608775541184
1772794084062068700,3.32806884765625,0.08031096955537796,0.04317220225036144,0.05526654466986656
1772794084072113700,3.33811376953125,0.09740238960981368,0.04519230990111828,0.07057151969894766
1772794084082158800,3.348158935546875,0.10127718521654605,0.013256956458091735,0.07411993289552629
1772794084092203800,3.358203857421875,0.10702361991405486,0.01191781680881977,0.06640205199457705
1772794084102248700,3.368248779296875,0.06811199771761894,0.029645196679234504,0.06934000514261424
1772794084112293600,3.378293701171875,0.037570728981494904,0.018741525349020956,0.08515950556509196
1772794084122338800,3.3883388671875,0.004459902018308639,0.028074001839756963,0.08169358302019536
1772794084132383700,3.3983837890625,-0.01776420474946499,0.03213409088551998,0.05539616239890456
1772794084142428700,3.4084287109375,-0.00234451729953289,0.04568564637601375,0.07130209899581968
1772794084152472800,3.418472900390625,0.003112579062581062,0.0340285263299942,0.09769793849028646
1772794084162517800,3.428517822265625,-0.0015904840618371963,0.032892800298333164,0.08327968316785991
1772794084172563000,3.43856298828125,0.0009054244071245193,0.03903729440271854,0.0518771944925189
1772794084182607600,3.448607666015625,-0.020554712250828742,0.03591127133667469,0.05337313213869929
1772794084192652800,3.45865283203125,-0.07422258955240249,0.021954057654738426,0.04981295543909073
1772794084202697700,3.46869775390625,-0.0701788671195507,0.04014613242745399,0.051344548920542
1772794084212743000,3.478742919921875,-0.06624795741140842,0.048802317091822624,0.066894511686638
1772794084222787800,3.488787841796875,-0.04224456601142883,0.0512695839881897,0.10638934059850871
1772794084232832800,3.498832763671875,-0.008008534410595894,0.045078328132629394,0.08976341916397214
1772794084242877700,3.508877685546875,0.03329261327087879,0.04112696015834808,0.11381824849024415
1772794084252923000,3.5189228515625,0.04707037873268127,0.026774025157094,0.09940021236352622
1772794084262967800,3.5289677734375,0.07399696410298347,0.029946225452423095,0.08885996751822531
1772794084273011700,3.53901171875,0.06080664314031601,0.02247662022411823,0.06832045283652842
1772794084283056600,3.549056640625,0.06864449715912342,0.013358078745007515,0.06552987226992846
1772794084293101800,3.559101806640625,0.06390811628699303,0.009723521634936332,0.07978475372418761
1772794084303146800,3.569146728515625,0.04348959763646126,0.025402152281999588,0.10408544757030903
1772794084313191700,3.579191650390625,0.031790976536273954,0.037384266498684884,0.11656469765417277
1772794084323236600,3.589236572265625,0.05991232464909553,0.05647942759096622,0.10315532711334525
1772794084333282600,3.599282470703125,0.0609071809053421,0.05686988821327686,0.10950966457612812
1772794084343327200,3.6093271484375,0.06359890420734882,0.08403788112401962,0.09992971613034606
1772794084353372400,3.619372314453125,0.055042672786116596,0.06772212161719798,0.07140621695742011
1772794084363417300,3.629417236328125,0.06901274594962596,0.04048047894835472,0.06424867335297167
1772794084373462500,3.639462646484375,0.06480535738766192,0.043830373898148534,0.07070084516704082
1772794084383507500,3.649507568359375,0.030351883643865582,0.04633505019545555,0.05985080372020602
1772794084393551400,3.65955126953125,0.026142156994342802,0.03739478789269924,0.07971431883648038
1772794084403596300,3.66959619140625,0.01742693561911583,0.012439210334420204,0.06283478796705604
1772794084413641500,3.679641357421875,0.023751462465524672,0.029227263528108595,0.05384023819379508
1772794084423686100,3.68968603515625,0.0019125556230545043,0.018644494715332985,0.04108706653937697
1772794084433731300,3.6997314453125,-0.01854571051597595,0.0224082311630249,0.03037204964905977
1772794084443776300,3.7097763671875,-0.01441664788722992,0.016856442254781723,0.02497713180296123
1772794084453821400,3.719821533203125,-0.024912907460331916,0.01766951220333576,0.046983431101590395
1772794084463866400,3.729866455078125,-0.03440612747073173,0.024642858347296712,0.052495472521334886
1772794084473911300,3.739911376953125,0.010005261185765266,0.04351707016527653,0.04861212828196585
1772794084483956200,3.749956298828125,0.05281564438641071,0.036652445092797276,0.051017362792789935
1772794084494001400,3.76000146484375,0.08138999696373939,0.031056232520937917,0.03448869118764996
1772794084504046300,3.77004638671875,0.11992869419455528,0.037703999972343444,0.06403181573189795
1772794084514090200,3.78009033203125,0.16148820055127142,0.04639642499387264,0.07518719680085778
1772794084524135400,3.790135498046875,0.16722995907366275,0.0397755455493927,0.0688758947622031
1772794084534180400,3.800180419921875,0.14640461318790912,0.022722703939676285,0.07215615854188799
1772794084544225500,3.8102255859375,0.0888747997611761,-0.003621697628498077,0.06026325697861611
1772794084554270200,3.820270263671875,-0.005044423907995223,0.003261632144451141,0.06055646777153015
1772794084564315400,3.8303154296875,-0.07932663469314574,-0.002862403693795204,0.04579889749214053
1772794084574360300,3.8403603515625,-0.12377601727247238,-0.01240706163048744,0.06014036125130951
1772794084584405500,3.850405517578125,-0.14968319646716116,-0.008946107521653176,0.05614939191900194
1772794084594450400,3.860450439453125,-0.154305011048913,0.0077495912134647365,0.0464967435631901
1772794084604495400,3.870495361328125,-0.13163257599174977,0.02408873159587383,0.05381101209931075
1772794084614540300,3.880540283203125,-0.08800912284255027,0.06005202538073062,0.06339475993737578
1772794084624585500,3.89058544921875,-0.03710544955730438,0.05082534735202789,0.0634130993116647
1772794084634629400,3.90062939453125,0.013380290576815605,0.03472527642250061,0.07149396830610931
1772794084644674300,3.91067431640625,0.02951367925405502,0.04539396995306015,0.08952091564498842
1772794084654719200,3.92071923828125,0.043811084675788876,0.03098375180661678,0.09015497576482594
1772794084664764400,3.930764404296875,0.05365209521055221,0.04835106619298458,0.08922280948124825
1772794084674809300,3.940809326171875,0.0461935958981514,0.030161914029717445,0.10197904987558722
1772794084684854300,3.950854248046875,0.07200608254671097,0.05252455248534679,0.10530490636266768
1772794084694899200,3.960899169921875,0.10344985308051109,0.063604164904356,0.09641454761624335
1772794084704944400,3.9709443359375,0.09805413151681423,0.06588906097114086,0.09437339717745781
1772794084714989300,3.9809892578125,0.09788695825636386,0.05143675724864006,0.08203377475999295
1772794084725032400,3.991032470703125,0.09694821610152721,0.05290273814797401,0.07448109435811638
1772794084735077400,4.001077392578125,0.10052841267585753,0.03591711655557155,0.057623263863846655
1772794084745122600,4.01112255859375,0.08132745312154292,0.028647417813539505,0.06881013604961335
1772794084755167500,4.02116748046875,0.05008943429291248,0.027937223717570302,0.053689796872436996
1772794084765212400,4.03121240234375,0.02873860322833061,0.029611294409632682,0.04671002098768949
1772794084775256300,4.04125634765625,0.015703765088319777,0.017559622088074683,0.02921893409118056
1772794084785301500,4.051301513671875,0.018467969104647635,0.03425765891075134,0.0497999498270452
1772794084795346200,4.06134619140625,-0.01352992818057537,0.04282265816032886,0.07620821041166782
1772794084805391400,4.071391357421875,-0.03255494664609432,0.05021627554297447,0.07138108251616358
1772794084815436300,4.081436279296875,-0.03933189343512058,0.04817278701663017,0.057922246810421345
1772794084825481500,4.0914814453125,-0.040166006171703336,0.045128597015142435,0.07622465008981526
1772794084835526400,4.1015263671875,-0.041838907819986344,0.03704699736833572,0.09245660377070307
1772794084845571300,4.1115712890625,-0.021226912423968312,0.044785482665896416,0.10247801237367093
1772794084855616300,4.1216162109375,0.00756254420876503,0.03891629837155342,0.14794059058353304
1772794084865661400,4.131661376953125,0.05869768816232681,0.031015315988659857,0.13141864098012446
1772794084875706400,4.141706298828125,0.08172668157219887,0.04634323350191116,0.135567285092175
1772794084885751600,4.15175146484375,0.10274491968154907,0.03691489542126655,0.1403401255171746
1772794084895795500,4.16179541015625,0.10433657278716564,0.033927988564968106,0.12363514749705791
1772794084905840400,4.17184033203125,0.05578209297657013,0.016849427992105485,0.12817388690523804
1772794084915885600,4.181885498046875,0.024714754539728163,0.0375491016715765,0.13797500382103026
1772794084925930200,4.19193017578125,0.00014963760375976562,0.040562896534800524,0.10628288454934955
1772794084935975400,4.201975341796875,-0.024524784925580023,0.046860535374283786,0.0967638725105673
1772794084946020400,4.212020263671875,-0.04878302786946297,0.03842529998421669,0.10125124705769122
1772794084956065500,4.2220654296875,-0.0472130020737648,0.03853109844624996,0.09414850238040089
1772794084966110500,4.2321103515625,-0.05578560010790824,0.030990181547403333,0.09084595370367168
1772794084976155400,4.2421552734375,-0.03207505417466163,0.018969488885998725,0.0640031741593033
1772794084986200300,4.252200439453125,-0.014806523987650871,0.014136077380180358,0.034365649329870934
1772794084996245500,4.26224560546875,0.020551789641380307,0.0163344642072916,0.023120690281316636
1772794085006289400,4.272289306640625,0.018414777612686156,0.0035509704798460003,0.015600596974790095
1772794085016334300,4.282334228515625,0.02703764452934265,0.0001999064862728119,0.0030482816547155378
1772794085026379300,4.292379150390625,0.028099136281013487,-0.009635843351483344,-0.002022153477370739
1772794085036424400,4.302424560546875,0.015748773273825643,0.000803133076429367,-0.014365721417590975
1772794085046469400,4.312469482421875,-0.01174479832947254,0.011468903997540473,-0.008788944198563695
1772794085056514300,4.322514404296875,-0.007294833183288574,0.009421323817968367,-0.03741663439832628
1772794085066559200,4.332559326171875,0.0033522330373525616,0.01047521678507328,-0.03345445276908576
1772794085076604400,4.3426044921875,0.036112931388616556,0.013884732967615127,-0.014635332139208913
1772794085086649300,4.3526494140625,0.05114098917245864,0.023549217891693112,0.01710924797207117
1772794085096694500,4.362694580078125,0.053342298609018325,0.02924363014101982,0.036118630477041
1772794085106739200,4.3727392578125,0.0824222626209259,0.035491000097990034,0.006279080269485712
1772794085116784400,4.382784423828125,0.07986147222220898,0.0328261648029089,0.011535831753909587
1772794085126829300,4.392829345703125,0.06768003604114055,0.010856325057148933,-0.01888232205919921
1772794085136873500,4.40287353515625,0.0739957950592041,0.006766425395011901,0.0012258154679089784
1772794085146918400,4.41291845703125,0.06107844581902027,0.01737199056148529,0.010120631193742156
1772794085156963300,4.42296337890625,0.08542553609013558,0.03182254071831703,0.033678324652835726
1772794085167008500,4.433008544921875,0.1134878474920988,0.031239772394299505,0.038460955819487566
1772794085177053400,4.443053466796875,0.09501111055910587,0.03310439722239971,0.011459259386360644
1772794085187098400,4.453098388671875,0.07385960145890712,0.014258242455124854,0.020210574988275765
1772794085197143300,4.463143310546875,0.042938393494486804,0.023052958807349203,0.02191628292761743
1772794085207188500,4.4731884765625,0.006170213067531585,0.00932020153105259,0.010543898107111453
1772794085217233400,4.4832333984375,-0.024402035328745842,0.031660628154873846,0.02202821886949241
1772794085227278600,4.493278564453125,-0.042616906455159184,0.02696224120557308,0.05721007995307445
1772794085237323300,4.5033232421875,-0.05724632031023502,0.02652911048531532,0.08328362869061529
1772794085247367400,4.513367431640625,-0.009338906231522559,0.01725216357409954,0.07983655697666109
1772794085257412400,4.523412353515625,0.02502981183826923,0.013254033848643302,0.08542780111245811
1772794085267457500,4.53345751953125,0.06662965020537376,-0.007919687083363533,0.07858085782714187
1772794085277502200,4.543502197265625,0.11786942357718944,0.001325111123919487,0.06991838955245912
1772794085287547400,4.55354736328125,0.08444295479357242,0.03012976532578468,0.09729220723360776
1772794085297592300,4.56359228515625,0.05162029712200165,0.06484393583238124,0.1022428884435445
1772794085307637500,4.573637451171875,0.011541969233751297,0.04778349543809891,0.11321553335674106
1772794085317682200,4.58368212890625,-0.02806932566463947,0.03518880228102207,0.10908121003098785
1772794085327727400,4.593727294921875,-0.06330372065305709,0.05022445884943008,0.12621559244431554
1772794085337772800,4.603772705078125,-0.08102934695780277,0.04609188908934593,0.10694456332847475
1772794085347818000,4.61381787109375,-0.09821312147080898,0.0629419016033411,0.12283807883523404
1772794085357862700,4.623862548828125,-0.10109130725562572,0.06417115113735199,0.1210961305387318
1772794085367906800,4.63390673828125,-0.06937924117445946,0.05204582905769348,0.08770451387278735
1772794085377951700,4.64395166015625,-0.062218263503909105,0.04617255311012268,0.07417042097374796
1772794085387997000,4.653996826171875,-0.055501522469520566,0.03199439015388489,0.09096877636574208
1772794085398041600,4.66404150390625,-0.021415128472447396,0.028000352081656455,0.10469393485747278
1772794085408086800,4.674086669921875,-0.017679449075460433,0.03744914842844009,0.10879333300031721
1772794085418131700,4.684131591796875,-0.017184943556785584,0.046048049947619435,0.0975496160607785
1772794085428177000,4.694177001953125,0.011668225961923599,0.04269347882270813,0.08241320253163575
1772794085438221800,4.704221923828125,0.031122868016362187,0.03399111692905426,0.06948635481074451
1772794085448266800,4.714266845703125,0.042915597140789026,0.044161213287711144,0.07452486043460667
1772794085458311700,4.724311767578125,0.07749649665653705,0.04782207388281822,0.07225180093608796
1772794085468356900,4.73435693359375,0.11976444354355334,0.02269055523574352,0.0776561441976577
1772794085478401800,4.74440185546875,0.13816986880600451,0.027128829944133757,0.10306618752516805
1772794085488445700,4.75444580078125,0.16251988168656825,0.036442601734399796,0.09960903280861676
1772794085498491000,4.764490966796875,0.15216215380132198,0.02773965531885624,0.0820340670209378
1772794085508535800,4.774535888671875,0.10444178672730922,0.028434651845693586,0.06861928965263069
1772794085518581000,4.7845810546875,0.07415887666642665,0.034571547165513035,0.059597194285318254
1772794085528625700,4.794625732421875,0.04900748427510261,0.06029226387739181,0.08641790812835097
1772794085538670800,4.8046708984375,0.0333095644056797,0.06747019268274307,0.0950694166176021
1772794085548715800,4.8147158203125,-0.0002583586752414703,0.041074937710165974,0.11223134462498127
1772794085558761000,4.824760986328125,-0.02362695930302143,0.049635260784626004,0.1173385315708816
1772794085568806000,4.834805908203125,-0.05223872128129005,0.0234627086520195,0.09688662210740148
1772794085578850800,4.844850830078125,-0.078209028840065,0.013919219759106635,0.07176964344233273
1772794085588895700,4.854895751953125,-0.08502396955192089,0.01191957037448883,0.05201536085419357
1772794085598941000,4.86494091796875,-0.0893196209192276,0.037309447696805,0.06134403795264661
1772794085608984800,4.87498486328125,-0.09542553657889366,0.03291793473958969,0.044171223225072026
1772794085619029800,4.88502978515625,-0.0713859048217535,0.0009106851041316985,0.044853214139863845
1772794085629074700,4.89507470703125,-0.013732757276296614,-0.022619243565201758,0.0443688646890223
1772794085639120000,4.905119873046875,0.05583411542475223,-0.014003390911221504,0.0414491047848016
1772794085649164800,4.915164794921875,0.09994155269861221,0.003415361401438713,0.009964271588250993
1772794085659209700,4.925209716796875,0.13249416125714777,0.01670095943212509,-0.03175232502631843
1772794085669254700,4.935254638671875,0.14903145456016062,-0.0010457096606492995,-0.0677749477829784
1772794085679299800,4.9452998046875,0.11176409243941307,-0.011225742891430855,-0.09622092474028468
1772794085689344800,4.9553447265625,0.02401215922832489,-0.00888181011378765,-0.08374445113539696
1772794085699390000,4.965389892578125,-0.03126256874799728,0.0322942498832941,-0.05913293777443468
1772794085709434600,4.9754345703125,-0.06712649381160736,0.0707370855242014,0.0034430531259626146
1772794085719479800,4.985479736328125,-0.061548401418328284,0.09484510634243488,0.05077105988152325
1772794085729524000,4.99552392578125,-0.011759995898604393,0.09702771107852458,0.07514730318188667
1772794085739568600,5.005568603515625,0.08505202660262584,0.07632569931149483,0.08394304244741797
1772794085749613800,5.01561376953125,0.1583569167882204,0.028311317726969716,0.07189042027778923
1772794085759658800,5.02565869140625,0.17368717238903045,-0.002563128486275673,0.08576382813379169
1772794085769704000,5.035703857421875,0.1687269196331501,-0.03191314161121845,0.1002115287464112
1772794085779748900,5.045748779296875,0.12601356706619263,-0.03902326587736606,0.12965791491791606
1772794085789793800,5.055793701171875,0.06646013885736465,-0.014440028762817383,0.16429485546983777
1772794085799838700,5.065838623046875,0.017386603608727454,-0.012047580668330192,0.16192198885865508
1772794085809884000,5.0758837890625,-0.04965981070399284,-0.0065390463799238204,0.14099851636067032
1772794085819928800,5.0859287109375,-0.09520809443593024,-0.011812018346786498,0.12587627748735247
1772794085829974000,5.09597412109375,-0.1070744733184576,0.01242109015583992,0.10002871952541172
1772794085840018700,5.106018798828125,-0.10752163256406784,0.021940029129385946,0.09097732499837875
1772794085850062800,5.116062744140625,-0.09438041144013404,0.04729834226965904,0.0861339035551995
1772794085860107800,5.126107666015625,-0.0382025971442461,0.038735681107640266,0.09596841128394007
1772794085870152700,5.136152587890625,0.00006195932030677795,0.052392450538277624,0.10141710514388978
1772794085880198000,5.146197998046875,0.0074812956660985945,0.054175826823711394,0.08656988381966949
1772794085890242800,5.156242919921875,0.01297229429781437,0.03832183960974216,0.056694020189717406
1772794085900287700,5.166287841796875,0.02687982361912727,0.01866904463469982,0.011561331521347164
1772794085910333000,5.1763330078125,0.03537526476383209,0.024320202264189718,-0.0065900459147989745
1772794085920377900,5.1863779296875,0.043619946017861365,0.03571779459118843,-0.024807182063534855
1772794085930422800,5.1964228515625,0.06255319454669953,0.034708909809589385,-0.02406293956749141
1772794085940467700,5.2064677734375,0.0799339529365301,0.027736732709407803,-0.00857289029508829
1772794085950513000,5.216512939453125,0.049369887846708295,0.030859833166003225,0.008014891086146236
1772794085960556800,5.226556884765625,0.015209844091534613,0.029714754784107206,0.036306115873157976
1772794085970601700,5.236601806640625,-0.004254734835028648,0.03492693647444248,0.05429864948578179
1772794085980647000,5.24664697265625,-0.04138941048681736,0.024251813203096387,0.06384491485767066
1772794085990691800,5.25669189453125,-0.054952071893215174,0.02544599142372608,0.06704414929039776
1772794086000736800,5.26673681640625,-0.049533553975820536,0.017570728003978728,0.06298873641975224
1772794086010781700,5.27678173828125,-0.048073418295383454,0.03482113801240921,0.08207761390171944
1772794086020827000,5.286826904296875,-0.02543371646404266,0.03461597082912922,0.11148374112807213
1772794086030871800,5.296871826171875,0.0005529577076435089,0.01484276434481144,0.11399521249234676
1772794086040917000,5.3069169921875,0.009417816686630248,0.020989012014865874,0.1000394601151347
1772794086050961700,5.316961669921875,0.02741758375763893,0.006077858608961105,0.08150638988502323
1772794086061006800,5.3270068359375,0.04522212051749229,-0.0011485855132341385,0.061014221476390955
1772794086071051800,5.3370517578125,0.04438742325901985,-0.00034311434924602505,0.03767455468215048
1772794086081096000,5.347095947265625,0.02978957358598709,0.020817747101187705,0.0642325990010053
1772794086091140900,5.357140869140625,0.05235913279056549,0.02215045700967312,0.04524725495874882
1772794086101185800,5.367185791015625,0.0539706596404314,0.013989362385869026,0.06931961994171142
1772794086111231000,5.37723095703125,0.04803776246011257,0.014427169281244278,0.0426291814148426
1772794086121276000,5.38727587890625,0.038975335082411765,0.032843700459599494,0.018402502653002736
1772794086131320800,5.39732080078125,0.054364042872190474,0.046102995005249975,0.011537585319578648
1772794086141365800,5.40736572265625,0.06529577125310898,0.04307984779179096,0.030841055400297045
1772794086151411000,5.417410888671875,0.06741349405944347,0.038490766435861586,0.015058160661160945
1772794086161455900,5.427455810546875,0.061682841452956196,0.0407774160683155,0.019210896426439285
1772794086171500800,5.437500732421875,0.06733984430134296,0.025911855369806287,0.01642133877314627
1772794086181545700,5.447545654296875,0.03579612052440643,0.026831892824172972,0.03680186350084841
1772794086191591000,5.4575908203125,0.02182487831711769,0.010959785431623459,0.05074008022136986
1772794086201634800,5.467634765625,0.02463818217217922,0.0044172319203615185,0.027978724771738052
1772794086211680000,5.477679931640625,0.008268062129616737,0.0009019172757863998,0.047943946696817875
1772794086221724700,5.487724609375,0.012178513571619986,0.01922024877667427,0.07240034256130456
1772794086231769900,5.497769775390625,-0.0032698154509067535,0.020997779843211172,0.10659326567277312
1772794086241814800,5.507814697265625,-0.016888590958714485,0.022307108876109122,0.11107939811088144
1772794086251860000,5.51785986328125,-0.013420038065314293,0.023535189366340636,0.06417158952876925
1772794086261904600,5.527904541015625,-0.005266542226076126,0.046966918358206745,0.0407490667566657
1772794086271949800,5.53794970703125,0.02766074486374855,0.04582067093253135,0.05094656257890164
1772794086281994800,5.547994873046875,0.04114508033692837,0.03348199836313724,0.08431377545595169
1772794086292040000,5.5580400390625,0.054713002440333364,0.03641454468369484,0.10620653137750923
1772794086302084900,5.5680849609375,0.041027591437101364,0.0479798947930336,0.1234858752194792
1772794086312128800,5.578128662109375,0.03932137204110622,0.05329495233595371,0.13620083375535905
1772794086322174000,5.588174072265625,0.029162381598353385,0.0725315677255392,0.1433719674937427
1772794086332218600,5.598218505859375,-0.00850713158249855,0.07448971605598927,0.12270670754052698
1772794086342263800,5.608263916015625,-0.04595686453282833,0.06843056214749813,0.08572875682041048
1772794086352308700,5.618308837890625,-0.07096797167062759,0.04422024999856949,0.06792422006055712
1772794086362354000,5.62835400390625,-0.07696516625881195,0.023970658174157142,0.009104074562340974
1772794086372398600,5.638398681640625,0.0025520225703716277,0.020675708281993863,-0.011542772951349615
1772794086382443800,5.64844384765625,0.03409633086919785,0.02356149285137653,0.028335940711572763
1772794086392488700,5.65848876953125,0.05138999549746513,0.0035270050823688506,0.03811046188138425
1772794086402534000,5.668533935546875,0.04057107984125614,0.01438566822707653,0.04280870270021259
1772794086412578800,5.678578857421875,-0.0003086275577545166,-0.004625321713089943,0.08148352046608924
1772794086422623700,5.688623779296875,-0.015514379996061324,-0.01414426068663597,0.10059775158502161
1772794086432667600,5.698667724609375,-0.07808335663378238,0.012004326048493384,0.06914981633275746
1772794086442712800,5.708712890625,-0.0969441244482994,0.049832244661450385,0.05778181542642414
1772794086452757500,5.718757568359375,-0.1497340498715639,0.03168050189912319,0.06609868513382972
1772794086462802700,5.728802734375,-0.15453180554211138,0.022377251502871513,0.0673974927727133
1772794086472847600,5.73884765625,-0.11164192736446857,0.024638766694068906,0.029316256985813378
1772794086482892800,5.748892822265625,-0.04808393968939781,0.033356326156854625,0.002098871975392103
1772794086492937700,5.758937744140625,-0.015245499926805496,0.030840543943643568,0.026459479315206407
1772794086502982700,5.768982666015625,0.03567629353702068,0.028232407271862027,0.06513919245190918
1772794086513027600,5.779027587890625,0.019926351219415665,0.06097381640076637,0.051678091723844403
1772794086523072800,5.78907275390625,0.05403904870152473,0.05825637413561344,0.04412760327905416
1772794086533117700,5.79911767578125,0.08457330317497253,0.07463117035329342,0.06435922105535864
1772794086543161600,5.80916162109375,0.08997486995756626,0.08011340115666389,0.08697283859737216
1772794086553206800,5.819206787109375,0.06199322257637977,0.07141279282867909,0.12861965791136026
1772794086563251700,5.829251708984375,0.043049452653527255,0.05340250436365604,0.10804675241671502
1772794086573297000,5.839296875,-0.03353752794265747,0.03982873704135418,0.08269158108159899
1772794086583341600,5.849341552734375,-0.08228957615196704,0.04949672909677028,0.07732369737289846
1772794086593386800,5.85938671875,-0.023271569994091985,0.05942015721797943,0.0799791803177446
1772794086603431700,5.869431640625,-0.017449147450923918,0.001983867293596268,0.08704977629110217
1772794086613476900,5.879476806640625,-0.0160556472659111,-0.00997018987238407,0.07283931850045919
1772794086623521800,5.889521728515625,0.017490648505091667,0.02451484805345535,0.029585137055069207
1772794086633566700,5.899566650390625,0.04495791662335395,0.019888357296586036,0.016435878755152223
1772794086643611600,5.909611572265625,0.06622048488259315,0.011390578064322471,0.005147884282469749
1772794086653656800,5.91965673828125,0.061412792339920995,0.028732758009433746,0.018866759163886308
1772794086663700700,5.92970068359375,0.056578211790323255,0.07178688683807849,0.032793504642322654
1772794086673745700,5.93974560546875,0.049186932495236396,0.05650923820734024,0.04625920848026872
1772794086683790600,5.94979052734375,0.029001638078689572,0.03718786714375019,0.08677081321924925
1772794086693835800,5.959835693359375,0.05116086291670799,0.004364624950289726,0.06482223545722662
1772794086703880700,5.969880615234375,0.06028992578983307,0.008897592204809188,0.02473112115263939
1772794086713925600,5.979925537109375,0.06136076989173889,0.01144727668762207,-0.015944222780689597
1772794086723970600,5.989970458984375,0.10572948845028876,0.0009475099831819534,-0.02772219272740185
1772794086734015700,6.000015625,0.13170447218418121,0.0019698387682437896,0.014641834945231675
1772794086744060700,6.010060791015625,0.16406301947534083,0.033734511819481845,0.0583715249478817
1772794086754105900,6.02010595703125,0.1768254704147577,0.049876083803176874,0.10446487534195184
1772794086764150500,6.030150634765625,0.16520342168211935,0.023085107511281965,0.10395115366615354
1772794086774195700,6.04019580078125,0.11417699880003929,0.006193009421229362,0.06289170578606426
1772794086784239900,6.050239990234375,0.0803004481613636,0.020610241830348968,0.048196314022690055
1772794086794284800,6.060284912109375,0.01861468409895897,0.041032267612218856,0.06559102787263692
1772794086804329700,6.070329833984375,-0.020152561190724373,0.034466917747259136,0.08091295403651892
1772794086814374700,6.080374755859375,-0.05340601149499416,0.03563479248285294,0.10300042881257832
1772794086824419800,6.090419921875,-0.04459902018308639,0.03725450263917446,0.08650076410621405
1772794086834464800,6.10046484375,-0.025306290692090987,0.04898527244329452,0.08404511458240449
1772794086844509700,6.110509765625,-0.025637130081653595,0.067155135384202,0.08236439495384693
1772794086854554600,6.1205546875,-0.02574702019691467,0.07717325605154036,0.08238543774187565
1772794086864599800,6.130599853515625,-0.04214285920262337,0.07184650807082653,0.05421119039803743
1772794086874644700,6.140644775390625,-0.08096855668127537,0.06560264524519444,0.04856025196425617
1772794086884690000,6.15068994140625,-0.0862350989073515,0.03277238878905773,0.05992321136929094
1772794086894733600,6.160733642578125,-0.06817863321304321,0.023566753548383713,0.05187105701267719
1772794086904778800,6.17077880859375,-0.027028292179107665,0.022416998991370198,0.09047668199986218
1772794086914823700,6.18082373046875,-0.0023427637338638303,0.021444354566931723,0.10448452989049255
1772794086924868900,6.190868896484375,0.027220015358924866,0.021183657804131506,0.11176197354756295
1772794086934913500,6.20091357421875,0.0849538269251585,0.0325122765481472,0.0878006677236408
1772794086944958700,6.210958740234375,0.1137321776419878,0.02056874077618122,0.08407616730779409
1772794086955003600,6.221003662109375,0.1288859076321125,-0.00865443109869957,0.08831329342089593
1772794086965048800,6.231048828125,0.1262719257414341,0.011298808127641677,0.11534217012189328
1772794086975093500,6.241093505859375,0.11142506974339485,0.032681203374266624,0.1311021954420954
1772794086985138700,6.251138671875,0.09280570946931839,0.05101005626916885,0.12445208990313111
1772794086995183600,6.26118359375,0.09074059363305569,0.04098024516403675,0.1405501150060445
1772794087005228800,6.271228759765625,0.1024035588979721,0.05318740030825138,0.11585991038568318
1772794087015272700,6.281272705078125,0.1158101529598236,0.048001522102952,0.09296637992374598
1772794087025317600,6.291317626953125,0.14915771128833294,0.02821487161517143,0.10299809072501957
1772794087035362800,6.30136279296875,0.14443360537588595,0.04330313515365124,0.07846855655908584
1772794087045407700,6.31140771484375,0.06212006382644176,0.06431143639087676,0.09342873673848807
1772794087055453000,6.321452880859375,0.020343699848651885,0.06869067438840866,0.0841517898272723
1772794087065497600,6.33149755859375,-0.039113866770267486,0.056634325891733166,0.05169051281400024
1772794087075542800,6.341542724609375,-0.06029401744306087,0.03309738295972347,0.03245587018579244
1772794087085587700,6.351587646484375,-0.08052139743566512,0.009266425517201422,0.03952383581064641
1772794087095633000,6.3616328125,-0.07707447185218334,-0.01634498560130596,0.026169629523158072
1772794087105677600,6.371677490234375,-0.07174421674013137,0.005080664265155792,0.02752856985144317
1772794087115722800,6.38172265625,-0.07562193495631217,0.026964579293131827,0.019461510186642408
1772794087125766700,6.3917666015625,-0.0447860671877861,0.028715806874632835,0.005583353090286254
1772794087135811800,6.401811767578125,-0.026777532288432118,-0.0023217209458351136,0.01763933626078069
1772794087145856500,6.4118564453125,0.008150573229789734,-0.007767711392045021,0.0008223492335528135
1772794087155901700,6.421901611328125,0.05075345115959644,0.0007575403690338134,-0.012420505633950233
1772794087165946600,6.431946533203125,0.07099018350243567,-0.013999299257993697,-0.022282339761033654
1772794087175991800,6.44199169921875,0.10886603291034698,-0.031705051818490024,-0.018150719849020242
1772794087186036500,6.452036376953125,0.13042495376765728,-0.015645897421240805,-0.03590367255210876
1772794087196081700,6.46208154296875,0.11468494832217693,-0.0018418284744024275,-0.03668766253665089
1772794087206126600,6.472126708984375,0.11072072086632251,-0.0015764555364847182,-0.020658026494830846
1772794087216171800,6.482171875,0.09392331532239913,-0.00564063623547554,-0.0147824124597013
1772794087226216700,6.492216796875,0.07388064424693584,0.0066927756369113914,-0.02512991121187806
1772794087236260600,6.502260498046875,0.040328503257036206,0.014521277305483818,-0.0004129647150635719
1772794087246305800,6.512305908203125,0.005008768072724342,0.013936170893907546,-0.002688143105432391
1772794087256350700,6.522350830078125,-0.012979893082380295,0.024433599510788915,-0.00157572488412261
1772794087266396000,6.53239599609375,-0.024283377385139464,0.04444587544798851,0.019068419215828178
1772794087276440600,6.542440673828125,-0.0116594581335783,0.04966507140100002,0.028922800688818095
1772794087286485800,6.55248583984375,0.01350771634876728,0.04657762677967548,0.05963482288196682
1772794087296530700,6.56253076171875,0.02917173394858837,0.038076340416073794,0.07346095753014087
1772794087306576000,6.572575927734375,0.03039338469803333,0.02882218985855579,0.04841974751502275
1772794087316620500,6.58262060546875,0.028422376886010167,0.021791560569405555,0.05366919247582554
1772794087326665700,6.592665771484375,0.023462124130129814,0.009174071058630943,0.024394801870360968
1772794087336710100,6.602710205078125,-0.02054477537870407,0.026264322069287298,0.020775296198949217
1772794087346755000,6.612755126953125,-0.040493338429927826,0.07147709023654461,0.03619206103943288
1772794087356799200,6.62279931640625,-0.06605623423159122,0.07988134596645832,0.08308620642237365
1772794087366844200,6.63284423828125,-0.05953939968347549,0.05571954913437366,0.0778465522032231
1772794087376889300,6.642889404296875,-0.024139585000276565,0.028357494956254958,0.08208126716352998
1772794087386934000,6.65293408203125,-0.022429858472943303,0.0338671982884407,0.088548636546731
1772794087396979200,6.662979248046875,-0.012925532546639442,0.016347323688864705,0.0759893069639802
1772794087407024000,6.673024169921875,0.024509002834558487,-0.00822656107544899,0.04984539640396833
1772794087417069300,6.6830693359375,0.029360534518957135,-0.00573299069404602,0.04510843100994825
1772794087427114000,6.693114013671875,0.04522855025827884,0.025354806008934975,0.060370151419192546
1772794087437159200,6.7031591796875,0.08468143972456454,0.044213820257782935,0.08236256832294166
1772794087447204000,6.7132041015625,0.06759411132335662,0.028624621459841727,0.08774798768833279
1772794087457249300,6.723249267578125,0.03886135331392288,0.03248421949744224,0.10724150044843554
1772794087467293000,6.73329296875,0.017125906845927238,0.02519113987982273,0.11650222687721251
1772794087477338000,6.743338134765625,0.006392915907502174,0.03793079446554184,0.08926452973112463
1772794087487383000,6.753383056640625,0.005171849679946899,0.051018239575624465,0.06705379390157759
1772794087497428200,6.76342822265625,-0.0009358195453882217,0.034169396105408666,0.06093837976120412
1772794087507473200,6.77347314453125,-0.02388707154393196,0.016657120290398595,0.032360958443954584
1772794087517518000,6.78351806640625,-0.022590601992607116,0.00597264466881752,0.02578172618411481
1772794087527563000,6.79356298828125,0.0044447044491767885,-0.0139817636013031,-0.0035530163064599034
1772794087537608200,6.803608154296875,0.015012275692820548,-0.037625089517235755,0.003651873571053147
1772794087547653000,6.813653076171875,-0.00255669874548912,0.011318681871891022,0.03139956606589257
1772794087557698000,6.823697998046875,-0.03243044348359108,0.0443809935182333,0.06617006986960769
1772794087567743000,6.833742919921875,0.0518400773525238,0.00014203881919384003,0.06903298502005636
1772794087577788200,6.8437880859375,0.14974515578746794,0.005183540117740631,0.14225976846814153
1772794087587832300,6.853832275390625,0.15613164195418358,-0.00689852734208107,0.1682435200303793
1772794087597877000,6.863876953125,0.0930231516122818,0.011100655207037924,0.12209814718812703
1772794087607922200,6.873922119140625,0.033628713357448575,-0.008290858483314513,-0.0017195903342217206
1772794087617967000,6.883967041015625,-0.004542904126644134,0.05541092157661914,-0.07848455784581601
1772794087628012300,6.89401220703125,-0.0402285500138998,0.08863573030829429,-0.08107121333815157
1772794087638057200,6.90405712890625,-0.056309916242957114,0.08917816662192345,-0.0340757995378226
1772794087648102100,6.91410205078125,-0.04333645290136337,0.07612170117199421,0.03908960911184549
1772794087658147000,6.92414697265625,0.0017588263660669326,0.05032616565823555,0.04986380884349346
1772794087668192300,6.934192138671875,0.039892449927330015,0.004508417335152626,0.07209712183102965
1772794087678237200,6.9442373046875,0.07639993359148502,-0.029562779092788694,0.0853467717655003
1772794087688282000,6.9542822265625,0.09722411043345927,-0.036685762840509416,0.10333302176780998
1772794087698326000,6.964325927734375,0.0917336963236332,-0.006601005700230598,0.1204196195166558
1772794087708371200,6.97437109375,0.054447044980525966,0.013563245928287506,0.11070603475384413
1772794087718416100,6.984416015625,0.02733516617119312,0.03767126674652099,0.03901186770051718
1772794087728461000,6.9944609375,0.03949614408612251,0.01576338632106781,-0.01131327504441142
1772794087738506000,7.004506103515625,0.048373862546682356,0.012052841365337371,-0.04348470226563513
1772794087748551200,7.01455126953125,0.0743003309637308,0.010383446848392486,-0.017914865266531705
1772794087758596000,7.02459619140625,0.07535831558406353,0.021943536260724067,-0.018978110583871603
1772794087768641300,7.034641357421875,0.05565583624839782,0.05953355446457863,0.009428703406825662
1772794087778686000,7.04468603515625,0.05246142412126064,0.07907645932435989,0.028171616995334624
1772794087788731100,7.054731201171875,0.03850713304877281,0.05645195506215095,0.02647051216587424
1772794087798776000,7.064776123046875,-0.005659340935945511,0.030450667843222617,0.023777546754851935
1772794087808820000,7.074820068359375,-0.03367255249917507,0.02264145539700985,0.010512772316485643
1772794087818865200,7.084865234375,-0.04641220708489418,0.01040156702697277,-0.01047346321940422
1772794087828910000,7.09491015625,-0.05677694923281669,0.0042220016092062,0.013078311955556273
1772794087838955300,7.104955322265625,-0.09096563456058501,-0.009609539866447449,0.04874832188226282
1772794087849000200,7.115000244140625,-0.11906418631970882,-0.010404489636421203,0.056855932753160594
1772794087859045000,7.125045166015625,-0.09761807818710803,-0.004200374299287796,0.033953780593350524
1772794087869090000,7.135090087890625,-0.09136077135801315,-0.00996200656592846,-0.008204056982696056
1772794087879135200,7.14513525390625,-0.1015799675554037,0.017872341299057005,-0.009824570856615901
1772794087889180200,7.15518017578125,-0.10908464409708976,0.02991583031415939,0.015716040048003196
1772794087899225300,7.165225341796875,-0.07361059513390064,0.0006973346143960953,0.04092990321628749
1772794087909270000,7.17527001953125,-0.08647183027267455,-0.0034989480316638946,0.07482289353311061
1772794087919314200,7.185314208984375,-0.097079149004817,0.03920212957561016,0.04588840240649879
1772794087929359000,7.195359130859375,-0.07559796955883502,0.056064417049288745,-0.04035151880644262
1772794087939404000,7.205404052734375,-0.10877192488610744,0.07778992664515971,-0.04706862516701221
1772794087949449000,7.215448974609375,-0.1317921504676342,0.0981423943221569,0.04363996589258313
1772794087959494100,7.225494140625,-0.1498129603266716,0.09446399807035923,0.17701850876882672
1772794087969539000,7.2355390625,-0.09431728307604789,0.08373217617571353,0.19668072915934026
1772794087979584300,7.245584228515625,0.04868365914821624,0.023323007920384407,0.09906228564605116
1772794087989629000,7.25562890625,0.19467501536011694,-0.022465514308214186,0.05191306952349841
1772794087999674000,7.265674072265625,0.29489129334688186,-0.012346271353960037,0.07574256566129624
1772794088009719000,7.275718994140625,0.358763753798604,0.029244214662909506,0.08914178013429046
1772794088019764200,7.28576416015625,0.3595739011377096,0.01514028598666191,0.08352357492633164
1772794088029809200,7.29580908203125,0.2955740149140358,0.00030512042641639707,0.07528378904312849
1772794088039853000,7.30585302734375,0.155390468198061,-0.005583353090286254,0.11137049001194536
1772794088049898200,7.315898193359375,0.07315700614750385,0.029918168401718136,0.09945347692072391
1772794088059943200,7.325943115234375,0.0965080711185932,0.08170973043739795,0.08372837678343058
1772794088069988000,7.335988037109375,0.1598556309133768,0.10236673401892185,0.16226473788172005
1772794088080033000,7.346032958984375,0.30514263824820514,0.12116378894746303,0.19613113245256245
1772794088090078200,7.356078125,0.44147067857980726,0.11128829162120818,0.1505685279343277
1772794088100123100,7.366123046875,0.4015016562849283,0.034464579659700394,0.06664901249296963
1772794088110168300,7.376168212890625,0.24218729264140126,0.014817045381665228,0.17538835028372704
1772794088120213000,7.386212890625,-0.04428220931887626,0.057445642274618146,0.1761597730476409
1772794088130258200,7.396258056640625,-0.1907078652948141,0.048337622189521784,0.04053381657078862
1772794088140303000,7.40630322265625,-0.3377168741166591,-0.036512159839272494,-0.10016557071283459
1772794088150347300,7.41634716796875,-0.5120066885739565,-0.17593582809865474,-0.15218217367604375
1772794088160392000,7.426391845703125,-0.6238514450341462,-0.2446393619686365,-0.20440971597619353
1772794088170437000,7.43643701171875,-0.6579267331153154,-0.2585544900745153,-0.295971270603314
1772794088180482000,7.44648193359375,-0.5840554412186145,-0.14211071538627146,-0.23547530084736643
1772794088190527200,7.45652734375,-0.3581932604342699,-0.023072832551598546,-0.04670410270355642
1772794088200572000,7.466572021484375,0.03898761004209518,-0.07483399944901466,0.215654382763803
1772794088210617000,7.4766171875,0.2985316956758499,0.0046808512926101685,0.3945893926784396
1772794088220662000,7.486662109375,0.2915256163060665,0.13550269542336463,0.40143867405131456
1772794088230707200,7.496707275390625,0.2522901689827442,0.1849783817321062,0.2073778450667858
1772794088240752000,7.506752197265625,0.3547627014636993,0.1637766037493944,-0.07806750147752463
1772794088250797000,7.516797119140625,0.48063598327636714,0.153973002615571,-0.2304448323994875
1772794088260841200,7.52684130859375,0.5028413853436708,0.15624094754755496,-0.181881000238657
1772794088270886100,7.53688623046875,0.4697451714277267,0.19039105443060397,-0.03225917856991291
1772794088280931300,7.546931396484375,0.42169864113926886,0.1977396636277437,0.10125709227658808
1772794088290976000,7.55697607421875,0.3574538402438164,0.1432727449029684,0.1625410706050694
1772794088301021200,7.567021240234375,0.23234102140963075,0.08267828320860862,0.1949156922481954
1772794088311066000,7.577066162109375,0.06430676021575928,0.04353285225629806,0.18113325061127541
1772794088321111300,7.587111328125,-0.12241466579139232,0.00132628016769886,0.1218948066357523
1772794088331156000,7.597156005859375,-0.28185002546608445,-0.03009235592484474,0.060006140412390226
1772794088341201700,7.60720166015625,-0.3905874635607004,-0.052035892185568804,0.024616262601315973
1772794088351246300,7.617246337890625,-0.3862590789675712,-0.060572834384441374,-0.0020544483117759227
1772794088361291500,7.62729150390625,-0.3291688260018825,-0.06696282768249512,0.02023125245012343
1772794088371335400,7.63733544921875,-0.2998141367018223,-0.08061316737234592,0.018751389155909418
1772794088381380600,7.647380615234375,-0.269872002902627,-0.041001287952065466,0.02579750827513635
1772794088391425300,7.65742529296875,-0.24923779567480087,-0.01705050352215767,0.003148161832615733
1772794088401470500,7.667470458984375,-0.20802140366733074,0.01640343779027462,-0.0477652291290462
1772794088411515400,7.677515380859375,-0.14612988789975642,0.035375849285721774,-0.07202215689867734
1772794088421560600,7.687560546875,-0.06060907474160194,0.04533844037353992,-0.05085705766454339
1772794088431605200,7.697605224609375,0.03796235864758491,0.012263853767514227,-0.02495586981922388
1772794088441650400,7.707650390625,0.08650222541093826,0.012541501665115355,0.04791837386414408
1772794088451695400,7.7176953125,0.1119891333669424,0.03963935194909572,0.13014869410954416
1772794088461740500,7.727740478515625,0.10526830067932605,0.0604319646090269,0.17386625528298316
1772794088471785500,7.737785400390625,0.14233283370435237,0.06358429116010665,0.12724522775299846
1772794088481829400,7.747829345703125,0.2240221058756113,0.05583645351231098,0.1210872896451503
1772794088491874600,7.75787451171875,0.29849428627491,0.048235915380716324,0.12632168316729367
1772794088501919500,7.76791943359375,0.3462666757971048,0.04560322878956794,0.1508540668774396
1772794088511964700,7.777964599609375,0.30537001726329327,0.06254033506512642,0.17052052505165338
1772794088522009300,7.78800927734375,0.2377759059399366,0.09139292006194591,0.14259104624912142
1772794088532054500,7.798054443359375,0.16255846013128755,0.07575520594716072,0.07986804809346795
1772794088542099500,7.808099365234375,0.09882336232364178,0.03373392729759216,-0.04210888386778533
1772794088552144600,7.81814453125,0.040599136891961096,0.022742577683925628,-0.07606397963538765
1772794088562189300,7.828189208984375,-0.06509937189817429,0.01607493648827076,-0.030409166789054868
1772794088572234500,7.838234375,-0.10447861160635948,-0.021366613155603408,-0.060912003210932014
1772794088582279400,7.848279541015625,-0.06090951899290085,-0.026739538365602493,-0.10036628091670573
1772794088592323600,7.858323486328125,-0.032518121767044064,0.024669746354222297,0.0155061236243695
1772794088602368300,7.8683681640625,0.02541150463223457,0.07018003616333007,0.15919987041838465
1772794088612413400,7.878413330078125,0.13115502160787582,0.1276268474817276,0.2584651312906295
1772794088622458400,7.888458251953125,0.30659692870974536,0.17939269055426119,0.27129049139842387
1772794088632503600,7.898503662109375,0.13080255490839482,0.20516192258298396,0.1609181455783546
1772794088642548500,7.908548583984375,-0.014118541723489761,0.014348258826136589,0.04440035580582916
1772794088652593400,7.918593505859375,0.041890930268168446,-0.23388357467651366,-0.08637786837890744
1772794088662638300,7.928638427734375,0.25662381427288056,-0.42642683870494363,-0.2826321888197213
1772794088672683500,7.93868359375,0.3679220427662134,-0.4455857126832008,-0.3861042537320405
1772794088682728400,7.948728515625,0.2359218025058508,-0.3548690844476223,-0.3310420725278556
1772794088692773400,7.9587734375,-0.06727437784969806,-0.1703957296282053,-0.2016105867769569
1772794088702817500,7.968817626953125,-0.4359440241128206,-0.0011474164694547653,-0.004047521825134754
1772794088712862500,7.978862548828125,-0.6416968983262777,-0.014570961666107177,0.2081967602342367
1772794088722907600,7.98890771484375,-0.6543728400260209,-0.05003332019150257,0.3031169045742601
