time,seconds_elapsed,z,y,x
1772794080797471200,0.06347119140625,0.0221490990370512,0.01372374128550291,0.07155725359916687
1772794080807516400,0.073516357421875,0.019168755039572716,0.018161309882998466,0.08274411410093307
1772794080817561300,0.083561279296875,0.008949140086770058,0.01132737286388874,0.08211108297109604
1772794080827606500,0.0936064453125,0.009638632647693157,0.004853653721511364,0.07371903955936432
1772794080837651200,0.103651123046875,0.008846874348819256,-0.00044337334111332893,0.05362709239125252
1772794080847696400,0.1136962890625,0.011214694008231163,-0.00016751931980252266,0.03087824024260044
1772794080857741300,0.1237412109375,0.013270121067762375,-0.0025206885766237974,0.002209311118349433
1772794080867785500,0.133785400390625,0.015844594687223434,0.0012950273230671883,-0.018069716170430183
1772794080877830100,0.143830078125,0.017044881358742714,0.004802943207323551,-0.026485305279493332
1772794080887875300,0.153875244140625,0.017016921192407608,0.005052273627370596,-0.028493791818618774
1772794080897920300,0.163920166015625,0.017888840287923813,0.00297181261703372,-0.025111312046647072
1772794080907965400,0.17396533203125,0.018566876649856567,0.0014267442747950554,-0.016778284683823586
1772794080918010400,0.18401025390625,0.018716545775532722,0.0021348786540329456,-0.005726166069507599
1772794080928055300,0.19405517578125,0.011433606036007404,-0.0004851282574236393,0.0021519362926483154
1772794080938100200,0.204100341796875,0.007931016385555267,-0.0004523717798292637,0.009965118020772934
1772794080948145400,0.2141455078125,-0.0002960223064292222,0.004503823351114988,0.022392142564058304
1772794080958190300,0.2241904296875,-0.003719516098499298,0.006666842382401228,0.02915790304541588
1772794080968235300,0.2342353515625,-0.013701844960451126,-0.0008290531113743782,0.03640712425112724
1772794080978279400,0.244279541015625,-0.01973283849656582,-0.002201380208134651,0.041783783584833145
1772794080988324400,0.254324462890625,-0.022405853495001793,-0.0017018229700624943,0.044993773102760315
1772794080998369500,0.26436962890625,-0.022429822012782097,-0.002361221704632044,0.048239368945360184
1772794081008414200,0.274414306640625,-0.02233182080090046,-0.0034444956108927727,0.04712221771478653
1772794081018459400,0.28445947265625,-0.021523552015423775,-0.00426927674561739,0.042879536747932434
1772794081028504300,0.29450439453125,-0.01993577368557453,-0.008638083934783936,0.03720587119460106
1772794081038549500,0.304549560546875,-0.020393304526805878,-0.015069616958498955,0.030813487246632576
1772794081048594400,0.314594482421875,-0.014572962187230587,-0.015496090054512024,0.030867235735058784
1772794081058639400,0.324639404296875,-0.009186984971165657,-0.015933115035295486,0.02891886793076992
1772794081068684300,0.334684326171875,-0.005187716335058212,-0.016416743397712708,0.029069071635603905
1772794081078729500,0.3447294921875,-0.0040548075921833515,-0.018585622310638428,0.028837641701102257
1772794081088774400,0.3547744140625,-0.001097367494367063,-0.012835752218961716,0.027199679985642433
1772794081098819300,0.3648193359375,0.0010587277356535196,-0.010475659742951393,0.019809408113360405
1772794081108863200,0.37486328125,-0.0018518420401960611,-0.014873817563056946,0.015046261250972748
1772794081118908400,0.384908447265625,0.0017631328664720058,-0.012636762112379074,0.0034242260735481977
1772794081128953300,0.394953369140625,0.005591690540313721,-0.009680499322712421,-0.004474695771932602
1772794081138998300,0.404998291015625,0.011015750467777252,-0.007291111163794994,-0.021831583231687546
1772794081149043200,0.415043212890625,0.01015821099281311,-0.005909038707613945,-0.03578248620033264
1772794081159088400,0.42508837890625,0.010350491851568222,-0.000899899285286665,-0.034421078860759735
1772794081169133300,0.43513330078125,0.008020231500267982,-0.0016891974955797195,-0.018522683531045914
1772794081179178500,0.445178466796875,0.0028635524213314056,-0.0034175890032202005,-0.009210674092173576
1772794081189223200,0.45522314453125,-0.0019530458375811577,-0.008089741691946983,0.006557897664606571
1772794081199268400,0.465268310546875,-0.002905392087996006,-0.015744997188448906,0.017186574637889862
1772794081209313300,0.475313232421875,-0.007124635390937328,-0.018724963068962097,0.01754741743206978
1772794081219358500,0.4853583984375,-0.001198836020193994,-0.023784169927239418,0.017056597396731377
1772794081229402400,0.49540234375,-0.003194338409230113,-0.019517621025443077,0.013819478452205658
1772794081239447300,0.505447265625,-0.0011405086843296885,-0.015345246531069279,0.008864400908350945
1772794081249492500,0.515492431640625,-0.0017945844447240233,-0.013997532427310944,-0.0012156498851254582
1772794081259537400,0.525537353515625,0.00046803720761090517,-0.016174931079149246,-0.008659717626869678
1772794081269582300,0.535582275390625,0.004163440316915512,-0.009951869025826454,-0.02364455722272396
1772794081279627300,0.545627197265625,0.00808654259890318,-0.00287132291123271,-0.03245110064744949
1772794081289672400,0.55567236328125,0.0003865438047796488,-0.028335245326161385,-0.031818002462387085
1772794081299717400,0.56571728515625,-0.013159891590476036,-0.07202467322349548,-0.011666128411889076
1772794081309762600,0.575762451171875,-0.017427338287234306,-0.09462834894657135,0.008628659881651402
1772794081319807200,0.58580712890625,-0.019172508269548416,-0.09572663903236389,0.01893536001443863
1772794081329853000,0.59585302734375,-0.015076031908392906,-0.08312754333019257,0.010405338369309902
1772794081339897600,0.605897705078125,-0.010252514854073524,-0.05699127912521362,-0.02025483548641205
1772794081349941800,0.615941650390625,-0.004570130258798599,-0.02953238971531391,-0.054169826209545135
1772794081359986700,0.625986572265625,-0.0026795524172484875,0.008557206019759178,-0.08446008712053299
1772794081370031900,0.636031982421875,0.00017854972975328565,0.019631104543805122,-0.09870243072509766
1772794081380076500,0.64607666015625,0.0029903152026236057,0.002518697176128626,-0.0850268304347992
1772794081390121700,0.656121826171875,0.013555074110627174,-0.005904562305659056,-0.04830005764961243
1772794081400166700,0.666166748046875,0.025366993620991707,-0.0051207938231527805,-0.0021336274221539497
1772794081410211800,0.6762119140625,0.033893901854753494,-0.007567970547825098,0.04217449948191643
1772794081420256800,0.6862568359375,0.038481730967760086,-0.01231718622148037,0.07289246469736099
1772794081430301700,0.6963017578125,0.04199736937880516,-0.018144823610782623,0.08762060850858688
1772794081440346600,0.7063466796875,0.03998348489403725,-0.025201668962836266,0.09078551083803177
1772794081450391800,0.716391845703125,0.034141313284635544,-0.03236279636621475,0.07643159478902817
1772794081460436700,0.726436767578125,0.025845298543572426,-0.040192753076553345,0.04581216350197792
1772794081470480600,0.736480712890625,0.01780441589653492,-0.034300245344638824,0.018627947196364403
1772794081480525800,0.74652587890625,0.007702781353145838,-0.026617558673024178,-0.0006014081300236285
1772794081490570800,0.75657080078125,-0.003201269544661045,-0.02613185904920101,-0.006409832276403904
1772794081500616000,0.766615966796875,-0.01375644188374281,-0.03405050188302994,-0.011145997792482376
1772794081510660600,0.77666064453125,-0.021512897685170174,-0.036907538771629333,-0.010577095672488213
1772794081520705800,0.786705810546875,-0.02582535333931446,-0.040584564208984375,-0.01344478689134121
1772794081530750700,0.796750732421875,-0.02780221961438656,-0.036926981061697006,-0.01592663861811161
1772794081540796000,0.8067958984375,-0.019703015685081482,-0.03051595389842987,-0.028343893587589264
1772794081550840800,0.8168408203125,-0.017234528437256813,-0.02682523801922798,-0.04028743878006935
1772794081560885800,0.8268857421875,-0.015638763085007668,-0.01838754303753376,-0.05169668421149254
1772794081570930700,0.8369306640625,-0.009526541456580162,-0.005748498719185591,-0.058325741440057755
1772794081580975900,0.846975830078125,0.0020912326872348785,-0.0003689136356115341,-0.05999581143260002
1772794081591020800,0.857020751953125,0.008652727119624615,0.005448331590741873,-0.05739140883088112
1772794081601064700,0.867064697265625,0.011886869557201862,0.0030762539245188236,-0.044721152633428574
1772794081611109600,0.877109619140625,0.012426963075995445,-0.0010722517035901546,-0.025815417990088463
1772794081621154800,0.88715478515625,0.014766283333301544,-0.01336220744997263,-0.006072339601814747
1772794081631199700,0.89719970703125,0.022884661331772804,-0.02152852714061737,0.0068505979143083096
1772794081641244700,0.90724462890625,0.027648789808154106,-0.029006149619817734,0.013234727084636688
1772794081651289600,0.91728955078125,0.02958863414824009,-0.02976877987384796,0.0033507184125483036
1772794081661334800,0.927334716796875,0.02959848754107952,-0.035202961415052414,-0.009106749668717384
1772794081671379700,0.937379638671875,0.03250506520271301,-0.038878221064805984,-0.02525940164923668
1772794081681425000,0.9474248046875,0.02430226095020771,-0.03191938251256943,-0.03978348523378372
1772794081691469600,0.957469482421875,0.02195069193840027,-0.025678955018520355,-0.0475810170173645
1772794081701514800,0.9675146484375,0.009198411367833614,-0.02889791876077652,-0.05462294816970825
1772794081711559700,0.9775595703125,0.003593789180740714,-0.02809806540608406,-0.05621989816427231
1772794081721603600,0.987603515625,-0.00020654185209423304,-0.017718661576509476,-0.05507899820804596
1772794081731648800,0.997648681640625,-0.008814942091703415,-0.010176213458180428,-0.052753325551748276
1772794081741693700,1.007693603515625,-0.013912498950958252,-0.008839307352900505,-0.045227229595184326
1772794081751739000,1.01773876953125,-0.01632585935294628,-0.01075817085802555,-0.02832763083279133
1772794081761783800,1.02778369140625,-0.016238240525126457,-0.0011968901380896568,-0.011657306924462318
1772794081771828700,1.037828857421875,-0.020255351439118385,0.00013202987611293793,0.0081065958365798
1772794081781873700,1.047873779296875,-0.02166149951517582,-0.00407017208635807,0.026385469362139702
1772794081791918800,1.0579189453125,-0.018796999007463455,-0.00951414741575718,0.03532523661851883
1772794081801963800,1.0679638671875,-0.018311770632863045,-0.010401247069239616,0.044807154685258865
1772794081812009000,1.078009033203125,-0.020481450483202934,-0.008326753973960876,0.04360155761241913
1772794081822053600,1.0880537109375,-0.02622588910162449,-0.006941644474864006,0.03943557292222977
1772794081832098800,1.098098876953125,-0.030247533693909645,-0.0037367490585893393,0.032945796847343445
1772794081842142700,1.108142822265625,-0.03263159468770027,0.0005309665575623512,0.02039937861263752
1772794081852187600,1.118187744140625,-0.03063235431909561,0.0026618223637342453,0.007778779603540897
1772794081862232600,1.128232666015625,-0.029938334599137306,-0.00014381716027855873,-0.007018009200692177
1772794081872277800,1.13827783203125,-0.028786519542336464,0.0007994719780981541,-0.01866406574845314
1772794081882322700,1.14832275390625,-0.02600138448178768,0.007555645424872637,-0.013997940346598625
1772794081892368000,1.158367919921875,-0.02540217526257038,0.005909385625272989,-0.006600594613701105
1772794081902412500,1.16841259765625,-0.023620788007974625,0.004711495246738195,-0.007444283924996853
1772794081912457700,1.178457763671875,-0.023145947605371475,0.0028653861954808235,-0.005450477823615074
1772794081922502700,1.188502685546875,-0.018888086080551147,0.007620460353791714,0.0006020882865414023
1772794081932547800,1.1985478515625,-0.014417702332139015,0.01638955995440483,0.005578938405960798
1772794081942592800,1.2085927734375,-0.012260009534657001,0.018279340118169785,0.013757506385445595
1772794081952637700,1.2186376953125,-0.013996386900544167,0.01887642592191696,0.017204804345965385
1772794081962682600,1.2286826171875,-0.017991928383708,0.02288927510380745,0.01837100274860859
1772794081972726800,1.238726806640625,-0.01396230235695839,0.024137282744050026,0.02081538364291191
1772794081982771700,1.248771728515625,-0.00848870724439621,0.022558826953172684,0.019703779369592667
1772794081992816600,1.258816650390625,-0.006233543157577515,0.023039259016513824,0.015586480498313904
1772794082002861800,1.26886181640625,-0.0003301143879070878,0.023758843541145325,0.007038000505417585
1772794082012906800,1.27890673828125,0.002456085756421089,0.02191508747637272,-0.0036262779030948877
1772794082022952000,1.288951904296875,0.004871572367846966,0.02269699051976204,-0.012070896103978157
1772794082032996600,1.29899658203125,0.01275346614420414,0.022918356582522392,-0.020202573388814926
1772794082043041800,1.309041748046875,0.014185448177158833,0.02458922378718853,-0.031130854040384293
1772794082053086700,1.319086669921875,0.015685873106122017,0.02356097660958767,-0.039393577724695206
1772794082063132000,1.3291318359375,0.020743483677506447,0.0174852404743433,-0.04553402587771416
1772794082073176800,1.3391767578125,0.021982111036777496,0.01730050891637802,-0.04131222516298294
1772794082083221800,1.3492216796875,0.027071679010987282,0.013576878234744072,-0.033209022134542465
1772794082093265700,1.359265625,0.024328360334038734,0.004035794176161289,-0.027934662997722626
1772794082103310800,1.369310791015625,0.023859910666942596,0.0072030918672680855,-0.024036061018705368
1772794082113355500,1.37935546875,0.02269185706973076,0.010007252916693687,-0.021945074200630188
1772794082123400700,1.389400634765625,0.022508099675178528,0.008992055431008339,-0.025119295343756676
1772794082133445600,1.399445556640625,0.022887593135237694,0.011386493220925331,-0.02361641451716423
1772794082143490800,1.40949072265625,0.020782629027962685,0.018865449354052544,-0.019967351108789444
1772794082153535700,1.41953564453125,0.021622858941555023,0.020564604550600052,-0.015405070036649704
1772794082163580700,1.42958056640625,0.010900173336267471,0.021402966231107712,-0.011073704808950424
1772794082173625600,1.43962548828125,0.009331301786005497,0.014642737805843353,-0.004519469104707241
1772794082183670800,1.4496708984375,0.010484983213245869,0.014345262199640274,-0.0002498895628377795
1772794082193715700,1.4597158203125,0.012894079089164734,0.01006561890244484,0.0012997710146009922
1772794082203761000,1.469760986328125,0.016372166574001312,0.006596051622182131,0.0006387743633240461
1772794082213804800,1.4798046875,0.018539713695645332,0.007568744011223316,-0.0009187589166685939
1772794082223849700,1.489849609375,0.018970878794789314,0.009350665844976902,-0.002712664194405079
1772794082233895000,1.49989501953125,0.023973094299435616,0.008480768650770187,-0.00717392610386014
1772794082243939600,1.509939697265625,0.025280706584453583,0.008066646754741669,-0.010760936886072159
1772794082253984800,1.51998486328125,0.02221141755580902,0.00850644800812006,-0.014154566451907158
1772794082264029700,1.53002978515625,0.02365298569202423,0.00591838825494051,-0.010143846273422241
1772794082274075000,1.540074951171875,0.021081171929836273,0.0031913118436932564,-0.009850366041064262
1772794082284119800,1.550119873046875,0.02263406105339527,0.0052187759429216385,-0.006404501385986805
1772794082294164700,1.560164794921875,0.024343809112906456,0.011755447834730148,-0.01006476953625679
1772794082304209700,1.570209716796875,0.029098883271217346,0.01634540595114231,-0.013632872141897678
1772794082314254800,1.5802548828125,0.03246511518955231,0.019385240972042084,-0.015035993419587612
1772794082324300000,1.590300048828125,0.027654914185404778,0.02314588986337185,-0.02143876627087593
1772794082334344000,1.600343994140625,0.027432281523942947,0.022255128249526024,-0.018316036090254784
1772794082344388900,1.610388916015625,0.028317783027887344,0.02096988633275032,-0.011693553067743778
1772794082354434000,1.62043408203125,0.023307837545871735,0.011528225615620613,0.0035983454436063766
1772794082364479000,1.63047900390625,0.02412888966500759,0.0051262532360851765,0.012409413233399391
1772794082374524000,1.64052392578125,0.023786677047610283,-0.000896054320037365,0.013149193488061428
1772794082384568800,1.65056884765625,0.02052110992372036,-0.006467120721936226,0.015682125464081764
1772794082394614000,1.660614013671875,0.020425500348210335,-0.008151787333190441,0.009920241311192513
1772794082404659000,1.670658935546875,0.017277643084526062,-0.006322195287793875,0.002702009631320834
1772794082414703900,1.680703857421875,0.018358886241912842,-0.009398996829986572,-0.01031730230897665
1772794082424748800,1.690748779296875,0.014518076553940773,-0.006303072441369295,-0.027097612619400024
1772794082434794000,1.7007939453125,0.01314628217369318,-0.000555011909455061,-0.03879889100790024
1772794082444839000,1.7108388671875,0.009661536663770676,0.003722024615854025,-0.0411968007683754
1772794082454884000,1.720884033203125,0.009894026443362236,0.0022647888399660587,-0.03963185101747513
1772794082464928000,1.730927978515625,0.006962419021874666,-0.0034740567207336426,-0.038580168038606644
1772794082474973000,1.740972900390625,0.0074929227121174335,-0.00875435397028923,-0.0353914313018322
1772794082485018000,1.75101806640625,0.0021548825316131115,-0.011386889033019543,-0.02919771708548069
1772794082495063000,1.76106298828125,0.0037911315448582172,-0.006411781068891287,-0.018032927066087723
1772794082505108000,1.77110791015625,-0.002960780868306756,-0.003044480225071311,-0.011583816260099411
1772794082515153000,1.78115283203125,-0.005234589800238609,-0.006562679074704647,-0.009234278462827206
1772794082525198000,1.791197998046875,-0.0029631799552589655,-0.0048515978269279,-0.0074952347204089165
1772794082535243000,1.801242919921875,-0.0018057693960145116,-0.004713591653853655,-0.005668871104717255
1772794082545288000,1.811287841796875,0.00009120028698816895,-0.010540055111050606,-0.011790678836405277
1772794082555332900,1.821332763671875,0.0010214402573183179,-0.015314893797039986,-0.019272848963737488
1772794082565378000,1.8313779296875,0.001946622389368713,-0.015497587621212006,-0.02771107479929924
1772794082575423000,1.841423095703125,0.004436415154486895,-0.004894844256341457,-0.02807064726948738
1772794082585467000,1.851466796875,-0.0005205264315009117,0.0048667062073946,-0.030749522149562836
1772794082595511800,1.86151171875,-0.002907253336161375,0.007284587249159813,-0.02897138148546219
1772794082605557000,1.871556884765625,-0.004156009294092655,0.002416594885289669,-0.028904004022479057
1772794082615602000,1.881601806640625,-0.00728096067905426,-0.005566227249801159,-0.019418835639953613
1772794082625647000,1.891647216796875,-0.0033176445867866278,-0.00644533708691597,-0.008427971042692661
1772794082635691800,1.90169189453125,0.0034595727920532227,-0.0026329639367759228,0.004089755937457085
1772794082645737000,1.911737060546875,0.004844416864216328,-0.0015929993242025375,0.01664656028151512
1772794082655782000,1.921781982421875,0.004473164677619934,-0.0003475537523627281,0.021904082968831062
1772794082665827000,1.9318271484375,0.00000651070149615407,0.006375330500304699,0.024709457531571388
1772794082675871700,1.941871826171875,-0.0013967067934572697,0.010628027841448784,0.022470705211162567
1772794082685917000,1.9519169921875,-0.0035482747480273247,0.012381453067064285,0.015499349683523178
1772794082695961900,1.9619619140625,-0.003871848341077566,0.013950482942163944,0.010035725310444832
1772794082706006000,1.972006103515625,-0.0005114717059768736,0.01007531676441431,0.006684935186058283
1772794082716051000,1.982051025390625,0.006214878521859646,0.005289886612445116,0.004106299951672554
1772794082726096000,1.992095947265625,0.004766118712723255,0.003591321874409914,0.009717313572764397
1772794082736141000,2.00214111328125,0.0036371995229274035,0.0022765672765672207,0.012753929011523724
1772794082746186000,2.01218603515625,-0.0008773911977186799,-0.00327053084038198,0.0121573805809021
1772794082756231200,2.022231201171875,0.003549049375578761,-0.0015638172626495361,0.005787482485175133
1772794082766275800,2.03227587890625,0.005231368355453014,0.002726003061980009,0.003064400516450405
1772794082776321000,2.042321044921875,0.006928599439561367,0.008652493357658386,-0.006988168694078922
1772794082786366000,2.052365966796875,0.0062761250883340836,0.009364088997244835,-0.015531855635344982
1772794082796411100,2.0624111328125,0.00930627342313528,0.005103995557874441,-0.019909607246518135
1772794082806455800,2.072455810546875,0.01489891204982996,0.0008775591850280762,-0.016847237944602966
1772794082816501000,2.0825009765625,0.019753849133849144,-0.005547165870666504,-0.018810074776411057
1772794082826545000,2.092544921875,0.021430041640996933,-0.006790329702198505,-0.01672641932964325
1772794082836590000,2.102590087890625,0.022164540365338326,-0.00957338884472847,-0.02055254951119423
1772794082846634800,2.112634765625,0.022749636322259903,-0.008924908936023712,-0.023112911731004715
1772794082856680000,2.122679931640625,0.0266564954072237,-0.0016854233108460903,-0.022006552666425705
1772794082866724900,2.132724853515625,0.025944100692868233,0.00329575315117836,-0.02299378626048565
1772794082876770000,2.14277001953125,0.025716135278344154,0.00040356628596782684,-0.0196135975420475
1772794082886815000,2.15281494140625,0.01979007013142109,-0.00046062981709837914,-0.016516340896487236
1772794082896860000,2.16285986328125,0.022958964109420776,0.0013633151538670063,-0.01546489354223013
1772794082906904800,2.17290478515625,0.02388867363333702,0.00033133989199995995,-0.012221163138747215
1772794082916950000,2.182949951171875,0.02309691719710827,-0.0011061797849833965,-0.004304150585085154
1772794082926995000,2.192994873046875,0.02051365002989769,-0.007653295062482357,-0.000746966281440109
1772794082937040000,2.203039794921875,0.018093634396791458,-0.004950137808918953,0.00032721739262342453
1772794082947084000,2.213083984375,0.02051764354109764,-0.0038971242029219866,-0.004373794421553612
1772794082957129000,2.22312890625,0.02033228613436222,-0.00398634560406208,-0.0030151521787047386
1772794082967174100,2.233174072265625,0.017474446445703506,-0.0017383713275194168,-0.006552362814545631
1772794082977218800,2.24321875,0.01268715225160122,-0.0037607671692967415,-0.010802879929542542
1772794082987264000,2.253263916015625,0.009014387615025043,0.0005676685832440853,-0.013564578257501125
1772794082997309000,2.263308837890625,0.010883128270506859,0.001809075940400362,-0.01823423057794571
1772794083007354000,2.27335400390625,0.015566564165055752,-0.002362232655286789,-0.025868980213999748
1772794083017399000,2.28339892578125,0.017822792753577232,-0.007385274861007929,-0.03213643282651901
1772794083027444000,2.29344384765625,0.01739029586315155,-0.0077959345653653145,-0.029366476461291313
1772794083037489000,2.303489013671875,0.02002868987619877,-0.0059673539362847805,-0.020622286945581436
1772794083047534000,2.3135341796875,0.015016353689134121,-0.011953873559832573,-0.013324160128831863
1772794083057579000,2.3235791015625,0.015191852115094662,-0.015292899683117867,-0.004112472757697105
1772794083067623000,2.333622802734375,0.0122035201638937,-0.01710917428135872,0.006124718114733696
1772794083077667800,2.343667724609375,0.011129472404718399,-0.02156548574566841,0.011335431598126888
1772794083087713000,2.353713134765625,0.005316324532032013,-0.021001428365707397,0.01182891521602869
1772794083097758000,2.363758056640625,0.008864181116223335,-0.02617734670639038,0.006721331737935543
1772794083107803000,2.373802978515625,0.01253295224159956,-0.02316184900701046,-0.0043478310108184814
1772794083117847800,2.383847900390625,0.013171848841011524,-0.021579496562480927,-0.01199935469776392
1772794083127893000,2.39389306640625,0.011551049537956715,-0.018972529098391533,-0.022152122110128403
1772794083137938000,2.40393798828125,0.011870363727211952,-0.012425517663359642,-0.03002399206161499
1772794083147982800,2.41398291015625,0.010372868739068508,-0.018814707174897194,-0.02688652276992798
1772794083158027800,2.42402783203125,0.0027604869101196527,-0.02064179815351963,-0.024346034973859787
1772794083168073000,2.434072998046875,-0.00023903147666715086,-0.01750539243221283,-0.013367952778935432
1772794083178118000,2.444117919921875,-0.003131757490336895,-0.015637241303920746,-0.00520852766931057
1772794083188163000,2.4541630859375,-0.006665240041911602,-0.012624938040971756,-0.003026865888386965
1772794083198207000,2.46420703125,-0.010536144487559795,-0.004629862494766712,-0.0038532447069883347
1772794083208252000,2.474251953125,-0.009915627539157867,-0.001033796463161707,-0.003468151669949293
1772794083218297000,2.484297119140625,-0.010820572264492512,-0.0053453510627150536,-0.004854761064052582
1772794083228342000,2.494342041015625,-0.01191965863108635,-0.007016484625637531,-0.0002930328482761979
1772794083238387000,2.504386962890625,-0.009564351290464401,-0.0033310868311673403,0.0067282142117619514
1772794083248431900,2.514431884765625,-0.00892066489905119,0.0005219746381044388,0.014328342862427235
1772794083258477000,2.52447705078125,-0.006693999283015728,0.003118128515779972,0.014616329222917557
1772794083268522000,2.53452197265625,-0.005446041934192181,0.002443550154566765,0.01204850897192955
1772794083278567000,2.54456689453125,-0.005041774827986956,0.006087765097618103,0.0038635823875665665
1772794083288611800,2.55461181640625,-0.0061634983867406845,-0.0018287473358213902,-0.0029607678297907114
1772794083298657000,2.564656982421875,-0.007482291664928198,-0.004039965569972992,-0.006898680701851845
1772794083308702000,2.574701904296875,-0.00766019057482481,-0.009186524897813797,-0.009786080569028854
1772794083318745900,2.584745849609375,-0.006554985884577036,-0.013714918866753578,-0.010604708455502987
1772794083328789800,2.594789794921875,-0.006148853804916143,-0.016640400514006615,-0.011426293291151524
1772794083338834700,2.604834716796875,-0.004740307107567787,-0.016850469633936882,-0.014729178510606289
1772794083348880000,2.6148798828125,0.0018534131813794374,-0.020666513592004776,-0.013544604182243347
1772794083358924500,2.624924560546875,0.0005934705259278417,-0.02643902227282524,-0.018313460052013397
1772794083368969700,2.6349697265625,0.0023666031192988157,-0.0275101475417614,-0.019995514303445816
1772794083379014700,2.6450146484375,0.007982677780091763,-0.029277365654706955,-0.022049909457564354
1772794083389059800,2.655059814453125,0.008981362916529179,-0.028183605521917343,-0.02454449236392975
1772794083399104800,2.665104736328125,0.007761371321976185,-0.027049630880355835,-0.02556869201362133
1772794083409149700,2.675149658203125,0.007278806529939175,-0.02634682133793831,-0.020370202139019966
1772794083419194600,2.685194580078125,0.008664979599416256,-0.01892336830496788,-0.019735505804419518
1772794083429238800,2.69523876953125,0.0009751024190336466,-0.009459292516112328,-0.013696256093680859
1772794083439284000,2.705283935546875,-0.0029493235051631927,0.0005773706361651421,-0.007449604570865631
1772794083449328600,2.71532861328125,-0.0008584758616052568,0.007224620785564184,-0.0008761240169405937
1772794083459373800,2.725373779296875,-0.0020486435387283564,0.002283337991684675,0.005886473692953587
1772794083469418800,2.735418701171875,0.0020502274855971336,0.0010620118118822575,0.01575108803808689
1772794083479464000,2.7454638671875,-0.001759430393576622,0.005480722989886999,0.021306021139025688
1772794083489508600,2.755508544921875,-0.004644698929041624,0.004952617455273867,0.027739154174923897
1772794083499553800,2.7655537109375,-0.005820217542350292,0.007799325045198202,0.023958496749401093
1772794083509598700,2.7755986328125,-0.006874296814203262,0.008558325469493866,0.024168353527784348
1772794083519644000,2.785643798828125,-0.007760592736303806,0.008619049564003944,0.018567563965916634
1772794083529688800,2.795688720703125,-0.010336934588849545,0.0059359148144721985,0.010277675464749336
1772794083539733800,2.805733642578125,-0.010757182724773884,0.007543717976659536,0.004371232818812132
1772794083549777700,2.815777587890625,-0.00923199113458395,0.007802310865372419,-0.0036374256014823914
1772794083559822800,2.82582275390625,-0.008732118643820286,0.004846517462283373,-0.01019719336181879
1772794083569867800,2.83586767578125,-0.005787194706499577,-0.0011133705265820026,-0.013935739174485207
1772794083579912700,2.84591259765625,-0.004327516537159681,-0.006024932023137808,-0.01688477396965027
1772794083589957600,2.85595751953125,-0.0035703799221664667,-0.008668651804327965,-0.012368851341307163
1772794083600002800,2.8660029296875,0.0006960037862882018,-0.009747659787535667,-0.008659717626869678
1772794083610047700,2.8760478515625,-0.0009042897145263851,-0.012200163677334785,-0.0052862917073071
1772794083620092700,2.8860927734375,-0.00036819480010308325,-0.01004507951438427,-0.008585182018578053
1772794083630137600,2.8961376953125,-0.0026076468639075756,-0.0063768420368433,-0.008711415342986584
1772794083640182800,2.906182861328125,-0.002106705214828253,-0.004370734095573425,-0.00946766883134842
1772794083650227700,2.916227783203125,-0.006233006715774536,0.00003626430407166481,-0.0067837354727089405
1772794083660273000,2.92627294921875,-0.004086502827703953,0.003374371211975813,-0.010234346613287926
1772794083670317600,2.936317626953125,-0.002575158840045333,-0.001771655399352312,-0.011553676798939705
1772794083680361700,2.94636181640625,-0.0003929617232643068,-0.0007182634435594082,-0.006557866930961609
1772794083690407000,2.956406982421875,0.000053650408517569304,-0.0013888473622500896,0.0009636988397687674
1772794083700451800,2.966451904296875,-0.0005096099339425564,0.0018855072557926178,0.0037035075947642326
1772794083710496800,2.976496826171875,0.00015618035104125738,-0.007935166358947754,0.007711032871156931
1772794083720541700,2.986541748046875,-0.0019322693115100265,-0.0038649484049528837,0.010678526945412159
1772794083730587000,2.9965869140625,0.00011037522926926613,-0.00039058830589056015,0.007386061362922192
1772794083740631800,3.0066318359375,-0.003581561613827944,-0.002915048273280263,0.004017032217234373
1772794083750676700,3.0166767578125,-0.005356292240321636,-0.00846161413937807,0.001326973200775683
1772794083760721700,3.0267216796875,-0.0010270571801811457,-0.008231889456510544,0.0002679507015272975
1772794083770766800,3.036766845703125,0.0019807168282568455,-0.00778607651591301,0.0014506606385111809
1772794083780811800,3.046811767578125,0.0022853799164295197,-0.005276902578771114,0.002562244888395071
1772794083790855700,3.056855712890625,-0.0007237259997054935,-0.004925897810608149,-0.0010452729184180498
1772794083800900600,3.066900634765625,0.0019998892676085234,-0.006702331826090813,-0.003146922681480646
1772794083810945800,3.07694580078125,0.0047096554189920425,-0.0022905394434928894,-0.0013072111178189516
1772794083820990700,3.08699072265625,0.00714564835652709,-0.0017420887015759945,-0.006413140334188938
1772794083831036000,3.097035888671875,0.005676649045199156,-0.0018038740381598473,-0.008579355664551258
1772794083841080600,3.10708056640625,0.008221831172704697,0.0006404812447726727,-0.010104132816195488
1772794083851125800,3.117125732421875,0.012528695166110992,0.005740168038755655,-0.007256680633872747
1772794083861170700,3.127170654296875,0.011549715884029865,0.005556353833526373,-0.005262790247797966
1772794083871215900,3.1372158203125,0.009519321843981743,0.002150970045477152,-0.0037322717253118753
1772794083881260500,3.147260498046875,0.007378675043582916,0.004301368724554777,0.0008788936538621783
1772794083891305700,3.1573056640625,0.007734206505119801,0.008041245862841606,0.004235807806253433
1772794083901350700,3.1673505859375,0.002645437605679035,0.008155440911650658,0.0014014383777976036
1772794083911395800,3.177395751953125,0.002410280518233776,0.005160982720553875,-0.0006923387991264462
1772794083921439700,3.187439697265625,-0.0001530122826807201,0.008605355396866798,-0.0017449369188398123
1772794083931484700,3.197484619140625,-0.0008781910873949528,0.00644712895154953,-0.0005803366075269878
1772794083941529900,3.20752978515625,-0.0014598254347220063,0.0030694417655467987,0.002105461433529854
1772794083951574800,3.21757470703125,-0.00039908839971758425,-0.00020544696599245071,0.003207211149856448
1772794083961620000,3.227619873046875,0.0008648519869893789,0.004774029832333326,0.0039208922535181046
1772794083971664600,3.23766455078125,0.0009852269431576133,0.007894190028309822,0.0037280791439116
1772794083981709800,3.247709716796875,0.005838038399815559,0.0076708560809493065,0.0006951544201001525
1772794083991754800,3.257754638671875,0.0018907012417912483,0.008476728573441505,-0.0020417761988937855
1772794084001800000,3.267800048828125,0.004859855864197016,0.010200748220086098,-0.0028798594139516354
1772794084011844600,3.2778447265625,0.009403209201991558,0.010010598227381706,0.002854725578799844
1772794084021889800,3.287889892578125,0.004958127625286579,0.007369596976786852,0.008056378923356533
1772794084031934700,3.297934814453125,0.004913652315735817,0.005601523909717798,0.015235994942486286
1772794084041979000,3.307978759765625,0.0071110231801867485,0.001344562042504549,0.014705806970596313
1772794084052023600,3.3180234375,0.003243847284466028,0.0020513655617833138,0.009639941155910492
1772794084062068700,3.32806884765625,0.007805842440575361,-0.0009245583787560463,0.0005360419163480401
1772794084072113700,3.33811376953125,0.005858272779732943,-0.004150977823883295,-0.004335678648203611
1772794084082158800,3.348158935546875,0.004600996151566505,-0.006257214117795229,-0.013586682267487049
1772794084092203800,3.358203857421875,0.0015335676725953817,-0.0036172226537019014,-0.023631595075130463
1772794084102248700,3.368248779296875,0.004225227516144514,-0.002577307866886258,-0.02394784241914749
1772794084112293600,3.378293701171875,0.0041107116267085075,-0.002418050542473793,-0.021201590076088905
1772794084122338800,3.3883388671875,-0.0012057581916451454,-0.00604921905323863,-0.011904045939445496
1772794084132383700,3.3983837890625,0.0019037487218156457,-0.0063008880242705345,-0.00636653508991003
1772794084142428700,3.4084287109375,0.003051570849493146,-0.008264596574008465,-0.0037895110435783863
1772794084152472800,3.418472900390625,0.0074804071336984634,-0.0070145088247954845,-0.007336308714002371
1772794084162517800,3.428517822265625,0.005520587787032127,-0.00542950164526701,-0.010651028715074062
1772794084172563000,3.43856298828125,0.0030584954656660557,0.0020848740823566914,-0.014141900464892387
1772794084182607600,3.448607666015625,0.0009865580359473825,0.009782210923731327,-0.012792158871889114
1772794084192652800,3.45865283203125,-0.0015522334724664688,0.009084462188184261,-0.006316415965557098
1772794084202697700,3.46869775390625,-0.0053658802062273026,0.011988372541964054,0.002107695210725069
1772794084212743000,3.478742919921875,-0.004968802444636822,0.011027238331735134,0.009083844721317291
1772794084222787800,3.488787841796875,-0.00006858870619907975,0.011605247855186462,0.01822550967335701
1772794084232832800,3.498832763671875,0.0018994873389601707,0.009203875437378883,0.012125538662075996
1772794084242877700,3.508877685546875,0.002151688328012824,-0.0029893009923398495,0.014788850210607052
1772794084252923000,3.5189228515625,0.0021820482797920704,0.008056426420807838,0.008842543698847294
1772794084262967800,3.5289677734375,0.0012488793581724167,0.015189225785434246,0.009640445932745934
1772794084273011700,3.53901171875,-0.003525103209540248,0.01860979199409485,0.0034006601199507713
1772794084283056600,3.549056640625,-0.0035868913400918245,0.014616057276725769,-0.004045824054628611
1772794084293101800,3.559101806640625,-0.0042718565091490746,0.01161414198577404,-0.0023509880993515253
1772794084303146800,3.569146728515625,-0.0017519769025966525,0.008827883750200272,-0.0030147177167236805
1772794084313191700,3.579191650390625,-0.002907522488385439,0.001731624361127615,-0.0018394648795947433
1772794084323236600,3.589236572265625,-0.002731750253587961,-0.006566458847373724,-0.0021472563967108727
1772794084333282600,3.599282470703125,0.0012502082390710711,-0.007634120061993599,-0.00017598457634449005
1772794084343327200,3.6093271484375,0.0006834891391918063,-0.001302878838032484,0.002178983297199011
1772794084353372400,3.619372314453125,0.0020459622610360384,-0.0028640241362154484,-0.005744453053921461
1772794084363417300,3.629417236328125,0.0013269069604575634,-0.004499473609030247,-0.013653027825057507
1772794084373462500,3.639462646484375,0.002191635314375162,-0.003057638183236122,-0.0146690234541893
1772794084383507500,3.649507568359375,0.00806177593767643,-0.002800056478008628,-0.014351075515151024
1772794084393551400,3.65955126953125,0.005980514921247959,-0.0062834713608026505,-0.01294253021478653
1772794084403596300,3.66959619140625,0.007033798843622208,-0.009511910378932953,-0.014833386987447739
1772794084413641500,3.679641357421875,0.005070516839623451,-0.008550775237381458,-0.015521015040576458
1772794084423686100,3.68968603515625,0.005846028216183186,-0.00424476433545351,-0.01638810895383358
1772794084433731300,3.6997314453125,0.004821776412427425,-0.004687648266553879,-0.011365119367837906
1772794084443776300,3.7097763671875,0.002061678795143962,-0.009132728911936283,-0.010087283328175545
1772794084453821400,3.719821533203125,0.0011972166830673814,-0.00796812865883112,-0.005871499888598919
1772794084463866400,3.729866455078125,0.0075240833684802055,-0.011379430070519447,0.00017753371503204107
1772794084473911300,3.739911376953125,0.007387995719909668,-0.019733233377337456,0.005019426811486483
1772794084483956200,3.749956298828125,0.006201291456818581,-0.027145875617861748,0.0074612791649997234
1772794084494001400,3.76000146484375,0.0030438476242125034,-0.0309430118650198,0.0058521972969174385
1772794084504046300,3.77004638671875,0.0004749643849208951,-0.03106231987476349,0.0020090413745492697
1772794084514090200,3.78009033203125,0.006961093284189701,-0.024650491774082184,-0.012522497214376926
1772794084524135400,3.790135498046875,0.004905396606773138,-0.020524246618151665,-0.03031589463353157
1772794084534180400,3.800180419921875,0.006192502100020647,-0.0122455433011055,-0.04269453138113022
1772794084544225500,3.8102255859375,0.004508585669100285,-0.007927067577838898,-0.051288705319166183
1772794084554270200,3.820270263671875,0.005610335618257523,-0.006647951900959015,-0.049731820821762085
1772794084564315400,3.8303154296875,0.0028893861453980207,-0.00790346972644329,-0.04652014374732971
1772794084574360300,3.8403603515625,0.0021623431239277124,-0.014363499358296394,-0.033008597791194916
1772794084584405500,3.850405517578125,-0.007313184905797243,-0.012392175383865833,-0.011388607323169708
1772794084594450400,3.860450439453125,-0.012905023992061615,-0.002598400693386793,-0.0005301007186062634
1772794084604495400,3.870495361328125,-0.010527887381613255,0.000558455940335989,0.014291487634181976
1772794084614540300,3.880540283203125,-0.007950480096042156,0.0040804860182106495,0.020525414496660233
1772794084624585500,3.89058544921875,-0.011290881782770157,0.009356317110359669,0.02294270135462284
1772794084634629400,3.90062939453125,-0.011446676217019558,0.01224478054791689,0.015627797693014145
1772794084644674300,3.91067431640625,-0.007697213441133499,0.011550547555088997,0.012349894270300865
1772794084654719200,3.92071923828125,-0.002683280035853386,0.01324697956442833,0.007827580906450748
1772794084664764400,3.930764404296875,-0.004357079975306988,0.009345177561044693,0.003825013292953372
1772794084674809300,3.940809326171875,-0.004321127198636532,0.003235353622585535,0.007663161493837833
1772794084684854300,3.950854248046875,-0.00603273743763566,-0.0019592419266700745,0.008259661495685577
1772794084694899200,3.960899169921875,-0.005374403670430183,-0.006688217166811228,0.007750466000288725
1772794084704944400,3.9709443359375,-0.0036659848410636187,-0.010213762521743774,0.0016630967147648335
1772794084714989300,3.9809892578125,-0.0033469381742179394,-0.0140958521515131,-0.0011843551183119416
1772794084725032400,3.991032470703125,0.0028531672433018684,-0.016848495230078697,-0.003823813982307911
1772794084735077400,4.001077392578125,0.0020342417992651463,-0.014721272513270378,-0.009981028735637665
1772794084745122600,4.01112255859375,0.005950426682829857,-0.010183878242969513,-0.01865440607070923
1772794084755167500,4.02116748046875,0.006474536843597889,-0.01010345108807087,-0.02126270718872547
1772794084765212400,4.03121240234375,0.008565643802285194,-0.006885563023388386,-0.0225532129406929
1772794084775256300,4.04125634765625,0.01004449650645256,-0.004298568237572908,-0.019569141790270805
1772794084785301500,4.051301513671875,0.010653568431735039,-0.004579576663672924,-0.017479652538895607
1772794084795346200,4.06134619140625,0.01414896734058857,-0.00047111790627241135,-0.017209608107805252
1772794084805391400,4.071391357421875,0.013995829969644547,0.0033052917569875717,-0.016358915716409683
1772794084815436300,4.081436279296875,0.014381189830601215,0.005176428705453873,-0.01838931068778038
1772794084825481500,4.0914814453125,0.01552688516676426,0.004311278462409973,-0.016534965485334396
1772794084835526400,4.1015263671875,0.012064509093761444,-0.0007985285483300686,-0.010705572552978992
1772794084845571300,4.1115712890625,0.015534073114395142,-0.006738124415278435,-0.006209707353264093
1772794084855616300,4.1216162109375,0.015734609216451645,-0.006742652039974928,-0.006321293767541647
1772794084865661400,4.131661376953125,0.015001442283391953,-0.006092201918363571,-0.006965097039937973
1772794084875706400,4.141706298828125,0.018505629152059555,-0.0025520618073642254,-0.015718374401330948
1772794084885751600,4.15175146484375,0.02111073210835457,-0.002391367219388485,-0.021596353501081467
1772794084895795500,4.16179541015625,0.0208745114505291,0.0022292169742286205,-0.031038591638207436
1772794084905840400,4.17184033203125,0.022525666281580925,0.0023688157089054585,-0.03335088491439819
1772794084915885600,4.181885498046875,0.02183058112859726,0.006013618316501379,-0.0353623703122139
1772794084925930200,4.19193017578125,0.021815406158566475,0.0020615989342331886,-0.031228890642523766
1772794084935975400,4.201975341796875,0.021137364208698273,-0.003883109660819173,-0.024741696193814278
1772794084946020400,4.212020263671875,0.01806567795574665,-0.007567589171230793,-0.014925181865692139
1772794084956065500,4.2220654296875,0.01980765163898468,-0.01131465658545494,-0.009626024402678013
1772794084966110500,4.2321103515625,0.0144698740914464,-0.008955581113696098,-0.0034170513972640038
1772794084976155400,4.2421552734375,0.008831429295241833,-0.0004254761151969433,-0.0030383500270545483
1772794084986200300,4.252200439453125,0.008432754315435886,0.0009469049982726574,-0.0013296984834596515
1772794084996245500,4.26224560546875,0.007954983972012997,0.0030473400838673115,-0.002818938111886382
1772794085006289400,4.272289306640625,0.0076615046709775925,0.0003276681527495384,-0.007974467240273952
1772794085016334300,4.282334228515625,0.0062614805065095425,-0.0015469309873878956,-0.01138970535248518
1772794085026379300,4.292379150390625,0.00691848061978817,0.0008522025309503078,-0.006166382227092981
1772794085036424400,4.302424560546875,0.003269950160756707,0.0034429258666932583,-0.0053280191496014595
1772794085046469400,4.312469482421875,0.00020811083959415555,0.0073664491064846516,0.001441484084352851
1772794085056514300,4.322514404296875,-0.0022731563076376915,0.013333261013031006,0.007993659004569054
1772794085066559200,4.332559326171875,-0.005446576047688723,0.010531621053814888,0.0070400843396782875
1772794085076604400,4.3426044921875,-0.0028188349679112434,0.007062321994453669,0.008856892585754395
1772794085086649300,4.3526494140625,-0.0029679718427360058,0.00008084485307335854,0.004287174437195063
1772794085096694500,4.362694580078125,0.0000943971099331975,-0.0025895065627992153,0.001328668906353414
1772794085106739200,4.3727392578125,-0.0022683602292090654,-0.0031738581601530313,-0.0037792413495481014
1772794085116784400,4.382784423828125,-0.002356244483962655,-0.005604525096714497,-0.00541255809366703
1772794085126829300,4.392829345703125,-0.00812465138733387,-0.009405761025846004,-0.0066880956292152405
1772794085136873500,4.40287353515625,-0.009221873246133327,-0.014083603397011757,-0.005815910175442696
1772794085146918400,4.41291845703125,-0.010738542303442955,-0.019184354692697525,-0.00529094971716404
1772794085156963300,4.42296337890625,-0.008235969580709934,-0.024663273245096207,-0.011473744176328182
1772794085167008500,4.433008544921875,-0.0025320108979940414,-0.02233833447098732,-0.01362611074000597
1772794085177053400,4.443053466796875,-0.001577800139784813,-0.02064456418156624,-0.017661599442362785
1772794085187098400,4.453098388671875,-0.0011120111448690295,-0.01590093970298767,-0.023441938683390617
1772794085197143300,4.463143310546875,-0.006209567654877901,-0.016175245866179466,-0.02922099642455578
1772794085207188500,4.4731884765625,-0.007440485991537571,-0.018131718039512634,-0.029726771637797356
1772794085217233400,4.4832333984375,-0.004908619448542595,-0.019292589277029037,-0.02494772896170616
1772794085227278600,4.493278564453125,-0.003272369969636202,-0.017293402925133705,-0.021578161045908928
1772794085237323300,4.5033232421875,-0.003826840315014124,-0.01594397984445095,-0.02079758793115616
1772794085247367400,4.513367431640625,-0.003443080699071288,-0.012567520141601562,-0.023355456069111824
1772794085257412400,4.523412353515625,-0.003726174822077155,-0.01122608594596386,-0.03198330104351044
1772794085267457500,4.53345751953125,-0.009399501606822014,-0.01816297508776188,-0.04605540633201599
1772794085277502200,4.543502197265625,-0.011801673099398613,-0.01064353995025158,-0.05771126225590706
1772794085287547400,4.55354736328125,-0.005169069394469261,-0.004424632526934147,-0.06353387981653214
1772794085297592300,4.56359228515625,-0.0039520044811069965,-0.005576715804636478,-0.06622127443552017
1772794085307637500,4.573637451171875,-0.006647924892604351,-0.005472215823829174,-0.06037580594420433
1772794085317682200,4.58368212890625,-0.0014409128343686461,0.002366533037275076,-0.048189714550971985
1772794085327727400,4.593727294921875,0.0032406554091721773,-0.0014687422662973404,-0.034877121448516846
1772794085337772800,4.603772705078125,0.0033722154330462217,-0.006186265964061022,-0.02761867828667164
1772794085347818000,4.61381787109375,0.005003669299185276,-0.002233333420008421,-0.008835883811116219
1772794085357862700,4.623862548828125,0.0034363993909209967,0.0032352013513445854,-0.0020008801948279142
1772794085367906800,4.63390673828125,-0.0012267946731299162,0.004856056068092585,0.008823505602777004
1772794085377951700,4.64395166015625,-0.005136314779520035,0.006047820206731558,0.012338078580796719
1772794085387997000,4.653996826171875,-0.0055954414419829845,0.0047749909572303295,0.014190742745995522
1772794085398041600,4.66404150390625,-0.006520357448607683,0.007122833747416735,0.01490686647593975
1772794085408086800,4.674086669921875,-0.003730163909494877,0.005933305714279413,0.014396486803889275
1772794085418131700,4.684131591796875,-0.001086177653633058,0.0028664101846516132,0.019022930413484573
1772794085428177000,4.694177001953125,-0.003704326692968607,-0.00001741712912917137,0.01771716959774494
1772794085438221800,4.704221923828125,-0.0037354857195168734,0.0021573202684521675,0.02150019071996212
1772794085448266800,4.714266845703125,0.0014467500150203705,0.0004676422104239464,0.026692230254411697
1772794085458311700,4.724311767578125,0.00016310630599036813,-0.002470357110723853,0.02485225349664688
1772794085468356900,4.73435693359375,0.0038443938829004765,-0.00719011714681983,0.017715098336338997
1772794085478401800,4.74440185546875,0.002445968333631754,-0.008042861707508564,0.004942578263580799
1772794085488445700,4.75444580078125,0.008314777165651321,-0.0087099839001894,-0.008690143004059792
1772794085498491000,4.764490966796875,0.007316090632230043,-0.007850315421819687,-0.01993560791015625
1772794085508535800,4.774535888671875,0.006267341319471598,-0.010747350752353668,-0.02662692964076996
1772794085518581000,4.7845810546875,0.007566964253783226,-0.008341982960700989,-0.027313493192195892
1772794085528625700,4.794625732421875,0.01192416064441204,-0.007036023773252964,-0.021221213042736053
1772794085538670800,4.8046708984375,0.0077411336824297905,-0.005455171223729849,-0.023954948410391808
1772794085548715800,4.8147158203125,0.013260535895824432,-0.0032991827465593815,-0.022245613858103752
1772794085558761000,4.824760986328125,0.018391914665699005,-0.0037806823384016752,-0.017089201137423515
1772794085568806000,4.834805908203125,0.016799073666334152,-0.006577752530574799,-0.014714914374053478
1772794085578850800,4.844850830078125,0.010159012861549854,-0.009184987284243107,-0.005602642428129911
1772794085588895700,4.854895751953125,0.008321440778672695,-0.0066091157495975494,0.0027619879692792892
1772794085598941000,4.86494091796875,0.004435889422893524,-0.005902579054236412,0.012196502648293972
1772794085608984800,4.87498486328125,-0.000596162280999124,-0.01286318525671959,0.02067088894546032
1772794085619029800,4.88502978515625,-0.009510028176009655,-0.030300231650471687,0.036467693746089935
1772794085629074700,4.89507470703125,-0.01143362745642662,-0.04441428929567337,0.04527200758457184
1772794085639120000,4.905119873046875,-0.006932619493454695,-0.04220093786716461,0.04473431408405304
1772794085649164800,4.915164794921875,-0.00559304840862751,-0.035849351435899734,0.032811425626277924
1772794085659209700,4.925209716796875,-0.010158238932490349,-0.02540789544582367,0.014236679300665855
1772794085669254700,4.935254638671875,-0.01076863519847393,-0.014239716343581676,-0.0088246650993824
1772794085679299800,4.9452998046875,-0.009538255631923676,-0.006642783526331186,-0.023056864738464355
1772794085689344800,4.9553447265625,-0.007318776100873947,-0.00888255424797535,-0.024963069707155228
1772794085699390000,4.965389892578125,-0.004044951871037483,-0.010737445205450058,-0.013580987229943275
1772794085709434600,4.9754345703125,0.002168742474168539,-0.01552074309438467,0.011953823268413544
1772794085719479800,4.985479736328125,0.006985601969063282,-0.01903744786977768,0.025724496692419052
1772794085729524000,4.99552392578125,0.010769414715468884,-0.02370496094226837,0.03208645060658455
1772794085739568600,5.005568603515625,0.01300380751490593,-0.02370549365878105,0.024307889863848686
1772794085749613800,5.01561376953125,0.010995781049132347,-0.022809291258454323,0.009847588837146759
1772794085759658800,5.02565869140625,0.009528911672532558,-0.019204169511795044,-0.015982143580913544
1772794085769704000,5.035703857421875,0.005228438414633274,-0.01383822038769722,-0.030827635899186134
1772794085779748900,5.045748779296875,0.0016656613443046808,-0.008287926204502583,-0.04291972145438194
1772794085789793800,5.055793701171875,0.0007673779036849737,-0.011674081906676292,-0.04460207000374794
1772794085799838700,5.065838623046875,-0.004021518398076296,-0.010187771171331406,-0.043371424078941345
1772794085809884000,5.0758837890625,-0.007608524989336729,-0.012948878109455109,-0.029172711074352264
1772794085819928800,5.0859287109375,-0.014512503519654274,-0.017318060621619225,-0.01837226003408432
1772794085829974000,5.09597412109375,-0.020732324570417404,-0.018087562173604965,-0.0058752004988491535
1772794085840018700,5.106018798828125,-0.024997375905513763,-0.01565636321902275,0.004096739459782839
1772794085850062800,5.116062744140625,-0.021448437124490738,-0.014255529269576073,0.010697642341256142
1772794085860107800,5.126107666015625,-0.021360553801059723,-0.009411239065229893,0.0091218501329422
1772794085870152700,5.136152587890625,-0.012256014160811901,-0.006917944643646479,0.006555337458848953
1772794085880198000,5.146197998046875,-0.011334559880197048,-0.0034861951135098934,0.003508148482069373
1772794085890242800,5.156242919921875,-0.01014332752674818,-0.0030724979005753994,-0.00039664376527071
1772794085900287700,5.166287841796875,-0.012773199006915092,-0.0036980744916945696,0.00301779480651021
1772794085910333000,5.1763330078125,-0.013468284159898758,-0.006778552662581205,0.005973637569695711
1772794085920377900,5.1863779296875,-0.01356602180749178,-0.005309819243848324,0.002744820900261402
1772794085930422800,5.1964228515625,-0.012129776179790497,0.0010570562444627285,-0.0016461799386888742
1772794085940467700,5.2064677734375,-0.010233871638774872,0.0014866241253912449,-0.006302716676145792
1772794085950513000,5.216512939453125,-0.0032545265275985003,0.0037233587354421616,-0.007627606857568026
1772794085960556800,5.226556884765625,0.00006670173024758697,0.0057982271537184715,-0.010286507196724415
1772794085970601700,5.236601806640625,0.001211328781209886,0.005328605882823467,-0.008856273256242275
1772794085980647000,5.24664697265625,0.003676616819575429,0.006924372166395187,-0.005610411986708641
1772794085990691800,5.25669189453125,0.0011135907843708992,0.004342171363532543,0.0022291350178420544
1772794086000736800,5.26673681640625,-0.0015831261407583952,0.00453365221619606,0.008171978406608105
1772794086010781700,5.27678173828125,-0.0034963320940732956,0.004398850258439779,0.014476454816758633
1772794086020827000,5.286826904296875,-0.006803978234529495,0.0017623207531869411,0.019379332661628723
1772794086030871800,5.296871826171875,-0.0054444363340735435,-0.00342242862097919,0.016317294910550117
1772794086040917000,5.3069169921875,-0.007687350735068321,-0.002245311625301838,0.020930955186486244
1772794086050961700,5.316961669921875,-0.012436571530997753,-0.0011075064539909363,0.01873362809419632
1772794086061006800,5.3270068359375,-0.01816183514893055,-0.002165580168366432,0.01741722784936428
1772794086071051800,5.3370517578125,-0.021251637488603592,-0.001582510769367218,0.012078751809895039
1772794086081096000,5.347095947265625,-0.01847662404179573,-0.004625705070793629,0.013839634135365486
1772794086091140900,5.357140869140625,-0.020133638754487038,-0.006560381501913071,0.014291558414697647
1772794086101185800,5.367185791015625,-0.02038770355284214,-0.01043874304741621,0.014646824449300766
1772794086111231000,5.37723095703125,-0.02561229281127453,-0.009206445887684822,0.01260116696357727
1772794086121276000,5.38727587890625,-0.023951280862092972,-0.009202450513839722,0.010006449185311794
1772794086131320800,5.39732080078125,-0.02251637540757656,-0.010222872719168663,0.01180918887257576
1772794086141365800,5.40736572265625,-0.023244749754667282,-0.00987932551652193,0.0034569830168038607
1772794086151411000,5.417410888671875,-0.019179431721568108,-0.010276294313371181,-0.002310956595465541
1772794086161455900,5.427455810546875,-0.02117200940847397,-0.011579113081097603,-0.009014932438731194
1772794086171500800,5.437500732421875,-0.01979861781001091,-0.005265665240585804,-0.014703111723065376
1772794086181545700,5.447545654296875,-0.018281947821378708,0.004684970248490572,-0.01766960695385933
1772794086191591000,5.4575908203125,-0.019153334200382233,0.008824320510029793,-0.0190065149217844
1772794086201634800,5.467634765625,-0.021277738735079765,0.011283483356237411,-0.017277855426073074
1772794086211680000,5.477679931640625,-0.02244286984205246,0.011968717910349369,-0.018655991181731224
1772794086221724700,5.487724609375,-0.01883295550942421,0.005968616344034672,-0.017026934772729874
1772794086231769900,5.497769775390625,-0.016456877812743187,0.0013543730601668358,-0.016499759629368782
1772794086241814800,5.507814697265625,-0.018139196559786797,0.000753830187022686,-0.010695932433009148
1772794086251860000,5.51785986328125,-0.023018645122647285,0.001634693704545498,-0.003257177770137787
1772794086261904600,5.527904541015625,-0.029039518907666206,0.0034064948558807373,-0.001460076542571187
1772794086271949800,5.53794970703125,-0.0309830941259861,0.001315220259130001,0.0027012620121240616
1772794086281994800,5.547994873046875,-0.031009193509817123,-0.0023250547237694263,-0.0007693693623878062
1772794086292040000,5.5580400390625,-0.029530873522162437,-0.007211101707071066,-0.0032962094992399216
1772794086302084900,5.5680849609375,-0.02641098015010357,-0.014375004917383194,-0.007403070107102394
1772794086312128800,5.578128662109375,-0.018602857366204262,-0.022279106080532074,-0.007335308939218521
1772794086322174000,5.588174072265625,-0.010944138281047344,-0.02455317974090576,-0.007799231447279453
1772794086332218600,5.598218505859375,-0.0028111140709370375,-0.015570076182484627,-0.002303635235875845
1772794086342263800,5.608263916015625,-0.00034742377465590835,-0.025897283107042313,0.0058440398424863815
1772794086352308700,5.618308837890625,-0.0044161975383758545,-0.03349101543426514,0.01943878084421158
1772794086362354000,5.62835400390625,-0.01287519559264183,-0.023137975484132767,0.024107834324240685
1772794086372398600,5.638398681640625,-0.018697397783398628,-0.03670646250247955,0.02532247081398964
1772794086382443800,5.64844384765625,-0.021613292396068573,-0.03830515593290329,0.02176635153591633
1772794086392488700,5.65848876953125,-0.024100422859191895,-0.027170751243829727,0.009439274668693542
1772794086402534000,5.668533935546875,-0.02815668284893036,-0.03007466346025467,-0.0005518407560884953
1772794086412578800,5.678578857421875,-0.024682320654392242,-0.029773827642202377,-0.007193063385784626
1772794086422623700,5.688623779296875,-0.025481803342700005,-0.013493126258254051,-0.011015765368938446
1772794086432667600,5.698667724609375,-0.020281970500946045,-0.016691895201802254,-0.003893433604389429
1772794086442712800,5.708712890625,-0.017712023109197617,-0.010399377904832363,0.004275280516594648
1772794086452757500,5.718757568359375,-0.01786888763308525,-0.003659722628071904,0.02003704383969307
1772794086462802700,5.728802734375,-0.01667019911110401,0.007682946510612965,0.03683146834373474
1772794086472847600,5.73884765625,-0.016162868589162827,0.01557591650635004,0.048049088567495346
1772794086482892800,5.748892822265625,-0.019287554547190666,0.013542327098548412,0.06203148141503334
1772794086492937700,5.758937744140625,-0.01972617767751217,0.004002458415925503,0.06388439238071442
1772794086502982700,5.768982666015625,-0.01913681998848915,-0.0020847292616963387,0.05986887961626053
1772794086513027600,5.779027587890625,-0.016285907477140427,-0.007636357098817825,0.06133117154240608
1772794086523072800,5.78907275390625,-0.0179932601749897,-0.00773808965459466,0.057615526020526886
1772794086533117700,5.79911767578125,-0.014897597953677177,-0.00916340947151184,0.0590239092707634
1772794086543161600,5.80916162109375,-0.008802421391010284,-0.02973020449280739,0.05337774008512497
1772794086553206800,5.819206787109375,-0.004692899063229561,-0.04246235266327858,0.04787757992744446
1772794086563251700,5.829251708984375,-0.000802553549874574,-0.046648040413856506,0.0480743870139122
1772794086573297000,5.839296875,0.0033059041015803814,-0.03734700754284859,0.057450611144304276
1772794086583341600,5.849341552734375,0.005209797993302345,-0.03568333014845848,0.07105164229869843
1772794086593386800,5.85938671875,0.0065541621297597885,-0.05383990705013275,0.08074337989091873
1772794086603431700,5.869431640625,0.005538965575397015,-0.06488990038633347,0.08759063482284546
1772794086613476900,5.879476806640625,-0.009879405610263348,-0.06101084500551224,0.09250668436288834
1772794086623521800,5.889521728515625,-0.018995139747858047,-0.058341555297374725,0.08665917813777924
1772794086633566700,5.899566650390625,-0.033489663153886795,-0.049668118357658386,0.08295783400535583
1772794086643611600,5.909611572265625,-0.031320516020059586,-0.04113854840397835,0.07360188663005829
1772794086653656800,5.91965673828125,-0.029275208711624146,-0.032995399087667465,0.06959515810012817
1772794086663700700,5.92970068359375,-0.03211973235011101,-0.03333389014005661,0.0640840157866478
1772794086673745700,5.93974560546875,-0.02412145584821701,-0.025221416726708412,0.06201567128300667
1772794086683790600,5.94979052734375,-0.017533594742417336,-0.019156334921717644,0.05957142263650894
1772794086693835800,5.959835693359375,-0.013926077634096146,-0.015154083259403706,0.05801898241043091
1772794086703880700,5.969880615234375,-0.01929634064435959,-0.018142148852348328,0.05675531178712845
1772794086713925600,5.979925537109375,-0.027213385328650475,-0.028490979224443436,0.056828100234270096
1772794086723970600,5.989970458984375,-0.034867044538259506,-0.0346551351249218,0.04718346148729324
1772794086734015700,6.000015625,-0.03261054679751396,-0.02816900424659252,0.037330031394958496
1772794086744060700,6.010060791015625,-0.028117263689637184,-0.025850722566246986,0.023669879883527756
1772794086754105900,6.02010595703125,-0.01731548272073269,-0.024248193949460983,0.0070076449774205685
1772794086764150500,6.030150634765625,-0.020361607894301414,-0.024137672036886215,-0.007559579331427813
1772794086774195700,6.04019580078125,-0.017757831141352654,-0.025145409628748894,-0.012021603062748909
1772794086784239900,6.050239990234375,-0.018911778926849365,-0.026996305212378502,-0.012096970342099667
1772794086794284800,6.060284912109375,-0.018502717837691307,-0.030156200751662254,-0.01113500352948904
1772794086804329700,6.070329833984375,-0.014009698294103146,-0.03283480927348137,-0.006061415188014507
1772794086814374700,6.080374755859375,-0.00691051222383976,-0.030574051663279533,0.0012497088173404336
1772794086824419800,6.090419921875,-0.004306473303586245,-0.03626815602183342,0.007132898084819317
1772794086834464800,6.10046484375,-0.0014137453399598598,-0.033231884241104126,0.007807794492691755
1772794086844509700,6.110509765625,0.0007791013922542334,-0.02730581909418106,0.016375450417399406
1772794086854554600,6.1205546875,0.005386363714933395,-0.017524568364024162,0.021320519968867302
1772794086864599800,6.130599853515625,0.005580774508416653,-0.014958079904317856,0.02677573822438717
1772794086874644700,6.140644775390625,0.0022065509110689163,-0.017555352300405502,0.03180025890469551
1772794086884690000,6.15068994140625,0.0022899080067873,-0.020261656492948532,0.04481006786227226
1772794086894733600,6.160733642578125,0.004001257009804249,-0.019884711131453514,0.04667208343744278
1772794086904778800,6.17077880859375,0.010235183872282505,-0.015489961951971054,0.05276725813746452
1772794086914823700,6.18082373046875,0.009415463544428349,-0.011661509051918983,0.0521513894200325
1772794086924868900,6.190868896484375,0.013703686185181141,-0.004786025732755661,0.04855186119675636
1772794086934913500,6.20091357421875,0.011285007931292057,0.00032581016421318054,0.04404574632644653
1772794086944958700,6.210958740234375,0.012018175795674324,-0.002177294809371233,0.027611644938588142
1772794086955003600,6.221003662109375,0.008822109550237656,-0.004838970489799976,0.019175510853528976
1772794086965048800,6.231048828125,0.008990688249468803,-0.009261148981750011,0.0018111683893948793
1772794086975093500,6.241093505859375,0.008073762059211731,-0.006819775328040123,-0.004732250701636076
1772794086985138700,6.251138671875,0.01047699898481369,-0.005890598054975271,-0.010667105205357075
1772794086995183600,6.26118359375,0.01567443273961544,-0.0014718221500515938,-0.015449753031134605
1772794087005228800,6.271228759765625,0.01983588933944702,0.0032909750007092953,-0.020730003714561462
1772794087015272700,6.281272705078125,0.018335189670324326,0.0033855121582746506,-0.028885290026664734
1772794087025317600,6.291317626953125,0.0191985871642828,0.00248057022690773,-0.044663455337285995
1772794087035362800,6.30136279296875,0.02245243452489376,0.004905483685433865,-0.0568387433886528
1772794087045407700,6.31140771484375,0.03020649589598179,0.0073300255462527275,-0.06282153725624084
1772794087055453000,6.321452880859375,0.02828342281281948,0.012307042255997658,-0.06282734870910645
1772794087065497600,6.33149755859375,0.02762748673558235,0.012975228950381279,-0.05634681135416031
1772794087075542800,6.341542724609375,0.02853376604616642,0.014097599312663078,-0.05037862807512283
1772794087085587700,6.351587646484375,0.02697022445499897,0.010704997926950455,-0.042328160256147385
1772794087095633000,6.3616328125,0.02540455386042595,0.005214944947510958,-0.03162015601992607
1772794087105677600,6.371677490234375,0.023699598386883736,0.012570863589644432,-0.023508166894316673
1772794087115722800,6.38172265625,0.025147290900349617,0.01175145898014307,-0.011188734322786331
1772794087125766700,6.3917666015625,0.025126516819000244,0.006144972518086433,-0.008666721172630787
1772794087135811800,6.401811767578125,0.021021787077188492,0.005602541845291853,-0.00047806580550968647
1772794087145856500,6.4118564453125,0.021630052477121353,0.003920488525182009,0.0022950838319957256
1772794087155901700,6.421901611328125,0.01872081309556961,0.006048244424164295,-0.0011305267689749599
1772794087165946600,6.431946533203125,0.016457125544548035,0.009825139306485653,-0.0066978647373616695
1772794087175991800,6.44199169921875,0.015789741650223732,0.009903918951749802,-0.019995158538222313
1772794087186036500,6.452036376953125,0.010809097439050674,0.010225363075733185,-0.030120763927698135
1772794087196081700,6.46208154296875,0.011789669282734394,0.012194127775728703,-0.03950732946395874
1772794087206126600,6.472126708984375,0.014066139236092567,0.018094893544912338,-0.04718788340687752
1772794087216171800,6.482171875,0.015115693211555481,0.014543037861585617,-0.04848000034689903
1772794087226216700,6.492216796875,0.010708427987992764,0.009234558790922165,-0.047530580312013626
1772794087236260600,6.502260498046875,0.009641029872000217,0.004690616857260466,-0.043717216700315475
1772794087246305800,6.512305908203125,0.009153937920928001,0.008545808494091034,-0.03808436542749405
1772794087256350700,6.522350830078125,0.009169919416308403,0.0030204448848962784,-0.028849953785538673
1772794087266396000,6.53239599609375,0.010065807029604912,0.00016580196097493172,-0.015971174463629723
1772794087276440600,6.542440673828125,0.010812290944159031,-0.0026398380286991596,-0.011340203694999218
1772794087286485800,6.55248583984375,0.013978789560496807,-0.003477934980764985,-0.01595626026391983
1772794087296530700,6.56253076171875,0.018821751698851585,-0.001997267361730337,-0.015123886987566948
1772794087306576000,6.572575927734375,0.021820204332470894,0.006440425757318735,-0.024474244564771652
1772794087316620500,6.58262060546875,0.02039407566189766,0.015139423310756683,-0.026345036923885345
1772794087326665700,6.592665771484375,0.014460020698606968,0.016291772946715355,-0.0289557334035635
1772794087336710100,6.602710205078125,0.014254160225391388,0.017789535224437714,-0.026465892791748047
1772794087346755000,6.612755126953125,0.014625138603150845,0.018278758972883224,-0.023444801568984985
1772794087356799200,6.62279931640625,0.017369262874126434,0.019427331164479256,-0.01264235284179449
1772794087366844200,6.63284423828125,0.01890297792851925,0.014379309490323067,-0.006548507604748011
1772794087376889300,6.642889404296875,0.020439885556697845,0.007724227383732796,-0.0028474475257098675
1772794087386934000,6.65293408203125,0.01584300398826599,0.007367896847426891,0.006093583069741726
1772794087396979200,6.662979248046875,0.005862272344529629,0.00700831413269043,0.0036197537556290627
1772794087407024000,6.673024169921875,0.00733020668849349,0.00478590652346611,0.003014683723449707
1772794087417069300,6.6830693359375,0.007855385541915894,0.011227083392441273,-0.0015014860546216369
1772794087427114000,6.693114013671875,0.006799707654863596,0.014738994650542736,-0.004632297903299332
1772794087437159200,6.7031591796875,0.002480596536770463,0.022767681628465652,0.007302410900592804
1772794087447204000,6.7132041015625,-0.002225741744041443,0.003428338561207056,0.007553547620773315
1772794087457249300,6.723249267578125,0.0038204314187169075,-0.00521782785654068,0.001872673979960382
1772794087467293000,6.73329296875,0.010760629549622536,0.0016123815439641476,-0.0010727820917963982
1772794087477338000,6.743338134765625,0.010220542550086975,0.005967556498944759,-0.008030622266232967
1772794087487383000,6.753383056640625,0.009623994119465351,0.008845634758472443,-0.011365432292222977
1772794087497428200,6.76342822265625,0.012025096453726292,0.01458106841892004,-0.011888346634805202
1772794087507473200,6.77347314453125,0.009202412329614162,0.014333927072584629,-0.019033074378967285
1772794087517518000,6.78351806640625,0.011095653288066387,0.020267611369490623,-0.02485915645956993
1772794087527563000,6.79356298828125,0.008940623141825199,0.021192260086536407,-0.04062426835298538
1772794087537608200,6.803608154296875,-0.0016955094179138541,0.012508224695920944,-0.04370101913809776
1772794087547653000,6.813653076171875,-0.005258552730083466,0.019189296290278435,-0.02997269295156002
1772794087557698000,6.823697998046875,-0.012202474288642406,0.03303384780883789,-0.01646568439900875
1772794087567743000,6.833742919921875,-0.010743062011897564,0.017823204398155212,-0.02740595117211342
1772794087577788200,6.8437880859375,0.007025820668786764,0.002428540028631687,-0.04877398535609245
1772794087587832300,6.853832275390625,0.029191309586167336,-0.004227498546242714,-0.0698382556438446
1772794087597877000,6.863876953125,0.0327194519340992,0.002427834551781416,-0.07851153612136841
1772794087607922200,6.873922119140625,0.027540400624275208,0.014608068391680717,-0.0719447135925293
1772794087617967000,6.883967041015625,0.012645085342228413,0.02557273581624031,-0.04878394305706024
1772794087628012300,6.89401220703125,-0.0014052202459424734,0.02901540696620941,-0.01923324167728424
1772794087638057200,6.90405712890625,-0.006719035562127829,0.030339572578668594,0.0015271396841853857
1772794087648102100,6.91410205078125,-0.00785221066325903,0.02789905294775963,0.011958208866417408
1772794087658147000,6.92414697265625,-0.012547359801828861,0.023587770760059357,0.014568093232810497
1772794087668192300,6.934192138671875,-0.012864009477198124,0.012890652753412724,0.005815880838781595
1772794087678237200,6.9442373046875,-0.005937923211604357,0.0035976613871753216,-0.005555830895900726
1772794087688282000,6.9542822265625,0.004337884020060301,-0.004747619852423668,-0.015386623330414295
1772794087698326000,6.964325927734375,0.015668567270040512,-0.009513294324278831,-0.024834005162119865
1772794087708371200,6.97437109375,0.016094939783215523,-0.0037395611871033907,-0.02623589336872101
1772794087718416100,6.984416015625,0.006315283942967653,0.0030144313350319862,-0.027077583596110344
1772794087728461000,6.9944609375,0.003136801067739725,0.008620918728411198,-0.02295074798166752
1772794087738506000,7.004506103515625,0.003778350306674838,0.015429604798555374,-0.02529851347208023
1772794087748551200,7.01455126953125,0.0056228553876280785,0.010603424161672592,-0.028049558401107788
1772794087758596000,7.02459619140625,0.0033005853183567524,0.005073054693639278,-0.033396732062101364
1772794087768641300,7.034641357421875,0.001279778778553009,0.009314937517046928,-0.03645031154155731
1772794087778686000,7.04468603515625,0.0035503876861184835,0.007442894391715527,-0.03646862134337425
1772794087788731100,7.054731201171875,0.007650057785212994,0.0044263312593102455,-0.03775972127914429
1772794087798776000,7.064776123046875,0.012803270481526852,0.008753592148423195,-0.03939063102006912
1772794087808820000,7.074820068359375,0.01198301650583744,0.01522081345319748,-0.034775637090206146
1772794087818865200,7.084865234375,0.01346453744918108,0.00995984859764576,-0.03165628761053085
1772794087828910000,7.09491015625,0.009907087311148643,0.006891353987157345,-0.023360010236501694
1772794087838955300,7.104955322265625,0.009350224398076534,0.0028177318163216114,-0.014109117910265923
1772794087849000200,7.115000244140625,0.007850331254303455,0.009544610977172852,-0.005470888689160347
1772794087859045000,7.125045166015625,0.0005111992359161377,0.009509620256721973,0.004597679246217012
1772794087869090000,7.135090087890625,-0.007544330321252346,0.011722174473106861,0.014260426163673401
1772794087879135200,7.14513525390625,-0.017082180827856064,0.014169244095683098,0.024544768035411835
1772794087889180200,7.15518017578125,-0.02398243173956871,0.015765275806188583,0.03394492715597153
1772794087899225300,7.165225341796875,-0.024041032418608665,0.01167097594588995,0.04102038964629173
1772794087909270000,7.17527001953125,-0.023388557136058807,0.01789025589823723,0.04709719121456146
1772794087919314200,7.185314208984375,-0.029923954978585243,0.035025034099817276,0.05315401777625084
1772794087929359000,7.195359130859375,-0.03555680811405182,0.03478934243321419,0.05303124710917473
1772794087939404000,7.205404052734375,-0.03193969279527664,0.017362425103783607,0.06481380760669708
1772794087949449000,7.215448974609375,-0.02295658364892006,0.0012580244801938534,0.0843462273478508
1772794087959494100,7.225494140625,-0.011498869396746159,-0.012937000021338463,0.10380356758832932
1772794087969539000,7.2355390625,-0.015150063671171665,-0.008557431399822235,0.10951977223157883
1772794087979584300,7.245584228515625,-0.021436184644699097,-0.007044966332614422,0.09963973611593246
1772794087989629000,7.25562890625,-0.024024244397878647,-0.006275046616792679,0.07888811826705933
1772794087999674000,7.265674072265625,-0.025220273062586784,0.009918516501784325,0.04948525130748749
1772794088009719000,7.275718994140625,-0.024393094703555107,0.02475045993924141,0.02050286903977394
1772794088019764200,7.28576416015625,-0.0176161490380764,0.023314429447054863,-0.010093090124428272
1772794088029809200,7.29580908203125,-0.012599286623299122,0.018621940165758133,-0.02498122677206993
1772794088039853000,7.30585302734375,-0.012086632661521435,0.019215287640690804,-0.023715263232588768
1772794088049898200,7.315898193359375,-0.012323654256761074,0.023334398865699768,-0.017874153330922127
1772794088059943200,7.325943115234375,-0.004705146886408329,0.019315319135785103,-0.013702407479286194
1772794088069988000,7.335988037109375,0.014151099137961864,0.027032891288399696,-0.012414236553013325
1772794088080033000,7.346032958984375,0.0346052385866642,0.06654652953147888,-0.016154464334249496
1772794088090078200,7.356078125,-0.013600904494524002,0.07681781053543091,0.04272296652197838
1772794088100123100,7.366123046875,-0.05028568580746651,-0.08299524337053299,-0.011631486937403679
1772794088110168300,7.376168212890625,-0.015600675716996193,-0.08296621590852737,-0.06522813439369202
1772794088120213000,7.386212890625,0.02781844139099121,-0.04808390885591507,-0.09957665205001831
1772794088130258200,7.396258056640625,0.03160279244184494,-0.04966955631971359,-0.1153566837310791
1772794088140303000,7.40630322265625,0.024331828579306602,-0.04072250798344612,-0.11487431824207306
1772794088150347300,7.41634716796875,-0.0002110654895659536,-0.04352255538105965,-0.09746231138706207
1772794088160392000,7.426391845703125,-0.05222685635089874,-0.03355300799012184,-0.05518664792180061
1772794088170437000,7.43643701171875,-0.11578399688005447,-0.025618385523557663,-0.000511153950355947
1772794088180482000,7.44648193359375,-0.14255833625793457,0.017724722623825073,0.04966030642390251
1772794088190527200,7.45652734375,-0.12161099165678024,0.0643785148859024,0.08729769289493561
1772794088200572000,7.466572021484375,-0.07676149159669876,0.037785567343235016,0.07490453869104385
1772794088210617000,7.4766171875,-0.018054241314530373,-0.013771900907158852,0.03300103172659874
1772794088220662000,7.486662109375,0.035539209842681885,-0.008025865070521832,0.011383887380361557
1772794088230707200,7.496707275390625,0.04550529271364212,0.02660854533314705,0.005582723766565323
1772794088240752000,7.506752197265625,0.027479948475956917,0.03804399445652962,0.0036362651735544205
1772794088250797000,7.516797119140625,0.004062241408973932,0.03238797187805176,-0.006302119232714176
1772794088260841200,7.52684130859375,0.0019357098499312997,0.022381041198968887,-0.023000769317150116
1772794088270886100,7.53688623046875,0.007271885871887207,0.015559354797005653,-0.04678386449813843
1772794088280931300,7.546931396484375,0.022546716034412384,0.0060137356631457806,-0.07235459983348846
1772794088290976000,7.55697607421875,0.03264515846967697,-0.009295978583395481,-0.09377919882535934
1772794088301021200,7.567021240234375,0.04304426535964012,-0.02885088324546814,-0.11308097839355469
1772794088311066000,7.577066162109375,0.048003870993852615,-0.038812968879938126,-0.11495956778526306
1772794088321111300,7.587111328125,0.045654162764549255,-0.043278925120830536,-0.10368091613054276
1772794088331156000,7.597156005859375,0.0366729199886322,-0.033836957067251205,-0.07728126645088196
1772794088341201700,7.60720166015625,0.028355872258543968,-0.019735194742679596,-0.04608364403247833
1772794088351246300,7.617246337890625,0.014122607186436653,-0.010649820789694786,-0.012772828340530396
1772794088361291500,7.62729150390625,0.006859634071588516,-0.0031619714573025703,0.010239429771900177
1772794088371335400,7.63733544921875,-0.001014268142171204,-0.004122307524085045,0.021905671805143356
1772794088381380600,7.647380615234375,-0.0027503790333867073,-0.0027480609714984894,0.033193234354257584
1772794088391425300,7.65742529296875,-0.014786003157496452,0.006703231018036604,0.044459737837314606
1772794088401470500,7.667470458984375,-0.023540876805782318,0.002683083526790142,0.0595858097076416
1772794088411515400,7.677515380859375,-0.033035580068826675,-0.0031894524581730366,0.06629831343889236
1772794088421560600,7.687560546875,-0.04241283982992172,-0.01380620151758194,0.06396690011024475
1772794088431605200,7.697605224609375,-0.04624193534255028,-0.020141063258051872,0.05102580785751343
1772794088441650400,7.707650390625,-0.042197130620479584,-0.03587011992931366,0.038130342960357666
1772794088451695400,7.7176953125,-0.02904936857521534,-0.0405876450240612,0.030862847343087196
1772794088461740500,7.727740478515625,-0.029474668204784393,-0.031094374135136604,0.03257712721824646
1772794088471785500,7.737785400390625,-0.031117839738726616,-0.018108800053596497,0.03654789924621582
1772794088481829400,7.747829345703125,-0.026158509775996208,-0.008230239152908325,0.030675308778882027
1772794088491874600,7.75787451171875,-0.013128462247550488,-0.00699666328728199,0.013459835201501846
1772794088501919500,7.76791943359375,0.000292278709821403,-0.01661466434597969,-0.010726839303970337
1772794088511964700,7.777964599609375,0.013912483118474483,-0.032034631818532944,-0.0356614850461483
1772794088522009300,7.78800927734375,0.023420758545398712,-0.04086930304765701,-0.05046813189983368
1772794088532054500,7.798054443359375,0.024174166843295097,-0.034907016903162,-0.05864403769373894
1772794088542099500,7.808099365234375,0.02920355275273323,-0.024369364604353905,-0.06389891356229782
1772794088552144600,7.81814453125,0.024296944960951805,-0.02380424179136753,-0.05329420417547226
1772794088562189300,7.828189208984375,0.016978587955236435,-0.003799368627369404,-0.03493954613804817
1772794088572234500,7.838234375,0.007386679295450449,-0.0010435297153890133,-0.03322713449597359
1772794088582279400,7.848279541015625,0.01658230647444725,0.0020508496090769768,-0.03347276151180267
1772794088592323600,7.858323486328125,0.02020074427127838,-0.0014344295486807823,-0.031000547111034393
1772794088602368300,7.8683681640625,0.030145512893795967,0.0010521584190428257,-0.027620352804660797
1772794088612413400,7.878413330078125,0.05363192781805992,0.013847315683960915,-0.03214026987552643
1772794088622458400,7.888458251953125,0.043191276490688324,0.06898641586303711,0.05873645842075348
1772794088632503600,7.898503662109375,-0.02531854435801506,-0.03546036407351494,0.11450570821762085
1772794088642548500,7.908548583984375,-0.05137517675757408,-0.08180474489927292,0.07399671524763107
1772794088652593400,7.918593505859375,-0.044777993112802505,-0.025993678718805313,-0.0007680646958760917
1772794088662638300,7.928638427734375,-0.05905413627624512,0.013057369738817215,-0.1114528551697731
1772794088672683500,7.93868359375,-0.0839536264538765,0.03928631171584129,-0.22244833409786224
1772794088682728400,7.948728515625,-0.11873184889554977,0.04555773362517357,-0.2969904839992523
1772794088692773400,7.9587734375,-0.16135655343532562,0.0666385143995285,-0.30513814091682434
1772794088702817500,7.968817626953125,-0.17820501327514648,0.06951766461133957,-0.25490042567253113
1772794088712862500,7.978862548828125,-0.16142311692237854,0.04659930244088173,-0.16723555326461792
1772794088722907600,7.98890771484375,-0.13317576050758362,0.0035717254504561424,-0.07454511523246765
