time,seconds_elapsed,z,y,x
1772794780950318600,0.065318603515625,0.4136696484625339,0.004879442604631185,-0.10308666405761614
1772794780960363500,0.075363525390625,0.1714151358038187,-0.03293225552588701,-0.15985513772303236
1772794780970407400,0.085407470703125,-0.09385784887075424,0.000573562104254961,-0.2255176416629925
1772794780980451600,0.09545166015625,-0.18962182362377641,0.006575286737084388,-0.2535028692407533
1772794780990496500,0.10549658203125,-0.11773030736744403,0.011231734240800142,-0.30777017374020066
1772794781000541200,0.115541259765625,0.014466332247853278,0.0022523089714348316,-0.3160982589613646
1772794781010586400,0.12558642578125,0.1433370423108339,-0.00456204721853137,-0.31692689180523154
1772794781020630000,0.135630126953125,0.26114918274283405,0.029627076500654218,-0.28660695593589913
1772794781030674200,0.145674072265625,0.2577449272572994,0.07337225633338093,-0.31100707330219446
1772794781040719400,0.15571923828125,0.19918343269526959,0.14075754721164702,-0.36228264863975346
1772794781050763000,0.165762939453125,0.17136194431185722,0.19160802900493143,-0.4120838771084323
1772794781060808200,0.17580810546875,0.23566461287438867,0.26050986192598935,-0.39795981895960864
1772794781070852400,0.185852294921875,0.40597266421914097,0.255418603201583,-0.36909506860096003
1772794781080896300,0.195896240234375,0.5003267721742392,0.2375818446725607,-0.339153007867001
1772794781090941200,0.205941162109375,0.4762263501405716,0.18371902932077644,-0.42207536549717184
1772794781100985300,0.2159853515625,0.34728900458216666,0.1758782526925206,-0.544065083874762
1772794781111030000,0.226030029296875,0.08205167574286461,0.26096951532699164,-0.7403053027249872
1772794781121074200,0.23607421875,-0.1843377457410097,0.3751948833134025,-1.0144326249845326
1772794781131118000,0.2461181640625,-0.36312370257377624,-0.03495053654573858,-0.7560602134786546
1772794781141163000,0.2561630859375,-0.3017740385979414,-0.024174217922240494,-0.5574089879639447
1772794781151207200,0.266207275390625,-0.11294248856902121,0.12415135339088737,-0.6391846963096409
1772794781161252400,0.27625244140625,-0.028039515048265455,0.18929967899732292,-0.8717293505325913
1772794781171296000,0.2862958984375,-0.011311667609214782,0.13951441528275607,-0.9394408776905387
1772794781181340200,0.296340087890625,-0.048071080207824704,0.04746873040050268,-0.8510630676660687
1772794781191385300,0.30638525390625,-0.09895020357370377,0.027530981004238127,-0.7762317716307937
1772794781201429200,0.31642919921875,-0.17955986381471156,0.027138620685786007,-0.771601992938295
1772794781211474200,0.32647412109375,-0.18852233794927595,0.04797404957413673,-0.7907855629663914
1772794781221518300,0.336518310546875,-0.11785714861750601,0.05494250034727156,-0.7600499407019465
1772794781231563000,0.34656298828125,-0.04417816442251205,0.06579246872887015,-0.629801293349266
1772794781241607200,0.356607177734375,-0.11473463268280029,0.1030030591610819,-0.5428133302479982
1772794781251651300,0.3666513671875,-0.27452888879776,0.1634478101864457,-0.6548747981987894
1772794781261696000,0.376696044921875,-0.5217781410038471,-0.1576877853550017,-0.319292744153738
1772794781271740200,0.386740234375,-0.5636106190830469,-0.20657157018519937,-0.03962291227094829
1772794781281785300,0.396785400390625,-0.3801069860786199,-0.07906221160329878,-0.14791304498948155
1772794781291829000,0.4068291015625,-0.19847090051174163,-0.018954802773520348,-0.19802761372365058
1772794781301873200,0.416873046875,-0.028511808735132215,0.033473888121917844,-0.070008113662526
1772794781311918300,0.42691845703125,0.1216138708025217,0.038250016482546924,0.12091507488340139
1772794781321962200,0.436962158203125,0.25633038428425786,0.05072298295609653,0.22211123075298964
1772794781332007200,0.447007080078125,0.3856330560237169,0.052211906339600676,0.2872793570384383
1772794781342051300,0.45705126953125,0.45999651535153385,0.023812106611579655,0.32332404549643395
1772794781352095200,0.46709521484375,0.49404374638199805,0.00403385862596333,0.31550168130770323
1772794781362140200,0.47714013671875,0.5103425547540188,-0.06682948362641036,0.31619163633324204
1772794781372184300,0.487184326171875,0.4588187037438154,-0.13498093657158314,0.30791948255039747
1772794781382229000,0.49722900390625,0.42147710734307764,-0.18769801595434546,0.2336118450630456
1772794781392273200,0.507273193359375,0.37470191216468807,-0.24957857193648814,0.12313041284531354
1772794781402317300,0.5173173828125,0.27963176489472386,-0.1776956043127924,-0.08751892817281186
1772794781412362000,0.527362060546875,0.13672843782603739,-0.4645757329005748,0.015616817457228899
1772794781422406100,0.53740625,0.027660160341858864,-0.701054292506352,0.33304055286869405
1772794781432451300,0.547451416015625,0.11436696841418742,-0.6510916994635015,0.12653517978750167
1772794781442495200,0.5574951171875,0.17201543978452682,-0.7004660442896187,-0.16451164002567528
1772794781452540200,0.5675400390625,0.2177519395649433,-0.7230014820288866,-0.24980361286401748
1772794781462584300,0.577584228515625,0.28266017280519007,-0.6792577635008842,-0.20178857369236647
1772794781472628200,0.587628173828125,0.3120575322031975,-0.593182896656543,-0.17455716015659273
1772794781482673200,0.597673095703125,0.2979173631697893,-0.4462720875121653,-0.2154465121667832
1772794781492717300,0.60771728515625,0.24763912830650806,-0.2466706486005336,-0.28470000806972384
1772794781502762000,0.617761962890625,0.14055004194080828,-0.044573374285176395,-0.2979679243132472
1772794781512806100,0.62780615234375,0.07415887666642665,0.12730704094283282,-0.20285634905435143
1772794781522850300,0.637850341796875,0.05724222865700721,0.21511421147249637,-0.005841930961236357
1772794781532895000,0.64789501953125,0.08938742545843124,0.2063779473092407,0.1594884050361812
1772794781542939100,0.657939208984375,0.1995791540145874,0.12978066451475023,0.25707908375971017
1772794781552984300,0.667984375,0.2640951730668545,0.0038913083501160143,0.28503070132881403
1772794781563028200,0.6780283203125,0.2742500718563795,-0.4830132338017225,0.6204776577521115
1772794781573073200,0.6880732421875,0.4704658869177103,-0.6036555561583489,0.6155388131104409
1772794781583117300,0.698117431640625,0.7479957110971212,-0.5071839445926248,0.1084503647815436
1772794781593161200,0.7081611328125,0.8460480890482663,-0.39624453947432337,-0.3596853256229311
1772794781603206100,0.7182060546875,0.7692495115280151,-0.28743067514263093,-0.563932617579028
1772794781613250300,0.728250244140625,0.5877069494634867,-0.08104943989776074,-0.6200316675502806
1772794781623295000,0.738294921875,0.3223112151920795,0.19718466009348629,-0.6707009475577622
1772794781633339100,0.748339111328125,0.04608195221722126,0.5495881581451744,-0.673896601793915
1772794781643384300,0.75838427734375,-0.15293956791460514,0.8654549464382231,-0.6504054707650094
1772794781653428000,0.768427978515625,-0.26274083584845065,1.084754846097529,-0.5536490509085357
1772794781663472000,0.77847216796875,-0.2415893267482519,1.1516713504202662,-0.45317266068086026
1772794781673517300,0.788517333984375,-0.1315700321495533,1.1267756863556802,-0.4231935558721423
1772794781683561000,0.79856103515625,-0.07250292615294456,1.0404418763142078,-0.3831532219067216
1772794781693606100,0.808606201171875,-0.016313421419262886,1.011811994157359,-0.3601620762892067
1772794781703650300,0.818650390625,0.05298515573441982,1.0189403847325593,-0.38560046892836686
1772794781713694200,0.828694091796875,0.11486790367364882,0.6690816757928579,-0.1828127281308174
1772794781723739100,0.8387392578125,0.25673604247570037,0.4260261489495635,-0.05662716549858451
1772794781733783300,0.848783203125,0.3956166898995638,0.2514733727071434,-0.10160919364988803
1772794781743828000,0.858827880859375,0.3682797701627016,0.03245711229480803,-0.07731967878490686
1772794781753872100,0.8688720703125,0.2587462132543325,-0.05671783945672214,-0.1601965533055365
1772794781763917300,0.878917236328125,0.06047229661941528,-0.2690046454835683,-0.06186506615206599
1772794781773961000,0.8889609375,-0.14706687648892403,-0.4258903206754476,0.08757833020985126
1772794781784005000,0.899005126953125,-0.24755963332951067,-0.40324053584150965,0.11854103922843932
1772794781794050300,0.90905029296875,-0.3300321648329496,-0.2404248130135238,0.025152561435103415
1772794781804094000,0.919093994140625,-0.45992578820288177,-0.05998173662349581,-0.013632950163632631
1772794781814139100,0.92913916015625,-0.6193956346690654,0.15624533146172762,0.07357640060335398
1772794781824183300,0.939183349609375,-0.7125882976293564,0.4678123036690056,0.16473609643131493
1772794781834228200,0.949228271484375,-0.7721195140063762,0.77104713553451,0.3297479410640895
1772794781844272000,0.959272216796875,-0.8462760525852441,1.0180264116927982,0.5478434333696961
1772794781854316300,0.96931640625,-0.8749269775301217,1.2120174633767455,0.7793488807380199
1772794781864361200,0.979361328125,-0.8077367708325386,1.4016649328984319,0.9918453839927911
1772794781874405000,0.989405029296875,-0.6992898401170968,1.499496507705748,1.2031364569805563
1772794781884450300,0.9994501953125,-0.5419260260194539,1.4827679296143352,1.334495622858405
1772794781894494000,1.009493896484375,-0.40474049207568163,1.325517366632819,1.45724595034495
1772794781904539100,1.0195390625,-0.24109599027335643,1.1017831377878784,1.4542846163213252
1772794781914583300,1.029583251953125,-0.13038345271348953,0.8353679242756217,1.4028560423791407
1772794781924627000,1.039626953125,-0.07369125915467739,0.5709837781995535,1.316282943689078
1772794781934672100,1.049672119140625,-0.0631686960965395,0.31193945878148077,1.188053308008611
1772794781944716300,1.05971630859375,-0.044347675770521164,0.12989618065319955,1.0455322582557798
1772794781954761200,1.06976123046875,0.03457797690629959,-0.002632759656384587,0.9013874066933989
1772794781964805000,1.07980517578125,0.14859423218667506,-0.11445362378433346,0.821000887683779
1772794781974850300,1.089850341796875,0.25125556523799897,-0.18584975773915646,0.7581465182334184
1772794781984894200,1.099894287109375,0.3364882091045379,-0.21380042546018957,0.7399353734340518
1772794781994938000,1.109938232421875,0.39554304014146324,-0.2135014425136149,0.7119829521473496
1772794782004983300,1.1199833984375,0.4044347871273756,-0.18783786281645296,0.7318183371476829
1772794782015027200,1.130027099609375,0.33457039278447626,-0.11341047140695154,0.7847579732399433
1772794782025072000,1.140072021484375,0.2302478485226631,-0.048848713516816494,0.8148848159562796
1772794782035116300,1.1501162109375,0.13384089969098567,0.038458909992873665,0.8171968192256986
1772794782045161200,1.1601611328125,0.09148118286728858,0.09257233910486101,0.8131000514313578
1772794782055205000,1.170205078125,0.03348492097258567,0.11150865637362002,0.8462449998598546
1772794782065249300,1.180249267578125,-0.004868482819199562,0.10807955870777368,0.8759395155735313
1772794782075294200,1.190294189453125,-0.034548166289925575,0.11233853132650255,0.8240918394364416
1772794782085338000,1.200338134765625,-0.05728899040818214,0.11946962531544267,0.7567934961892664
1772794782095383000,1.210383056640625,-0.08874035972654819,0.10818988721445202,0.7683769664771855
1772794782105427200,1.22042724609375,-0.13321136961579322,0.039467392915673555,0.7770339548591524
1772794782115472100,1.23047216796875,-0.12777648508548736,-0.04278758684694767,0.7074995231229811
1772794782125516300,1.240516357421875,-0.0896814399689436,-0.13011822590604424,0.591666281548515
1772794782135561200,1.250561279296875,-0.03787351132035255,-0.21710352212619036,0.5152003700487315
1772794782145605000,1.260605224609375,0.03431552657783031,-0.30936065780203786,0.42319472491592164
1772794782155649300,1.270649169921875,0.054338323909044264,-0.35626649362277235,0.3562807048112154
1772794782165694200,1.280694091796875,0.0520797313272953,-0.3517043368063867,0.2935259232778102
1772794782175738000,1.290738037109375,0.007987491622567176,-0.33158016145993024,0.23981639879159627
1772794782185783000,1.300782958984375,-0.043217794957756996,-0.2709229001950472,0.19533457524739203
1772794782195827200,1.3108271484375,-0.12087912678718567,-0.17053265388086436,0.23768764313459395
1772794782205872000,1.3208720703125,-0.23446809656620024,-0.0812200106916949,0.312474296310544
1772794782215916000,1.330916015625,-0.34938802268803115,0.026537476454861462,0.3732669109255075
1772794782225960200,1.340960205078125,-0.4146025453984737,0.09609105128291993,0.4371137985445559
1772794782236005000,1.351005126953125,-0.38935295332968234,0.13662355267945675,0.5257010866012424
1772794782246049300,1.36104931640625,-0.30865619932711125,0.1302752430986613,0.6017229806605726
1772794782256094200,1.37109423828125,-0.1313344698280096,0.012300678646564483,0.5791997448157519
1772794782266138000,1.38113818359375,0.12727554982602596,-0.14448065938800572,0.5581861828815191
1772794782276183000,1.39118310546875,0.3038572746127844,-0.3614184330258518,0.5545229841988534
1772794782286227200,1.401227294921875,0.46033203091621394,-0.5965543093184009,0.5834297836009412
1772794782296272400,1.4112724609375,0.5455711045235395,-0.7650302863977849,0.5855016214389354
1772794782306316000,1.42131591796875,0.4944160868257284,-0.8669421162560582,0.54917424358204
1772794782316360200,1.431360107421875,0.4050771766841411,-0.9045171560864895,0.5180037370316684
1772794782326405400,1.4414052734375,0.29303485182523725,-0.9055443802423775,0.5132089039705694
1772794782336449000,1.451448974609375,0.2282441074848175,-0.9129371939074248,0.5343524489600211
1772794782346494200,1.461494140625,0.13988427150845525,-0.9056615768812596,0.5596523099113255
1772794782356538000,1.4715380859375,0.10058628034293651,-0.8997361323550342,0.6398104269925504
1772794782366583000,1.4815830078125,0.0458797076433897,-0.9014083033509552,0.7051194230534136
1772794782376627200,1.491627197265625,0.007304185533523559,-0.9136885237313807,0.7470886792548
1772794782386671000,1.501671142578125,0.00018938509225845335,-0.9061140698891132,0.7509140096966177
1772794782396716000,1.511716064453125,0.04238660483062267,-0.9493998885817825,0.7518282019320875
1772794782406760200,1.52176025390625,0.0786708011329174,-0.9917843014553188,0.7409828366603702
1772794782416805400,1.531805419921875,0.06755494835674762,-1.0682948558144272,0.7723478428695351
1772794782426849000,1.54184912109375,0.01925415104627609,-1.112548935017362,0.817764974502474
1772794782436894200,1.551894287109375,-0.017477204501628874,-1.148837369103357,0.8460094375383108
1772794782446938400,1.5619384765625,-0.0203168118417263,-1.1587633545078337,0.8438427610237151
1772794782456983000,1.571983154296875,-0.01115969191789627,-1.1893715510003269,0.8544763101756572
1772794782467027200,1.582027099609375,-0.006853519156575202,-1.2461273113146423,0.8677746946226805
1772794782477071400,1.5920712890625,0.027798107507824896,-1.247910979861021,0.8782507881905883
1772794782487116000,1.602115966796875,0.05355155744552612,-1.2794284001529217,0.7936382489837706
1772794782497160200,1.61216015625,0.009109773650765419,-1.3039444172501564,0.7100251691430807
1772794782507205000,1.622205078125,-0.06819733791351318,-1.2652065441854297,0.7260636460784822
1772794782517249000,1.6322490234375,-0.17229601029157637,-1.1927497221965342,0.7687528140522539
1772794782527294200,1.642294189453125,-0.3315536753118038,-1.0848748922806233,0.7980581112526357
1772794782537338400,1.65233837890625,-0.48866556047499177,-1.011225645636767,0.9016548985231667
1772794782547383000,1.662383056640625,-0.6083744744390249,-0.9705242904793471,0.9183091692693531
1772794782557427200,1.67242724609375,-0.6508101791083812,-0.9211027455106378,0.8359188361566513
1772794782567471400,1.682471435546875,-0.6343629021763801,-0.8920669129014015,0.7377770994216203
1772794782577516000,1.69251611328125,-0.6288736571103334,-0.8748978975661098,0.702249639770761
1772794782587560200,1.702560302734375,-0.6487316192686557,-0.8302149254266172,0.6000153730250894
1772794782597605000,1.712605224609375,-0.6756494368106126,-0.731494000564143,0.4761828032597899
1772794782607649000,1.72264892578125,-0.6896528277218341,-0.6122758292591199,0.35966596333533524
1772794782617694200,1.732694091796875,-0.7613836004585027,-0.4586876612426713,0.23697401497252285
1772794782627738000,1.742738037109375,-0.8858961153119802,-0.30280005717743186,0.11292648728229104
1772794782637783300,1.752783203125,-1.051307626786828,-0.1557260933605954,0.017794307626783846
1772794782647827200,1.7628271484375,-1.2249281636804341,0.010911306647397577,-0.029692177626118064
1772794782657872100,1.7728720703125,-1.3027163367599248,0.16188443332724273,-0.021178250976651904
1772794782667916000,1.782916015625,-1.3493097456306218,0.26029895912166684,-0.0014198036700487136
1772794782677960200,1.792960205078125,-1.263735740980506,0.3292603402102366,0.0037219431325793265
1772794782688005000,1.803005126953125,-1.1174942093998192,0.31050789160840214,0.011857026532292366
1772794782698049000,1.813049072265625,-0.9277344386100769,0.2650256953826174,0.014589374105632304
1772794782708094200,1.82309423828125,-0.6640010845929384,0.2139382630283013,0.08469495679326355
1772794782718138000,1.83313818359375,-0.41018648252189155,0.16406046219207346,0.1483487329930067
1772794782728183300,1.843183349609375,-0.13260522041618822,0.11594419113565235,0.15425021212175488
1772794782738227200,1.853227294921875,0.10416764596104622,0.06128770465552807,0.13282682727761566
1772794782748272000,1.863272216796875,0.29135727400183675,0.025623905273899433,0.12043364804200828
1772794782758316300,1.87331640625,0.3623153088003397,-0.02861910503450781,0.13137998947016893
1772794782768360200,1.883360107421875,0.36551615066826343,-0.050662192679569125,0.12797697609364986
1772794782778405000,1.893405029296875,0.2860176665395498,-0.05981386924330145,0.0879202755153179
1772794782788449300,1.90344921875,0.23313947831094264,-0.017462079997733235,-0.027992314905673263
1772794782798494200,1.913494140625,0.19807576371431349,0.02494231621790677,-0.11771700949445366
1772794782808538000,1.9235380859375,0.14671148717999458,0.06895023864004761,-0.19354783796109257
1772794782818583300,1.933583251953125,0.10057692799270153,0.12369396501220763,-0.2636546627577394
1772794782828627200,1.943627197265625,0.05690612857043743,0.1931881378032267,-0.3186277774389833
1772794782838672100,1.953672119140625,0.06587152531445026,0.28197898560799656,-0.3545115762468427
1772794782848716300,1.96371630859375,0.08369535129666328,0.4093109417963773,-0.37116263212263584
1772794782858761000,1.973760986328125,0.11788520566821098,0.5540442607712001,-0.341871509578079
1772794782868805000,1.98380517578125,0.18570260435342786,0.6954219857078046,-0.28359986480809746
1772794782878849300,1.993849365234375,0.267083833488822,0.8493949152581394,-0.24212913271337747
1772794782888894200,2.003894287109375,0.3525824348151684,0.9717187609609216,-0.2523409493219107
1772794782898938000,2.013938232421875,0.4578770389795303,1.0240381462629884,-0.24355098221004007
1772794782908983300,2.0239833984375,0.5773907226324081,1.053406425696984,-0.23142441802136599
1772794782919027200,2.034027099609375,0.7365051797896623,0.9823176771908998,-0.21207930075600742
1772794782929072000,2.044072021484375,0.9498188446462154,0.8552423261120915,-0.24259791926890611
1772794782939116300,2.0541162109375,1.158297344431281,0.6688748281091451,-0.3329755248084664
1772794782949161000,2.064160888671875,1.3364151927441357,0.43917190011814233,-0.40991358386464416
1772794782959205000,2.074205078125,1.449361188444495,0.20232772207036614,-0.5082213978815824
1772794782969250300,2.084250244140625,1.4565332720309494,-0.043458325715363025,-0.6322753553126007
1772794782979294000,2.0942939453125,1.41270465169847,-0.28263752258196473,-0.7623549297086895
1772794782989339100,2.104339111328125,1.3509949222385882,-0.4624988900939002,-0.8056827609121799
1772794782999383000,2.114383056640625,1.2877782953470944,-0.5564983028598129,-0.8376251286178826
1772794783009427000,2.124427001953125,1.2358832729369402,-0.6063325933478773,-0.826748783686012
1772794783019472100,2.13447216796875,1.1859732868641615,-0.6404769280772655,-0.7799057109031826
1772794783029516000,2.14451611328125,1.1174942093998192,-0.560419787152484,-0.7130447361599653
1772794783039561000,2.15456103515625,1.0312363141387701,-0.3685220179533586,-0.7558442326404153
1772794783049605000,2.164605224609375,0.853883604979515,-0.5175876670440659,-0.5040058260131627
1772794783059650000,2.174650146484375,0.7430553320854901,-0.46274132054764777,-0.2634950152166188
1772794783069694000,2.18469384765625,0.681402301248908,-0.2958036224188283,-0.2958634993799031
1772794783079739100,2.1947392578125,0.49113633450269695,-0.21382245462890714,-0.279600273777917
1772794783089783000,2.204782958984375,0.2539502111494541,-0.19353972771987318,-0.13912899616174398
1772794783099828000,2.214827880859375,0.06385083314180373,-0.14904612240632995,-0.026000264305621384
1772794783109872000,2.2248720703125,-0.12984043187797067,-0.0910350830676034,0.027189108764007687
1772794783119916000,2.234916015625,-0.2676496506780386,-0.06947776964548975,0.1346739895142615
1772794783129961000,2.2449609375,-0.3225122907221317,-0.09068710988014936,0.2608409205112606
1772794783140005000,2.255005126953125,-0.31966976077258585,-0.09133803893639705,0.3108155693180859
1772794783150050000,2.265050048828125,-0.28159049774706363,-0.13732168187829666,0.36276473306827245
1772794783160094000,2.275093994140625,-0.18053484632670877,-0.26049612566158176,0.35488523186482485
1772794783170139100,2.28513916015625,-0.13282792325615883,-0.4179452799551189,0.3017492694828659
1772794783180183000,2.29518310546875,-0.13884031541347502,-0.5659906095547601,0.27553733518794177
1772794783190228000,2.30522802734375,-0.15800678817629812,-0.7337458711441606,0.19793964317925272
1772794783200272100,2.315272216796875,-0.2099970876544714,-0.9070563191752881,0.08586232007220387
1772794783210317000,2.325317138671875,-0.23513035986721514,-1.0334076668284833,-0.012744842217490076
1772794783220361000,2.33536083984375,-0.20373335108458995,-1.0434441999353468,-0.1872508567087352
1772794783230406100,2.34540625,-0.1792670183479786,-1.1872774282652885,-0.1658707264844328
1772794783240450000,2.355449951171875,-0.15945231080949304,-1.288872958716005,-0.014491539754346012
1772794783250495000,2.365494873046875,-0.10536357774734496,-1.1989079525653272,-0.15227080180756747
1772794783260539100,2.3755390625,-0.09390987131893634,-1.1559241855591535,-0.3006199731919914
1772794783270583000,2.3855830078125,-0.09719137720763683,-1.124025949256122,-0.39956228572018443
1772794783280628000,2.3956279296875,-0.12048340546786784,-1.0618900302734224,-0.45251426983736454
1772794783290672000,2.405672119140625,-0.12585866876542567,-0.9810515297126025,-0.4724988540500402
1772794783300717000,2.415717041015625,-0.1810971563845873,-0.9706718091912567,-0.5093965791407973
1772794783310761000,2.425760986328125,-0.18917700246572494,-0.9228961317334323,-0.5496690413616597
1772794783320806100,2.43580615234375,-0.17380875294208525,-0.856936197483167,-0.5733838981438428
1772794783330850000,2.44585009765625,-0.1716764170885086,-0.7585065106522292,-0.5200305666841566
1772794783340895000,2.45589501953125,-0.22941081317663192,-0.6528362050432711,-0.4053795206315815
1772794783350939100,2.465939208984375,-0.3236836725890636,-0.5522227809650823,-0.3342308586318046
1772794783360984000,2.475984130859375,-0.3570832533657551,-0.43936040842756624,-0.28850166537500915
1772794783371028000,2.486028076171875,-0.34600890164375303,-0.33640538965929295,-0.32383718265034256
1772794783381073000,2.496072998046875,-0.3847667945832014,-0.28317815053099765,-0.28395956496596336
1772794783391117000,2.506116943359375,-0.4326631027460098,-0.2758921217086725,-0.20592121651768683
1772794783401162200,2.516162353515625,-0.4926163439273834,-0.3749915427610278,-0.07827098816037177
1772794783411206000,2.526205810546875,-0.5177332495272159,-0.5121164325587451,0.019106413138657807
1772794783421250000,2.53625,-0.46616263676583763,-0.6794128809973597,0.03331095264516771
1772794783431295200,2.546295166015625,-0.4374988523393869,-0.854843243791908,-0.016550664241239427
1772794783441339100,2.556339111328125,-0.4289835374504328,-0.9921712549462914,-0.06141768771074712
1772794783451384000,2.566384033203125,-0.44595805312693115,-1.061984065232426,-0.14136647289022802
1772794783461428000,2.576427978515625,-0.434753353023529,-1.0017782375294715,-0.2635357125531882
1772794783471473000,2.586472900390625,-0.4154845889300108,-0.8715988560207187,-0.37185675186663864
1772794783481517000,2.59651708984375,-0.458953728300333,-0.7631305902563035,-0.36859058967754244
1772794783491562200,2.606562255859375,-0.5395113660931586,-0.6528390545874834,-0.27624131873883306
1772794783501606000,2.61660595703125,-0.6227765092790126,-0.47243448357693846,-0.13799012832492588
1772794783511651000,2.626651123046875,-0.7045306633800268,-0.23373156245257704,-0.05613908972069621
1772794783521695200,2.6366953125,-0.6991103918969631,-0.03439151442348957,-0.0022184067018330097
1772794783531740000,2.646739990234375,-0.610433160534501,0.08278017268050461,0.07426767080314457
1772794783541784000,2.6567841796875,-0.4918272393763065,0.16191303836721926,0.18697883483432232
1772794783551829000,2.6668291015625,-0.3883335471540689,0.20061872619539498,0.30239165903963144
1772794783561873000,2.676872802734375,-0.40553836445510383,0.21162688081339,0.3669278440970927
1772794783571918000,2.68691796875,-0.47663376189768314,0.2684769683476537,0.3610825521349907
1772794783581962000,2.6969619140625,-0.5375239916682243,0.3492814935736358,0.3301311682280153
1772794783592006000,2.707005859375,-0.5580763658314943,0.4694695693567395,0.25296200382970274
1772794783602051000,2.717051025390625,-0.5399544336855411,0.5806033280033618,0.21628844288364052
1772794783612095200,2.72709521484375,-0.5206412459284067,0.694541184285283,0.1951040544271469
1772794783622140000,2.737139892578125,-0.47713937333226203,0.8466998309552669,0.22815657533183692
1772794783632184000,2.74718408203125,-0.4077665618985891,1.0383039875026792,0.23268742369450626
1772794783642229000,2.75722900390625,-0.3140150960117578,1.2304802448496222,0.2666045986045152
1772794783652273000,2.76727294921875,-0.22563012559413909,1.4274042081803082,0.30689364663399754
1772794783662318000,2.777318115234375,-0.13096914364695547,1.5753844001218675,0.40621187980249523
1772794783672362000,2.787362060546875,0.016154431465268133,1.646636449430883,0.547406357126683
1772794783682407200,2.7974072265625,0.1947895816504955,1.6210184624411166,0.6182621736597269
1772794783692451000,2.807451171875,0.4687047224640846,1.498847396147251,0.5311399897195398
1772794783702496000,2.81749609375,0.7338719086766242,1.264356795488298,0.4249528936948627
1772794783712540200,2.8275400390625,0.8981535393387079,0.9783956814415752,0.36859855378828943
1772794783722585000,2.837585205078125,0.9943044675827026,0.6966872564032673,0.3197486712276935
1772794783732629000,2.84762890625,1.1081927125692368,0.4601446916505694,0.1804452683471143
1772794783742674200,2.857674072265625,1.1469342388957737,0.329783450768888,0.15354462113566697
1772794783752718000,2.867718017578125,1.1563012021780013,0.2668217484865337,0.1539432650644332
1772794783762763000,2.877762939453125,1.1434534110426902,0.23972725920341909,0.21532259352616964
1772794783772807200,2.88780712890625,1.1068412979602813,0.2774769980136305,0.2638147486902773
1772794783782851800,2.897851806640625,1.060774543312192,0.3203505826435983,0.25623561867289246
1772794783792896000,2.90789599609375,0.9996370607823133,0.3641038727175444,0.19485344066694377
1772794783802940200,2.917940185546875,0.929645825189352,0.38323154783993957,0.11104030820950865
1772794783812984800,2.92798486328125,0.882593566635251,0.39797845059484244,-0.00002221183180809021
1772794783823029000,2.938029052734375,0.8160141853123902,0.4386992411050945,-0.027171280846372246
1772794783833074200,2.94807421875,0.7075444582432509,0.47220805440992114,0.0007737608514726161
1772794783843118000,2.9581181640625,0.5468325027614832,0.5171778806667775,0.11681319252252578
1772794783853163000,2.9681630859375,0.3521972348898649,0.5643102917850017,0.20705475059226153
1772794783863207200,2.978207275390625,0.22611060258746146,0.6297679025363176,0.2662205677229911
1772794783873252000,2.988252197265625,0.20011165345609186,0.6895593772847205,0.28447664764262737
1772794783883296000,2.9982958984375,0.21591069561243056,0.6424798653975129,0.3476774193778634
1772794783893341200,3.008341064453125,0.24725275933742522,0.5235973923202604,0.44424723062105476
1772794783903385000,3.018385009765625,0.2936655509442091,0.4188629062566906,0.4848885992195457
1772794783913430000,3.028429931640625,0.2702116101205349,0.2918514141943306,0.4888580143071711
1772794783923474200,3.03847412109375,0.22335165926814077,0.17392017742730675,0.5082360839940607
1772794783933519000,3.04851904296875,0.22926468270421027,0.06078180096000432,0.5428448944300412
1772794783943563000,3.05856298828125,0.29205811574757096,-0.04800846330039203,0.5474070147138088
1772794783953608000,3.06860791015625,0.39436932018697257,-0.17252265865430236,0.5431590018805116
1772794783963652000,3.078652099609375,0.4821504794925451,-0.27456176815405486,0.5513255763970315
1772794783973697000,3.088697021484375,0.4793693243414163,-0.36348917488530275,0.5873442536309361
1772794783983741000,3.098740966796875,0.4206815730512142,-0.4061982166033238,0.6189277979616076
1772794783993786000,3.1087861328125,0.3368476900666952,-0.4307773620646447,0.6211781341716647
1772794784003830000,3.118830078125,0.2689911284148693,-0.4842432139880955,0.5957408375110477
1772794784013875000,3.128875,0.22365268804132937,-0.5557532201135531,0.5739158130634576
1772794784023918800,3.1389189453125,0.2052297271221876,-0.5890610309535638,0.536963508241251
1772794784033964000,3.148964111328125,0.19533201796412467,-0.6233408651635051,0.5394901041094213
1772794784044008000,3.159008056640625,0.18722762196362017,-0.671972428798303,0.5284112223427743
1772794784054051800,3.1690517578125,0.20973639089167118,-0.6759712161108851,0.5656684283956885
1772794784064097000,3.179096923828125,0.22464637525379658,-0.6677018388070166,0.6088858580272645
1772794784074141000,3.189140869140625,0.21901742945611474,-0.6447529248960315,0.6335027782157063
1772794784084185900,3.199185791015625,0.12035130352079867,-0.5690952245065942,0.6818619546499103
1772794784094230000,3.20922998046875,-0.029549335089325904,-0.4526376770213246,0.7387296509061009
1772794784104275000,3.21927490234375,-0.15874094766974448,-0.3784965552072972,0.8088453896615654
1772794784114318800,3.22931884765625,-0.26467911043465137,-0.3545087632352486,0.8929282789710908
1772794784124363800,3.23936376953125,-0.26769173625409604,-0.3791171713236719,0.9966569489929824
1772794784134408000,3.249407958984375,-0.2952992896258831,-0.43091370179541405,1.050192359021306
1772794784144452900,3.259452880859375,-0.3074608520627022,-0.4899134416442364,1.032648519024253
1772794784154497000,3.2694970703125,-0.33897944139838215,-0.5529444097705185,1.0363287419069558
1772794784164542000,3.2795419921875,-0.37092297814786435,-0.5872362266791984,1.0598110320422798
1772794784174585900,3.2895859375,-0.3754775727123022,-0.608282339176163,1.0453902194365858
1772794784184630800,3.299630859375,-0.3546393673449755,-0.6106870256977155,1.0211131987269968
1772794784194675000,3.309675048828125,-0.38975218178033827,-0.6414656468536705,1.0486907953519373
1772794784204720000,3.31972021484375,-0.42862697909772396,-0.6686829587988555,1.1156142408721148
1772794784214763800,3.329763671875,-0.4818488661974668,-0.6746384331371634,1.085719745606929
1772794784224809000,3.33980908203125,-0.5740390741169452,-0.6749510062176733,1.0889967214509844
1772794784234853000,3.34985302734375,-0.6488906092226505,-0.7236159606654197,1.0905527917865663
1772794784244897800,3.359897705078125,-0.7082569904267787,-0.7727063739836215,0.9579338351059704
1772794784254942000,3.36994189453125,-0.7809288434058428,-0.8438524056348949,0.8242709223303943
1772794784264987000,3.37998681640625,-0.8491787882894277,-0.8696496216490864,0.6892652166437357
1772794784275030800,3.39003076171875,-0.9239654414653777,-0.8104371888976544,0.5673913066655397
1772794784285076000,3.400075927734375,-1.1162105993300675,-0.7592736225672065,0.6047795917522162
1772794784295120100,3.4101201171875,-1.2379103948503731,-0.7691722815733403,0.5111156580183654
1772794784305164800,3.420164794921875,-1.3371096047490834,-0.6904255656599998,0.4981198367144912
1772794784315209000,3.430208984375,-1.4271066865384578,-0.5941440333062783,0.5299165123391896
1772794784325254000,3.44025390625,-1.613985348933935,-0.3919605054795742,0.6156666772738099
1772794784335297800,3.4502978515625,-1.7897411442905664,-0.18693291333336381,0.5591757053755223
1772794784345343000,3.460343017578125,-1.921680009752512,-0.06747302396064624,0.45009303403981027
1772794784355387000,3.470386962890625,-1.9265981769323348,0.04671301666237414,0.3660786068566143
1772794784365432000,3.48043212890625,-1.8116542854130266,0.1303526374501176,0.3174233700852841
1772794784375476000,3.49047607421875,-1.7432354137033224,0.0943672596976161,0.24387341909743845
1772794784385521000,3.50052099609375,-1.6387474497467278,0.02058912597708404,0.11025529531165956
1772794784395565000,3.51056494140625,-1.4689239670485257,0.051835364644788204,-0.06010850480832159
1772794784405609700,3.520609619140625,-1.2328799994677304,0.17092344329673795,-0.17762085857614873
1772794784415654000,3.53065380859375,-0.9474643904745578,0.35159755196366455,-0.1905271019004285
1772794784425699000,3.540698974609375,-0.6129097797811031,0.5462038129365071,-0.14227007066644728
1772794784435743000,3.550742919921875,-0.2771855407863855,0.7415383516512811,-0.1074923334043473
1772794784445788000,3.560787841796875,0.017816227197647094,0.9606169367101043,-0.08248882505111396
1772794784455832000,3.57083203125,0.2644207517594099,1.1085321736566722,-0.07411160345859825
1772794784465876700,3.580876708984375,0.4467670314222574,1.205639306646958,-0.08965572100579738
1772794784475921000,3.5909208984375,0.5656657980471849,1.2608923342481255,-0.103142759892717
1772794784485965000,3.600965087890625,0.7086959663659333,1.2450754641741513,-0.1424875128094107
1772794784496009700,3.611009765625,0.8610749777883291,1.2069254009347408,-0.15497005082890392
1772794784506055000,3.621054931640625,1.0039841500759124,1.0808596652898936,-0.2188239527106285
1772794784516099000,3.63109912109375,1.1576304049551487,0.9501941807646304,-0.3266291514564305
1772794784526142700,3.641142822265625,1.3061480647742747,0.8514563778325915,-0.3892420403011143
1772794784536188000,3.65118798828125,1.4236071539849042,0.7754091301362961,-0.3948683557502925
1772794784546232000,3.661232177734375,1.5780308229774236,0.6689675478938967,-0.34691724866032597
1772794784556277000,3.671277099609375,1.7116098568618296,0.5867581973712891,-0.30649821757562457
1772794784566321000,3.68132080078125,1.733264054787159,0.5220696712963283,-0.31285244544055313
1772794784576365800,3.69136572265625,1.6935919696122408,0.39917204429358244,-0.2462744523571804
1772794784586409700,3.70140966796875,1.6351134771585463,0.30865787982754406,-0.1889142233436927
1772794784596455000,3.711454833984375,1.5510399401992558,0.28323731510601935,-0.1747831509321928
1772794784606499000,3.7214990234375,1.431867617329955,0.2653652660679072,-0.1930860656682402
1772794784616544000,3.7315439453125,1.3324620712041855,0.2539134593356401,-0.20144491135384887
1772794784626588000,3.741587890625,1.1582090816259383,0.2829783719088882,-0.10159297316744922
1772794784636632800,3.7516328125,0.9283855959951877,0.30312757209874686,0.01232935675177723
1772794784646677000,3.761677001953125,0.6833318080067634,0.32247787699587643,0.0852718433657661
1772794784656722000,3.771721923828125,0.46340369344651694,0.3016693361144513,0.09179419433921575
1772794784666765800,3.781765869140625,0.24428105005025863,0.2558869513656944,0.08639332167636603
1772794784676811000,3.79181103515625,0.11512684687077998,0.18407091149836777,0.07951021109912544
1772794784686855000,3.80185498046875,0.012620996642112732,0.10599120812639594,0.02733797918278724
1772794784696899800,3.81189990234375,-0.018707623079419134,0.05395816548503935,0.005445405924320221
1772794784706944000,3.821944091796875,-0.03761456812322139,0.01484459097571671,-0.029933950492739676
1772794784716989000,3.831989013671875,-0.05146715238690376,-0.008773965825140475,0.00794701348170638
1772794784727032800,3.84203271484375,-0.09744622875154017,-0.048376273699477314,0.09491495670825242
1772794784737078000,3.852078125,-0.16188567543625831,-0.08059270910620689,0.18171178115159273
1772794784747122000,3.862121826171875,-0.19760873072445392,-0.07731759642567484,0.20901713670641184
1772794784757166800,3.872166748046875,-0.13083879526555536,-0.1164609084861353,0.22649682542607186
1772794784767211000,3.8822109375,-0.03404547746479511,-0.1784072231808677,0.2500271559542045
1772794784777256000,3.892255859375,0.09816051450073718,-0.2874371414160356,0.24633637514486909
1772794784787299800,3.9022998046875,0.22028116578161716,-0.4106777001049369,0.23979042410012333
1772794784797345000,3.912344970703125,0.28746786534786223,-0.5189158469079062,0.22340229347683488
1772794784807389000,3.922388916015625,0.3431856609165668,-0.5716939722955227,0.20801676402483135
1772794784817433900,3.932433837890625,0.37353871360421176,-0.6089093485007062,0.21900329133290797
1772794784827478000,3.94247802734375,0.404877854719758,-0.6118553388247266,0.2419470541447401
1772794784837523000,3.95252294921875,0.43892508575022215,-0.643776773340255,0.2668843653939664
1772794784847566800,3.96256689453125,0.4554150327801704,-0.6786107708342373,0.2902597245560959
1772794784857611800,3.97261181640625,0.43391631767749783,-0.7198821078993379,0.28553101553376764
1772794784867656000,3.982656005859375,0.3766132987439632,-0.7318823422946036,0.31160379708632824
1772794784877700900,3.992700927734375,0.32820144227445125,-0.718807756666094,0.3440766549395397
1772794784887744000,4.002743896484375,0.2582598910421133,-0.6969708956502377,0.3560797388790175
1772794784897789000,4.012788818359375,0.17847908284068106,-0.6959956208772957,0.34047610969692466
1772794784907832800,4.022832763671875,0.05496610041856766,-0.7099818414580077,0.31548016359563913
1772794784917878000,4.0328779296875,-0.07729074495136737,-0.684010584051162,0.2454028936870396
1772794784927922000,4.042921875,-0.15166647923886775,-0.6576593143507838,0.18376217434275893
1772794784937966800,4.052966796875,-0.2293073528021574,-0.6626532501805573,0.17255517268441617
1772794784948011000,4.063010986328125,-0.2655927181482315,-0.6753752960443496,0.1485081248058006
1772794784958056000,4.073055908203125,-0.2771551456481218,-0.6836645470924675,0.1163981454482302
1772794784968099800,4.083099853515625,-0.265970319288969,-0.6961887322966009,0.0756241999786347
1772794784978144800,4.093144775390625,-0.26961656683683394,-0.7020626658312976,0.04943042239490896
1772794784988189000,4.10318896484375,-0.27227964856624604,-0.7460843975830823,0.00364102338347584
1772794784998234000,4.113234130859375,-0.2693734057307243,-0.7754027734607458,-0.04921064216438681
1772794785008277800,4.12327783203125,-0.26727672571241856,-0.7709283314604312,-0.12792659761328248
1772794785018322700,4.13332275390625,-0.23671207610070705,-0.8514706986188888,-0.23534867879301308
1772794785028366600,4.14336669921875,-0.2527969494611025,-0.928266791921109,-0.32312271423805505
1772794785038411500,4.15341162109375,-0.31786008100211616,-0.9551925005085766,-0.4309877168796956
1772794785048455400,4.163455322265625,-0.3614952245891094,-0.9688492699392139,-0.5047944921728224
1772794785058500600,4.17350048828125,-0.41581192118823523,-0.9377375078387558,-0.518548036508821
1772794785068544500,4.18354443359375,-0.43861762723624703,-0.9119524937190114,-0.47860166443716734
1772794785078589700,4.193589599609375,-0.4217459874123335,-0.8799445134311914,-0.4179247120911255
1772794785088633600,4.203633544921875,-0.383551573574543,-0.9254000043131411,-0.3620151202773675
1772794785098678500,4.213678466796875,-0.3441629815161228,-0.9764137869093567,-0.3634023733846843
1772794785108722700,4.22372265625,-0.3804249659866094,-1.055144866862148,-0.4147460820550099
1772794785118767600,4.233767578125,-0.49557402468919753,-1.1348169539920985,-0.5407460224546492
1772794785128811500,4.2438115234375,-0.6815677209436893,-1.1714422188170253,-0.6598409692388028
1772794785138856700,4.253856689453125,-0.84689915291965,-1.091197665561363,-0.7852446607783437
1772794785148900600,4.263900634765625,-0.9983604649752378,-0.8465204558003694,-0.8627723562907427
1772794785158945500,4.273945556640625,-1.12541915718019,-0.48430371200367806,-0.790669681501761
1772794785168989700,4.28398974609375,-1.198014437791705,-0.030025647364184258,-0.6129952661074698
1772794785179034400,4.294034423828125,-1.235682197406888,0.43302609083950516,-0.30672355076409874
1772794785189079600,4.30407958984375,-1.188062952619791,0.8591269855257123,-0.04878412384800613
1772794785199123700,4.314123779296875,-1.0319868402451275,1.243378889389336,0.08018281313106417
1772794785209168600,4.324168701171875,-0.8079296630561351,1.4520856449723243,0.2805089130554348
1772794785219212500,4.334212646484375,-0.5361141248703003,1.5438675643518567,0.47756033869069064
1772794785229257500,4.344257568359375,-0.27616788817644117,1.5347326562598347,0.6077349344264715
1772794785239301600,4.354301513671875,0.0012725041538476944,1.4289198734402655,0.6687987671982497
1772794785249346600,4.3643466796875,0.24511691635251043,1.2484426025196909,0.6045575099667534
1772794785259390700,4.374390625,0.4501683642983436,1.0020436835326254,0.47903377224411814
1772794785269436700,4.384436767578125,0.5853028109312057,0.6608497809551656,0.37255306356772777
1772794785279480600,4.39448046875,0.7149158637940883,0.3399517204966396,0.280372427194193
1772794785289525500,4.404525390625,0.8108072643190621,0.09681604108922183,0.16102390750776976
1772794785299569700,4.414569580078125,0.8317816632866859,-0.14501272043809293,0.034893728324584664
1772794785309614600,4.424614501953125,0.7608277201414108,-0.3209810625668615,-0.0864248858584091
1772794785319658500,4.434658447265625,0.6468740087032318,-0.4164769609682262,-0.24775683640204368
1772794785329703700,4.44470361328125,0.5465110157221555,-0.39178682941310106,-0.36919746952950955
1772794785339747600,4.45474755859375,0.4557306746006012,-0.3053555503465235,-0.38814014347381887
1772794785349792500,4.46479248046875,0.353502472269535,-0.1558225760050118,-0.28135931933969255
1772794785359836700,4.474836669921875,0.27916648547053335,0.0806967540025711,-0.11283384056277572
1772794785369881600,4.484881591796875,0.23530454739034173,0.3850111247330904,0.0441825483366847
1772794785379925500,4.494925537109375,0.23076398135125636,0.6368178210478276,0.21083390380479394
1772794785389970400,4.504970458984375,0.2329226206898689,0.7598767760921269,0.31655382070913907
1772794785400014600,4.5150146484375,0.24937749640643594,0.7610025652516633,0.3289053527601063
1772794785410059800,4.525059814453125,0.2134948666423559,0.6937387818612157,0.31059257421717046
1772794785420103400,4.535103515625,0.17696517114639282,0.6417419795770197,0.24829255071394143
1772794785430148600,4.545148681640625,0.09695815297365189,0.6306623671580106,0.24464886044934392
1772794785440193500,4.555193603515625,-0.030788521495461463,0.6049087710898369,0.3214486070133745
1772794785450237400,4.565237548828125,-0.0687806907594204,0.5865399515107274,0.3473351087462157
1772794785460282600,4.57528271484375,-0.07065642150342465,0.6105481652162968,0.33209019334129986
1772794785470326800,4.585326904296875,-0.05321604188084602,0.629404110725224,0.37357970320172607
1772794785480371500,4.595371337890625,0.029273440757393836,0.6567474602028727,0.4455824247475713
1772794785490415600,4.60541552734375,0.12684417267143724,0.6650470865145325,0.4896342593766749
1772794785500460500,4.61546044921875,0.21184534586966036,0.6858608150277287,0.514913588996604
1772794785510504400,4.62550439453125,0.22887363756000995,0.6805721340350807,0.5889428479339928
1772794785520549600,4.635549560546875,0.16854221071600914,0.6945761094681918,0.67850562995933
1772794785530593500,4.645593505859375,0.0935240868717432,0.7297836164496838,0.7692655858799815
1772794785540638700,4.655638671875,0.04404138630032539,0.785537287049368,0.8062165024626999
1772794785550682600,4.6656826171875,0.04346738580465317,0.8300036207634955,0.8117471755176782
1772794785560727600,4.6757275390625,0.0393920991897583,0.8789937155123799,0.8547834764286876
1772794785570771700,4.685771728515625,0.06557108106315136,0.9055855890356004,0.8646622616905718
1772794785580816400,4.69581640625,0.12355156086683272,0.8812410560477525,0.8712601255856454
1772794785590860500,4.705860595703125,0.18962123910188675,0.8396619682077318,0.8929760636355727
1772794785600905700,4.71590576171875,0.2698971373438835,0.7326192782670259,0.9092331517577171
1772794785610949600,4.72594970703125,0.3602747428834438,0.6007272476214915,0.8465155604295432
1772794785620994600,4.73599462890625,0.45956046202182765,0.46941389364674685,0.7487393690712749
1772794785631038700,4.746038818359375,0.5408972674936056,0.32358868778198957,0.6708246470026672
1772794785641083400,4.75608349609375,0.6259101311296225,0.15355455800779164,0.5227302540969103
1772794785651127600,4.76612744140625,0.7367758134245872,-0.07237615796811878,0.3771295046377927
1772794785661172700,4.7761728515625,0.8073509863853454,-0.2618058200206607,0.27107166101597246
1772794785671217700,4.7862177734375,0.8371417290151119,-0.37144020695500074,0.17842143436931074
1772794785681261600,4.796261474609375,0.8094049963057041,-0.4762111525714397,0.07238419514410198
1772794785691306500,4.806306396484375,0.7395990541517734,-0.5545066541185603,-0.04313705787174404
1772794785701350700,4.8163505859375,0.5976911678612232,-0.5841113726569339,-0.02822108216024935
1772794785711395600,4.8263955078125,0.3780617439866066,-0.5707737156454473,0.03417925991229713
1772794785721439500,4.836439453125,0.13236673548519612,-0.5296486186506226,0.06754946846403181
1772794785731484700,4.846484619140625,-0.06868541369140148,-0.4505880875477567,0.03488755431212485
1772794785741528600,4.856528564453125,-0.22965222071707247,-0.41839536181017756,0.07794131781458855
1772794785751573500,4.866573486328125,-0.3403285179197788,-0.4279563498271629,0.09692205874696373
1772794785761617700,4.87661767578125,-0.3393313235759735,-0.3936125835355371,0.18050510877557097
1772794785771662600,4.88666259765625,-0.336450799703598,-0.3996817473813891,0.31338673498034475
1772794785781706500,4.89670654296875,-0.36669045514464377,-0.466435498890467,0.3823859638612717
1772794785791751700,4.906751708984375,-0.3467378004401922,-0.4918117495462298,0.42105142927691336
1772794785801795600,4.916795654296875,-0.3025046909600496,-0.4577124595349654,0.4871647274579853
1772794785811840500,4.926840576171875,-0.23490707250535486,-0.40355566620528693,0.5709806363943964
1772794785821884700,4.936884765625,-0.15882862595319747,-0.33477325841281563,0.6951628963802009
1772794785831929600,4.9469296875,-0.03819909001290798,-0.2971842265896499,0.8461209350887685
1772794785841974500,4.956974609375,0.06403378849327564,-0.2901534877026453,0.952510860209167
1772794785852018700,4.967018798828125,0.14117489584088325,-0.2961761455256492,0.9867184694331139
1772794785862063600,4.977063720703125,0.189687874597311,-0.30569081018287686,0.9782141873948276
1772794785872107500,4.987107421875,0.2415501637816429,-0.33630466923117636,0.9357776059426367
1772794785882152400,4.99715234375,0.24411913748681544,-0.4159410639932379,0.877424128108099
1772794785892196600,5.007196533203125,0.1840413931429386,-0.49528212907053526,0.8233380984596907
1772794785902241800,5.01724169921875,0.05948036297261715,-0.5586774004645645,0.8005546773087233
1772794785912285400,5.027285400390625,-0.0679524232417345,-0.627493454798311,0.8308933361448347
1772794785922330600,5.03733056640625,-0.12691723790764808,-0.7208250878378748,0.7938452427979559
1772794785932374500,5.04737451171875,-0.11902736144065856,-0.7565906670935452,0.594691547653824
1772794785942419500,5.05741943359375,-0.15039631317257882,-0.7785096534349024,0.33785401756502687
1772794785952463600,5.067463623046875,-0.27753216226696964,-0.7892967857133597,0.06968779566697776
1772794785962508800,5.0775087890625,-0.4203180004358291,-0.7935448716118931,-0.19176891865506768
1772794785972552400,5.087552490234375,-0.5650584798038005,-0.7793186317302286,-0.3898451207607984
1772794785982597600,5.09759765625,-0.7234305941611529,-0.711453156119585,-0.47941477091833945
1772794785992642600,5.107642578125,-0.8934761951774358,-0.5984944836007431,-0.4749811723850667
1772794786002687000,5.11768701171875,-1.1244687245875595,-0.4175215015850961,-0.3940535322360694
1772794786012732000,5.12773193359375,-1.3293524147510527,-0.17900770982466638,-0.24457740264832972
1772794786022776000,5.137776123046875,-1.3993535872161387,0.08169950130432843,-0.05393997224122286
1772794786032821000,5.147821044921875,-1.3880962801426648,0.24957312857639044,0.013452332899719475
1772794786042865200,5.157865234375,-1.2326397609710693,0.4637615304408595,0.09559782440587877
1772794786052910000,5.16791015625,-1.1503414169907569,0.5114671748697758,0.3781156661309302
1772794786062954000,5.1779541015625,-1.1187117684960364,0.5357664804764092,0.4699500463500619
1772794786072999000,5.1879990234375,-1.1380588585227727,0.5785226492717862,0.33207243848890067
1772794786083043000,5.19804296875,-1.1090309169590473,0.5953892110617831,0.1582240841887891
1772794786093088300,5.208088134765625,-1.134145484471321,0.6326794060688465,0.15398527757525443
1772794786103132000,5.2181318359375,-1.1261994939029216,0.6484715070277453,0.19800605947896838
1772794786113177000,5.228177001953125,-1.1215525448799133,0.7168330955922603,0.20970541123151779
1772794786123222000,5.238221923828125,-1.0044476759344338,0.7853070584900677,0.19624869441762566
1772794786133266000,5.248265869140625,-0.8528682904571294,0.8475962683383375,0.22654577913433313
1772794786143311000,5.25831103515625,-0.6233586930811404,0.8861668950773776,0.2555097155511379
1772794786153355000,5.26835498046875,-0.3011234657347202,0.9097805565074085,0.26256350652016697
1772794786163400000,5.27839990234375,0.08615501940846443,0.9579955752305686,0.31551125285364684
1772794786173444000,5.288444091796875,0.40788989601731296,0.9054800097692758,0.39636253983080383
1772794786183489000,5.298489013671875,0.6878530848234892,0.7816423985026776,0.4434951701447367
1772794786193533000,5.308532958984375,0.9312152664631604,0.6300559256974607,0.42948323060087856
1772794786203578000,5.318578125,1.1235159539073705,0.44327926237173376,0.3327917657393962
1772794786213622000,5.3286220703125,1.3004372859120368,0.24439342438355086,0.17463446317650377
1772794786223667200,5.338667236328125,1.4183464569777249,0.07492021642774344,0.0414930169917643
1772794786233711000,5.348711181640625,1.5240104789763689,-0.05218925611637532,-0.02747252881526947
1772794786243756000,5.358756103515625,1.5460072067290545,-0.14075513605885207,-0.10453392199017107
1772794786253801200,5.36880126953125,1.3951152189940212,-0.2287208581510931,-0.17866569145396352
1772794786263844900,5.378844970703125,1.2015133858233689,-0.26477950206920503,-0.2642480255410075
1772794786273890000,5.38889013671875,1.0046610264241695,-0.18706563633494078,-0.22763598552383482
1772794786283934200,5.398934326171875,0.7857090634196996,-0.10071421757154166,-0.13866905049979686
1772794786293979000,5.408978759765625,0.5805570777088404,0.029176629319414494,-0.05009622935988009
1772794786304023000,5.41902294921875,0.40176410661339756,0.20570413970090448,-0.0121414694968611
1772794786314068000,5.42906787109375,0.1536293037444353,0.3476072036858648,0.024551672932505608
1772794786324112000,5.43911181640625,-0.07774433393776416,0.4263651716455817,0.16377404646612703
1772794786334157000,5.449156982421875,-0.21202537861168383,0.5032040811762214,0.32602190627828237
1772794786344201000,5.459200927734375,-0.24705635998249054,0.514034321944043,0.45711781811006363
1772794786354246100,5.46924609375,-0.22362872264385222,0.50149778871499,0.49854346895404156
1772794786364291000,5.479291015625,-0.17828034539818763,0.3839581816140562,0.5147244961652905
1772794786374335000,5.4893349609375,-0.12101941204071044,0.22734204407855868,0.5084735460117459
1772794786384380200,5.499380126953125,-0.044458150407671926,0.09797178699560463,0.47176593666560945
1772794786394424000,5.509424072265625,0.02927110266983509,-0.052441550377011294,0.5057742239251732
1772794786404469000,5.519468994140625,0.18255729206502436,-0.1578014017973095,0.5396111001405864
1772794786414513200,5.52951318359375,0.3651221829146147,-0.2504449064422399,0.46073695845529433
1772794786424558000,5.53955810546875,0.4829769934445619,-0.372473787786439,0.41543600054793056
1772794786434602000,5.54960205078125,0.5474737232744693,-0.48445941402204334,0.4016111080087721
1772794786444647200,5.559647216796875,0.589243072989583,-0.5528018594946712,0.39804800869971513
1772794786454690800,5.56969091796875,0.5918447799205779,-0.5783688469495624,0.4203898966282606
1772794786464736000,5.579736083984375,0.6048240884810686,-0.560784017354995,0.4457103619761765
1772794786474781000,5.589781005859375,0.63604164904356,-0.5245996281653642,0.46112939183898266
1772794786484825000,5.5998251953125,0.6488695664346218,-0.5099505597617476,0.46577853281907733
1772794786494870000,5.6098701171875,0.5831979476064443,-0.5656245161887258,0.4183344254031777
1772794786504914000,5.619913818359375,0.4928787942558527,-0.6222476630993187,0.3790720170076936
1772794786514959000,5.629958984375,0.3832505448013544,-0.6426243153695017,0.3143911627825349
1772794786525003000,5.6400029296875,0.22653379643559454,-0.6380714013054967,0.23058124519549308
1772794786535048000,5.6500478515625,0.09032909022271633,-0.6092421241190284,0.1934777683995664
1772794786545092000,5.660092041015625,-0.04373042065501213,-0.5658664351858198,0.17955175357349215
1772794786555137300,5.67013720703125,-0.12110007606148719,-0.5319681841719895,0.1407303669437766
1772794786565181000,5.680180908203125,-0.15819383518099783,-0.5278166174504906,0.0958592518210411
1772794786575226000,5.69022607421875,-0.16024083083868026,-0.5647612504228949,0.04185476297624409
1772794786585271000,5.70027099609375,-0.14457447515130042,-0.5813401909105479,0.00046345279328525063
1772794786595315000,5.71031494140625,-0.08412380584180354,-0.5854805786509066,-0.002496492990851402
1772794786605360000,5.720360107421875,-0.04942015672922134,-0.6252114082757383,-0.039625907945632935
1772794786615404000,5.730404052734375,-0.021709142982959746,-0.7011628674473613,-0.06328969212770462
1772794786625449000,5.740448974609375,0.048529345369338985,-0.7186918021362274,-0.1024069198988378
1772794786635493000,5.7504931640625,0.13609072444438933,-0.7484143749006092,-0.15089805214963853
1772794786645538000,5.7605380859375,0.18098200557231903,-0.8031408944096415,-0.2008626179538667
1772794786655582000,5.77058203125,0.13565700920224188,-0.833791468739137,-0.25439598215557635
1772794786665627000,5.780626953125,0.01583645155727863,-0.8239012122351675,-0.3209313782062381
1772794786675672000,5.790672119140625,-0.12359481548666953,-0.8066922302156686,-0.33467582592032846
1772794786685716200,5.80071630859375,-0.19558219333291052,-0.7603196975540369,-0.3172742439381778
1772794786695761000,5.810760986328125,-0.2083271086156368,-0.6948382675357162,-0.34717677637934685
1772794786705805000,5.82080517578125,-0.1582528718918562,-0.6577894435364753,-0.34025735237970944
1772794786715850200,5.830850341796875,-0.14659458280205725,-0.6416621923390775,-0.3156937698137015
1772794786725894000,5.840893798828125,-0.1729179415822029,-0.675384429198876,-0.20699717518612742
1772794786735939000,5.85093896484375,-0.2635468915343284,-0.7632916260369121,-0.029786650976538657
1772794786745983200,5.860983154296875,-0.30015023678839203,-0.8613583978395909,0.11600392196625471
1772794786756028000,5.87102783203125,-0.2744733592182398,-0.932280119215697,0.11033208687491715
1772794786766073000,5.881072998046875,-0.25868074680268766,-1.0133582006860524,0.08968845423161984
1772794786776117000,5.891116943359375,-0.2526391285508871,-1.009428679217398,0.06716952923573553
1772794786786162200,5.901162109375,-0.35744974859058853,-0.8956089694224297,-0.09382774599343538
1772794786796206000,5.9112060546875,-0.5454840107619762,-0.6763898068491369,-0.14122553004957736
1772794786806251000,5.9212509765625,-0.7397901928097009,-0.3741654672004282,-0.1293201343309134
1772794786816295200,5.931295166015625,-0.8798024746119976,-0.1103540795110166,-0.06886069719307124
1772794786826339800,5.94133984375,-0.9498147529929876,0.13135302839800714,0.053892479837685824
1772794786836384000,5.951384033203125,-0.9721388130038976,0.33207850290350616,0.21108020671606062
1772794786846429200,5.96142919921875,-0.8793845414608716,0.4465659558922052,0.32026721520908175
1772794786856474000,5.97147412109375,-0.7299860071539879,0.5497181412003934,0.4035107310850173
1772794786866518000,5.98151806640625,-0.5620113671928644,0.5788070191711187,0.48359775569140906
1772794786876563200,5.991563232421875,-0.3432172250986099,0.5941545181676745,0.5278766770746559
1772794786886606800,6.00160693359375,-0.2508516606122255,0.5890672780312597,0.6149925774045288
1772794786896652000,6.011652099609375,-0.2447346390366554,0.6258817818179726,0.6839006208706647
1772794786906696200,6.0216962890625,-0.29371055912971494,0.6664039079509675,0.6133083506446332
1772794786916741000,6.0317412109375,-0.37577977052927014,0.7799477234140038,0.5316232431918382
1772794786926785000,6.041784912109375,-0.44126960304975504,0.8859921230323612,0.48304947415888305
1772794786936830000,6.051829833984375,-0.4651028985798359,0.9659114629216492,0.43179194593466813
1772794786946875100,6.061875244140625,-0.3830880477160215,1.061646211580187,0.37912002086788416
1772794786956919000,6.0719189453125,-0.28359306974112986,1.1900441895648837,0.3420720005862415
1772794786966964000,6.0819638671875,-0.17450725660026073,1.2823447259910403,0.31400640124864876
1772794786977008000,6.092008056640625,-0.0554869094222784,1.394891200979799,0.2347194409787655
1772794786987053000,6.102052978515625,0.05083586874604225,1.442939923225343,0.2330311956308782
1772794786997097000,6.112096923828125,0.13594751658141613,1.4367838848136365,0.26367935880757865
1772794787007142400,6.122142333984375,0.16201485477387903,1.4185147992819547,0.34293607006967064
1772794787017186000,6.13218603515625,0.1796276683539152,1.4014328777082263,0.37867176564373073
1772794787027231200,6.142231201171875,0.302144040954113,1.38363360164538,0.4433605109144002
1772794787037276200,6.152276123046875,0.4805687632590532,1.312624567312002,0.5293016683764755
1772794787047320000,6.162320068359375,0.6740197897821665,1.2336695424102246,0.5752674468681216
1772794787057365200,6.172365234375,0.8494447457492351,1.1251746808998286,0.6004282646749168
1772794787067409200,6.1824091796875,0.9745786073714494,0.9638627136982977,0.6176410460866988
1772794787077454300,6.192454345703125,1.0512544352948665,0.7895495183654129,0.5542851933876052
1772794787087498200,6.202498291015625,1.0873071609288454,0.5920756660670041,0.44698684818539763
1772794787097543200,6.212543212890625,1.037802833047509,0.4619653312064707,0.3683790658187121
1772794787107588400,6.22258837890625,0.9049369158685207,0.4159761718392372,0.31417978505417704
1772794787117632300,6.23263232421875,0.6920411841630936,0.43558059762790796,0.30607151659615334
1772794787127677200,6.24267724609375,0.5464122315227985,0.5167025913052261,0.2721325682457536
1772794787137721300,6.252721435546875,0.4954360775232315,0.6093648006506264,0.21986586297899482
1772794787147766000,6.26276611328125,0.4811088614851236,0.6936439431846141,0.19702771596610544
1772794787157810200,6.27281005859375,0.5119201793342828,0.7917093267478048,0.20709128321036696
1772794787167855400,6.28285546875,0.519006922724843,0.9073980452850461,0.2547651077289134
1772794787177899000,6.29289892578125,0.4797808277517557,0.9902380949266254,0.3296986220296472
1772794787187944200,6.302944091796875,0.36059798348844047,1.066610117597878,0.38953422818072136
1772794787197989000,6.312989013671875,0.24138357504308222,1.0966267779380083,0.4435468272667378
1772794787208033300,6.323033203125,0.1199801321208477,1.0579376393858342,0.49388366044946014
1772794787218078200,6.333078125,0.038439328509569166,0.9554602845992892,0.5871581564743071
1772794787228122000,6.3431220703125,0.011394669717550278,0.8340924975123256,0.6365679379399866
1772794787238167300,6.353167236328125,0.016827800682187078,0.6821805921450257,0.6218642167396843
1772794787248211200,6.363211181640625,0.02774783862531185,0.5007561035022139,0.5962534632083029
1772794787258256100,6.373256103515625,0.07093348487913607,0.2873462117295712,0.5641342045657336
1772794787268301300,6.38330126953125,0.1259533613115549,0.10523271790929138,0.5472010438129306
1772794787278345200,6.39334521484375,0.1577513521105051,-0.07132723343707621,0.5729646498184651
1772794787288390100,6.40339013671875,0.15154782129526137,-0.1979602475758642,0.6298346841622143
1772794787298434300,6.413434326171875,0.1166425121307373,-0.2666257875230163,0.639991847974062
1772794787308479200,6.423479248046875,0.09923428121209144,-0.3287053001433611,0.6858788621410727
1772794787318523100,6.433523193359375,0.06120177993774414,-0.39204087723940606,0.733049047986418
1772794787328568300,6.443568359375,0.020922376519441604,-0.492784978492558,0.7462504748649895
1772794787338612200,6.4536123046875,0.029071196183562277,-0.468949198744446,0.7069307833243161
1772794787348657200,6.4636572265625,-0.07367547706365585,-0.47159781355708835,0.6675591424006968
1772794787358702000,6.4737021484375,-0.19892332045435904,-0.4508499898869544,0.5787378994576633
1772794787368746200,6.483746337890625,-0.30852409738004205,-0.4154485677685588,0.5635257903438061
1772794787378791200,6.493791259765625,-0.39415655421912665,-0.3646565381642431,0.5724442061409354
1772794787388835000,6.5038349609375,-0.4910398883908987,-0.3124907359886914,0.616787205736339
1772794787398880300,6.51388037109375,-0.5789297687679529,-0.21086276457309722,0.7035165179014206
1772794787408924200,6.523924072265625,-0.6365922686636447,-0.11029577345252037,0.7478395706873386
1772794787418969000,6.533968994140625,-0.6635662003070115,-0.0038412586633116003,0.856349118310213
1772794787429014300,6.54401416015625,-0.6302227336317301,0.10816665246933697,0.9629922875393181
1772794787439058200,6.55405810546875,-0.5469342095702886,0.2059352450430393,1.0079818414099513
1772794787449103000,6.56410302734375,-0.42474867635965347,0.26267748828865584,0.9966698084745556
1772794787459147300,6.574147216796875,-0.27375673538148404,0.24741547561846672,0.9737882607113569
1772794787469192200,6.584192138671875,-0.14240414537489413,0.16731756429187952,0.9453278899025171
1772794787479236000,6.594236083984375,-0.045620179924368856,0.0693492113623768,0.8910456800948828
1772794787489281300,6.60428125,0.0026665888607501982,-0.017181801751628516,0.8000643365085125
1772794787499326200,6.614326171875,-0.025328502523899076,-0.06634769145883619,0.7038115553252399
1772794787509370400,6.624370361328125,-0.09683715694248676,-0.11210413804873823,0.635206075002253
1772794787519415000,6.6344150390625,-0.19148469488620756,-0.12716704795025288,0.6100805477045476
1772794787529459200,6.644459228515625,-0.3187134829610586,-0.1768112957589328,0.6568478518374263
1772794787539504400,6.65450439453125,-0.4194645984768867,-0.2051041279811412,0.6826363730885088
1772794787549548000,6.664548095703125,-0.4966624044477939,-0.22294892368614672,0.6570704085469246
1772794787559593200,6.67459326171875,-0.6012713644355535,-0.28262502842657267,0.588230388815701
1772794787569638100,6.68463818359375,-0.6456833376139403,-0.41696898226886986,0.490005138515681
1772794787579682000,6.69468212890625,-0.6187409701526164,-0.5369532060429454,0.32090733974352476
1772794787589727200,6.704727294921875,-0.6158592772364616,-0.6615129941042512,0.0844226426579058
1772794787599771100,6.714771240234375,-0.7484767726123333,-0.7192876491375267,-0.1440079273097217
1772794787609816300,6.72481640625,-0.9562480009108781,-0.706502401844412,-0.29349852381423114
1772794787619860200,6.734860107421875,-1.1092881065905094,-0.6279403217829763,-0.2979970042772591
1772794787629905200,6.7449052734375,-1.1609873141676186,-0.3545774080246687,-0.4677604273512959
1772794787639950300,6.754950439453125,-1.0560942765414714,-0.09841200504377484,-0.697973642951995
1772794787649994200,6.764994140625,-0.7585948465228081,0.07908683458790182,-0.8264123913384973
1772794787660039200,6.7750390625,-0.3774024032950401,0.13909355952218175,-0.8142103507608175
1772794787670083300,6.785083251953125,-0.0033989947885274883,0.10984627611935138,-0.7312027625326066
1772794787680128000,6.7951279296875,0.2658709505677223,0.010030249496549367,-0.6588238280855119
1772794787690172200,6.805172119140625,0.38003216727674005,-0.045916824783384796,-0.6047044806893914
1772794787700217300,6.81521728515625,0.30719547912478445,-0.003441372625529766,-0.45241650855131443
1772794787710262300,6.82526220703125,0.10197568887472153,0.1107625141814351,-0.3046483519252389
1772794787720306200,6.83530615234375,-0.1786778202831745,0.295868321685493,-0.24534137275815007
1772794787730351000,6.84535107421875,-0.41542847482860085,0.5455677435226738,-0.21175153010636566
1772794787740395300,6.855395263671875,-0.5497586193412543,0.7090548628062009,-0.1728321629948914
1772794787750440200,6.865440185546875,-0.5874696335762739,1.0165583849668502,-0.10442081700451672
1772794787760485000,6.875485107421875,-0.6202548818469047,1.2114587335154414,0.10755305061563848
1772794787770529300,6.885529296875,-0.5794143374145031,1.3411625334016979,0.22867869950979947
1772794787780574200,6.89557421875,-0.3953191682577133,1.426883253046125,0.2571825441341847
1772794787790618000,6.9056181640625,-0.1210036299496889,1.3885438777796923,0.18210056127347052
1772794787800663300,6.915663330078125,0.21499533433318138,1.3183416297845543,0.08573869369253516
1772794787810707500,6.92570751953125,0.4645657229632139,1.1205191101789473,0.02152830652333796
1772794787820752100,6.935752197265625,0.6183931796282529,0.9308635304160415,-0.0819976074680686
1772794787830797300,6.94579736328125,0.6856178731173277,0.7554113941811025,-0.1640107778314501
1772794787840841200,6.95584130859375,0.6680939068645239,0.6127507898271084,-0.16412205618619918
1772794787850886100,6.96588623046875,0.6071195059418678,0.477938560885936,-0.14444785309694708
1772794787860930300,6.975930419921875,0.5614537333101034,0.35513591869026423,-0.11185052861385046
1772794787870975200,6.985975341796875,0.5787047278404236,0.26968320233225823,-0.07512202261015773
1772794787881019100,6.99601904296875,0.6334738443821668,0.2139376419737935,-0.01567366221100092
1772794787891064000,7.00606396484375,0.7521124987661838,0.19147329670935867,0.013648439993709325
1772794787901109200,7.016109130859375,0.8775666783839464,0.2308081127539277,0.04815620120801031
1772794787911153400,7.0261533203125,0.89298344322443,0.3694317166768014,0.057719783040881156
1772794787921198000,7.036197998046875,0.7812497459232807,0.4935203070297837,0.04487118818797171
1772794787931242200,7.0462421875,0.5580103148579597,0.5675758694522083,0.011806392323598265
1772794787941287200,7.056287109375,0.3019552403837442,0.6532334607325494,0.05981295592784881
1772794787951332400,7.066332275390625,0.08665537014603614,0.6913738062955439,0.11610146405659616
1772794787961376300,7.076376220703125,-0.03339782721102238,0.6616898850411176,0.19932642136253415
1772794787971421200,7.086421142578125,-0.0947661958873272,0.6424766505271196,0.2768893343187868
1772794787981465000,7.096465087890625,-0.08829261595904826,0.5754650152668357,0.23446685445718465
1772794787991510300,7.10651025390625,-0.02223871981501579,0.5272979273386299,0.12182758661843836
1772794788001554200,7.11655419921875,0.04225508740544319,0.3769777481421828,-0.037854952750355005
1772794788011599000,7.12659912109375,0.1108867250829935,0.20567586345449088,-0.14545286542102695
1772794788021644000,7.13664404296875,0.0919032076716423,0.06220949567556381,-0.18280498321577907
1772794788031688200,7.146688232421875,0.09891747034788131,-0.05086465644910931,-0.2209876335505396
1772794788041733400,7.1567333984375,0.15548223813474177,-0.12300532516092061,-0.28359781898148356
1772794788051777000,7.166777099609375,0.19731763882338998,-0.20052447204068302,-0.3339619785625487
1772794788061822200,7.176822265625,0.2604302208185196,-0.26253435349091886,-0.3241173878312111
1772794788071867100,7.1868671875,0.26901100215911866,-0.3055349985666573,-0.3199746620032936
1772794788081911000,7.1969111328125,0.2641021873295307,-0.35434082278981804,-0.2934410945385694
1772794788091956200,7.206956298828125,0.3040577656209469,-0.3838223533399403,-0.2616422269567847
1772794788102000000,7.217000244140625,0.34482758290469645,-0.42529272010847924,-0.21986542458757757
1772794788112045300,7.22704541015625,0.38905426264405246,-0.4809855273663997,-0.15141360045634208
1772794788122089200,7.237089111328125,0.4064484650373459,-0.5312006338655948,-0.13100333817750215
1772794788132134100,7.247134033203125,0.4320616297215223,-0.5907837265603244,-0.09981785325370729
1772794788142179300,7.257179443359375,0.48409050764441486,-0.6274675897046923,-0.04319185679890215
1772794788152223200,7.26722314453125,0.5192635278344154,-0.6858398453049361,-0.027461276768893
1772794788162268200,7.27726806640625,0.48139819982051846,-0.7163122865885496,0.013059899516031145
1772794788172312300,7.287312255859375,0.39086277337074277,-0.7355728673756122,0.015669935883954166
1772794788182357000,7.29735693359375,0.27538813597559925,-0.7594460565246641,0.026786080921068788
1772794788192402200,7.307402099609375,0.1360924780100584,-0.7768275455668568,0.010589563879743217
1772794788202446300,7.3174462890625,0.053667292779684066,-0.7767156096249819,0.062481809810921544
1772794788212491300,7.3274912109375,0.00755377638041973,-0.794035577738285,0.1288064126551151
1772794788222535200,7.33753515625,0.05005845463275909,-0.8533410225354134,0.16179807021804152
1772794788232580000,7.347580078125,0.15673311497867107,-0.8866603046175092,0.21013445029854774
1772794788242625300,7.357625244140625,0.24390637151896952,-0.9111755910623818,0.21839432912170886
1772794788252669200,7.367669189453125,0.2812421227008104,-0.9015027767013758,0.20822744763344525
1772794788262714000,7.377714111328125,0.19622282932400703,-0.864769083065912,0.19768807957097886
1772794788272758300,7.38775830078125,0.039377486142516134,-0.8341273496299981,0.25947759626880285
1772794788282803000,7.397802978515625,-0.10663374381363391,-0.8023352040499449,0.27176052006296814
1772794788292847000,7.40784716796875,-0.20537585759460925,-0.7708953790389,0.2175751947585493
1772794788302892300,7.417892333984375,-0.2431622751533985,-0.7741273466974496,0.16910663966573775
1772794788312937200,7.427937255859375,-0.21740122643113136,-0.7701197915565222,0.1299464495357126
1772794788322981000,7.437981201171875,-0.15269114611148835,-0.7655714806023984,0.02451367900967598
1772794788333026000,7.448026123046875,-0.154295658698678,-0.7673892706140876,-0.0772821232534945
1772794788343070200,7.4580703125,-0.18609131141006946,-0.7811160365410149,-0.17234152993373572
1772794788353115100,7.468115234375,-0.23613573751747607,-0.7230366994727403,-0.2709277955658734
1772794788363160000,7.47816015625,-0.3536222992569208,-0.6549987168394029,-0.2565738376513123
1772794788373204200,7.488204345703125,-0.46318625130355356,-0.5999057751707733,-0.2304495816398412
1772794788383249400,7.49824951171875,-0.5038274737715721,-0.5616399035319686,-0.19323285372778773
1772794788393293000,7.50829296875,-0.45312604506015774,-0.5688317147321998,-0.20131335739605127
1772794788403338200,7.518338134765625,-0.3398012791752815,-0.5718941710427403,-0.2379782966442406
1772794788413383200,7.528383056640625,-0.2379997778236866,-0.6362175901323557,-0.2725242709770799
1772794788423427000,7.538427001953125,-0.2074561710000038,-0.6835597715437411,-0.2624455792289227
1772794788433472300,7.54847216796875,-0.1980547209262848,-0.7116796583518386,-0.2557460085250437
1772794788443516200,7.55851611328125,-0.24184476281404493,-0.6942075684167445,-0.24464827592745422
1772794788453561000,7.56856103515625,-0.24202421103417873,-0.6596658318676054,-0.2894085510868579
1772794788463605200,7.578605224609375,-0.1975789201080799,-0.5983091536290943,-0.36141821383014316
1772794788473650200,7.588650146484375,-0.2174292834818363,-0.4984199156396091,-0.4728483250748366
1772794788483695400,7.5986953125,-0.33318916755914685,-0.3609424130119383,-0.5166833751481026
1772794788493739000,7.608739013671875,-0.4810089082419872,-0.1491878141656518,-0.5039378753434867
1772794788503784200,7.6187841796875,-0.6474521008521318,0.050449792037904256,-0.4805821341972798
1772794788513828400,7.628828369140625,-0.7562573434859514,0.3032834202475846,-0.44243798924200234
1772794788523873000,7.638873046875,-0.81994977119565,0.5070527194283903,-0.3782433841638267
1772794788533918200,7.648918212890625,-0.8149597078233957,0.731550479991734,-0.2971804271973669
1772794788543962400,7.65896240234375,-0.7578823143392801,0.8947171351492405,-0.2108127148862928
1772794788554007000,7.669007080078125,-0.6480068121254444,1.0069356933578848,-0.07630041873976588
1772794788564051200,7.67905126953125,-0.45941257798373697,1.0677559266321361,0.028615634435787796
1772794788574096100,7.68909619140625,-0.22008827355802058,1.0436103502824903,0.09068323742263018
1772794788584141300,7.699141357421875,0.013768997633457182,0.9391291083276271,0.16901165485866368
1772794788594185200,7.709185302734375,0.18873861104846,0.8492566758312284,0.1857102031379938
1772794788604230100,7.719230224609375,0.3047393181443214,0.7330566467709839,0.17342128799445927
1772794788614274300,7.7292744140625,0.38069910675287244,0.652791123792529,0.10367591692134738
1772794788624319000,7.739319091796875,0.43231648126542566,0.5716689839847385,0.061036433308199044
1772794788634364200,7.7493642578125,0.44623277841508385,0.5480471392482519,-0.002567658530920744
1772794788644408300,7.759408203125,0.4679793307989836,0.5720661666087806,-0.044347018183395266
1772794788654453200,7.769453369140625,0.4529653015404939,0.674485799858719,-0.04784012099616229
1772794788664497200,7.7794970703125,0.4286316552728414,0.8207578727081417,-0.04729622337780893
1772794788674542000,7.7895419921875,0.3659492813885212,0.9742737792059779,-0.04560797802992165
1772794788684587300,7.799587158203125,0.2798392701655626,1.079827326567471,-0.011914346210099756
1772794788694631200,7.809631103515625,0.22578970007002352,1.1997880233354865,0.08720361514594406
1772794788704676000,7.819676025390625,0.19066110354363916,1.2787798731163142,0.19956998432744294
1772794788714720300,7.82972021484375,0.2644464707225561,1.3150322129756211,0.282824423456192
1772794788724765200,7.83976513671875,0.400015801641345,1.3033087496951221,0.2947514099521562
1772794788734810000,7.84981005859375,0.522224131205678,1.2017030631765722,0.3126005895713344
1772794788744854300,7.859854248046875,0.5865589484721422,1.0572092520460485,0.3719036232156679
1772794788754899200,7.869899169921875,0.6292454130321741,0.9233676217027008,0.3382301208684221
1772794788764943000,7.879943115234375,0.5849766477167606,0.7820936494015157,0.2847133059427142
1772794788774988300,7.88998828125,0.5067272868663072,0.6449998853944242,0.2593825749291107
1772794788785033200,7.900033203125,0.4329512720376253,0.5764082874663173,0.2509486912459135
1772794788795077000,7.9100771484375,0.28808745855093,0.5480122140653431,0.21867921047769487
1772794788805122000,7.9201220703125,0.1439303320288658,0.553737898235768,0.13754611088447272
1772794788815166200,7.930166259765625,0.05893558857142925,0.5979927811563015,0.057953226470574735
1772794788825211400,7.94021142578125,0.017557284000515937,0.6306967808842658,0.05842552015744149
1772794788835256000,7.950256103515625,-0.006640753188729286,0.6758472974702715,0.0319229323528707
1772794788845300200,7.96030029296875,-0.06155716924667358,0.7015811659246682,0.04364676095955074
1772794788855345200,7.97034521484375,-0.13474340148866176,0.765687435132265,0.04248166270293295
1772794788865389000,7.98038916015625,-0.2281348018914461,0.7648644283115863,0.04825556992925703
1772794788875434200,7.990434326171875,-0.29608839417696,0.8089129750050604,0.021987521532922983
1772794788885477000,8.00047705078125,-0.3040904988467693,0.7333300568848848,0.005694193053618073
1772794788895522000,8.01052197265625,-0.31237960376441476,0.596257335665822,0.0754424867361784
1772794788905567200,8.020567138671876,-0.23002514568269253,0.4783674538224935,0.09702478846907615
1772794788915611400,8.030611328125,-0.06443418598771095,0.3187567375808954,0.09183058082684874
1772794788925656000,8.040656005859375,0.06445522877573967,0.1297116909317672,0.11151683968007564
1772794788935700200,8.0507001953125,0.14504326170682907,-0.01806523352265358,0.17316475595012307
1772794788945745200,8.0607451171875,0.16802724693119525,-0.12319047246947884,0.2590895467992872
1772794788955790300,8.070790283203126,0.19173720834255217,-0.20859335833638906,0.33483225859105586
1772794788965834200,8.080834228515625,0.26826398318409916,-0.3196184689767659,0.4123597349077463
1772794788975879200,8.090879150390625,0.37543198000490663,-0.42421676144003867,0.4248560091916471
1772794788985923300,8.10092333984375,0.4125853603571653,-0.5225160998895764,0.41960861005745825
1772794788995968000,8.110968017578125,0.43972763430476186,-0.6012272330328822,0.413933413965255
1772794789006013200,8.12101318359375,0.4023270011931658,-0.6653731035985052,0.4214466391395777
1772794789016057000,8.13105712890625,0.31009704578518865,-0.6850665228448808,0.4022827967252582
1772794789026102000,8.14110205078125,0.1603659185230732,-0.6979764924962073,0.4047189378309995
1772794789036146200,8.151146240234375,-0.007767126870155334,-0.7010990814961493,0.39827173445299263
1772794789046191000,8.161191162109375,-0.10303718062639236,-0.6993965153619647,0.29118988154567776
1772794789056236000,8.171236083984375,-0.18190145850479603,-0.6810166629321873,0.23110797248333692
1772794789066280200,8.1812802734375,-0.1946761844038963,-0.6469079109728336,0.281630829757452
1772794789076324900,8.191324951171875,-0.19680501312613485,-0.5787957671247422,0.3407398021344095
1772794789086370000,8.2013701171875,-0.15059738870263098,-0.5596598356306552,0.3951669733706861
1772794789096414200,8.211414306640625,-0.12559914104640482,-0.46099093321636314,0.4294374917630106
1772794789106459100,8.221459228515625,-0.13728782527446745,-0.37082083294764157,0.5264641799282282
1772794789116503000,8.2315029296875,-0.18947686219513415,-0.26457462714686986,0.6014421178925782
1772794789126548000,8.2415478515625,-0.2343915241986513,-0.19108312834799288,0.6915244668126106
1772794789136593200,8.25159326171875,-0.21399813998937606,-0.15520795123800635,0.7711084372676908
1772794789146637000,8.261636962890625,-0.11844751572608947,-0.18182269418016075,0.8189807069677859
1772794789156682000,8.271681884765625,0.011805588605999945,-0.26266499413326383,0.8666609612271189
1772794789166726100,8.28172607421875,0.11607201876640319,-0.3290985372446477,0.9124157273165882
1772794789176771000,8.29177099609375,0.16494623205065725,-0.3921699104465544,0.9141308606714009
1772794789186816000,8.30181591796875,0.1760427956044674,-0.3900048413671553,0.8835686952777206
1772794789196860200,8.311860107421875,0.2657195593982935,-0.2790565953552723,0.8344033170271664
1772794789206905000,8.321905029296875,0.4555190776765346,-0.1903399087652564,0.7584161289550364
1772794789216949000,8.331948974609375,0.6644453212291002,-0.18552637100368738,0.7523631855916232
1772794789226995000,8.341994873046875,0.8187573465406894,-0.19818258508965372,0.7279167996644973
1772794789237039000,8.3520390625,0.7822510319203138,-0.3195005416855216,0.6132469027809798
1772794789247084000,8.362083984375,0.5527537095040083,-0.3871216871462762,0.5146393751651048
1772794789257128000,8.3721279296875,0.15120821407735346,-0.49228068223223087,0.555984361988306
1772794789267173000,8.382173095703125,-0.1331289520293474,-0.722079033421725,0.6877224441811441
1772794789277218000,8.392218017578125,-0.4016033630937338,-0.8421024201624095,0.4961185798946768
1772794789287262000,8.402261962890625,-0.6617290480077266,-0.9134854023747145,0.21597462769411502
1772794789297307100,8.41230712890625,-0.8994447481930256,-0.8469263331875204,0.02194492450021207
1772794789307351000,8.42235107421875,-1.0857219375640152,-0.8223672076009213,-0.0627785277351737
1772794789317396200,8.432396240234375,-1.2897136473238466,-0.7949038850054144,-0.2095509513221681
1772794789327441000,8.44244091796875,-1.4931956539958715,-0.5657099294498562,-0.28845497668907044
