time,seconds_elapsed,z,y,x
1772794780950318600,0.065318603515625,-0.48256853222846985,-0.3281208872795105,-0.21022145450115204
1772794780960363500,0.075363525390625,-0.49588778614997864,-0.33491456508636475,-0.17843955755233765
1772794780970407400,0.085407470703125,-0.5066559910774231,-0.32316067814826965,-0.12501156330108643
1772794780980451600,0.09545166015625,-0.525057852268219,-0.324478417634964,-0.07860146462917328
1772794780990496500,0.10549658203125,-0.5498137474060059,-0.34553298354148865,-0.051736846566200256
1772794781000541200,0.115541259765625,-0.5820363759994507,-0.3859666883945465,-0.044510893523693085
1772794781010586400,0.12558642578125,-0.6168634295463562,-0.43090733885765076,-0.05369509011507034
1772794781020630000,0.135630126953125,-0.6441003680229187,-0.46959826350212097,-0.06369233131408691
1772794781030674200,0.145674072265625,-0.6633506417274475,-0.4878118932247162,-0.058650124818086624
1772794781040719400,0.15571923828125,-0.6816633343696594,-0.49509403109550476,-0.05821389704942703
1772794781050763000,0.165762939453125,-0.6992540955543518,-0.4975634515285492,-0.05932164192199707
1772794781060808200,0.17580810546875,-0.7087173461914062,-0.5124099850654602,-0.08165358006954193
1772794781070852400,0.185852294921875,-0.7208452820777893,-0.5430788397789001,-0.13432523608207703
1772794781080896300,0.195896240234375,-0.7345438003540039,-0.5811622738838196,-0.18980127573013306
1772794781090941200,0.205941162109375,-0.7487114667892456,-0.5987996459007263,-0.22912682592868805
1772794781100985300,0.2159853515625,-0.8239332437515259,-0.5839788913726807,-0.22866477072238922
1772794781111030000,0.226030029296875,-0.8823598027229309,-0.5671554803848267,-0.17567208409309387
1772794781121074200,0.23607421875,-0.876291811466217,-0.5332404375076294,-0.09370371699333191
1772794781131118000,0.2461181640625,-0.819446325302124,-0.5624048709869385,-0.04652801528573036
1772794781141163000,0.2561630859375,-0.7998079061508179,-0.5878511071205139,-0.027307715266942978
1772794781151207200,0.266207275390625,-0.8216750621795654,-0.6025919318199158,-0.032694511115550995
1772794781161252400,0.27625244140625,-0.8521708846092224,-0.6062031984329224,-0.04758664220571518
1772794781171296000,0.2862958984375,-0.8665497303009033,-0.589686930179596,-0.08512931317090988
1772794781181340200,0.296340087890625,-0.8656426668167114,-0.5407726764678955,-0.1245797872543335
1772794781191385300,0.30638525390625,-0.8656827807426453,-0.4440377652645111,-0.15771526098251343
1772794781201429200,0.31642919921875,-0.8755521774291992,-0.3364916145801544,-0.18378333747386932
1772794781211474200,0.32647412109375,-0.889708399772644,-0.26311367750167847,-0.2091977447271347
1772794781221518300,0.336518310546875,-0.9012590646743774,-0.23448441922664642,-0.2308066338300705
1772794781231563000,0.34656298828125,-0.9437012076377869,-0.23854580521583557,-0.2401806116104126
1772794781241607200,0.356607177734375,-0.9845826029777527,-0.24171124398708344,-0.2189917117357254
1772794781251651300,0.3666513671875,-0.9645575284957886,-0.20335491001605988,-0.16044703125953674
1772794781261696000,0.376696044921875,-0.930366039276123,-0.21213242411613464,-0.10036585479974747
1772794781271740200,0.386740234375,-0.941247284412384,-0.23453688621520996,-0.054398830980062485
1772794781281785300,0.396785400390625,-0.9665611982345581,-0.22469784319400787,-0.020867235958576202
1772794781291829000,0.4068291015625,-0.9680448770523071,-0.20225821435451508,0.005119534209370613
1772794781301873200,0.416873046875,-0.9508203864097595,-0.19224606454372406,0.008182436227798462
1772794781311918300,0.42691845703125,-0.913159966468811,-0.19419272243976593,-0.00830881204456091
1772794781321962200,0.436962158203125,-0.8786911964416504,-0.20175635814666748,-0.0305483378469944
1772794781332007200,0.447007080078125,-0.8344966769218445,-0.2221447229385376,-0.05390048772096634
1772794781342051300,0.45705126953125,-0.7944379448890686,-0.2424478679895401,-0.0645504742860794
1772794781352095200,0.46709521484375,-0.7517666220664978,-0.2882128357887268,-0.07455048710107803
1772794781362140200,0.47714013671875,-0.7103387117385864,-0.3451150059700012,-0.07244925200939178
1772794781372184300,0.487184326171875,-0.6767845153808594,-0.38359954953193665,-0.05864157900214195
1772794781382229000,0.49722900390625,-0.6700267195701599,-0.40400707721710205,-0.040724363178014755
1772794781392273200,0.507273193359375,-0.7220079302787781,-0.39146503806114197,-0.028470229357481003
1772794781402317300,0.5173173828125,-0.687262773513794,-0.33366140723228455,-0.009068833664059639
1772794781412362000,0.527362060546875,-0.6307597160339355,-0.25435870885849,-0.005756837781518698
1772794781422406100,0.53740625,-0.6229612231254578,-0.22623971104621887,-0.023695092648267746
1772794781432451300,0.547451416015625,-0.664280354976654,-0.19320818781852722,-0.0447770319879055
1772794781442495200,0.5574951171875,-0.7108665108680725,-0.15119576454162598,-0.07772325724363327
1772794781452540200,0.5675400390625,-0.7404211163520813,-0.10773535817861557,-0.1243823990225792
1772794781462584300,0.577584228515625,-0.7608622312545776,-0.08356930315494537,-0.16830672323703766
1772794781472628200,0.587628173828125,-0.7755328416824341,-0.08008983731269836,-0.19912029802799225
1772794781482673200,0.597673095703125,-0.7937741875648499,-0.08269840478897095,-0.1978590339422226
1772794781492717300,0.60771728515625,-0.8059316277503967,-0.08200975507497787,-0.17211319506168365
1772794781502762000,0.617761962890625,-0.7963743805885315,-0.06360837817192078,-0.13152343034744263
1772794781512806100,0.62780615234375,-0.7606713771820068,-0.015662014484405518,-0.07883419841527939
1772794781522850300,0.637850341796875,-0.7065189480781555,0.048622965812683105,-0.029880771413445473
1772794781532895000,0.64789501953125,-0.6864866614341736,0.10719680041074753,0.0012395966332405806
1772794781542939100,0.657939208984375,-0.6423330307006836,0.1425185650587082,0.024970225989818573
1772794781552984300,0.667984375,-0.5527950525283813,0.173166885972023,0.040186572819948196
1772794781563028200,0.6780283203125,-0.49340465664863586,0.1286848932504654,0.016836775466799736
1772794781573073200,0.6880732421875,-0.5081733465194702,0.0418216809630394,-0.05383714661002159
1772794781583117300,0.698117431640625,-0.5818076133728027,-0.05980241298675537,-0.143473282456398
1772794781593161200,0.7081611328125,-0.664415180683136,-0.16158653795719147,-0.23443388938903809
1772794781603206100,0.7182060546875,-0.7392588257789612,-0.26705944538116455,-0.30664578080177307
1772794781613250300,0.728250244140625,-0.7845084071159363,-0.37034493684768677,-0.35106369853019714
1772794781623295000,0.738294921875,-0.8049153685569763,-0.4277461767196655,-0.35594820976257324
1772794781633339100,0.748339111328125,-0.8010696172714233,-0.4388832151889801,-0.31385987997055054
1772794781643384300,0.75838427734375,-0.7698243856430054,-0.3958108425140381,-0.2428608238697052
1772794781653428000,0.768427978515625,-0.721186101436615,-0.30876901745796204,-0.16710765659809113
1772794781663472000,0.77847216796875,-0.6795473098754883,-0.2458616942167282,-0.10064394026994705
1772794781673517300,0.788517333984375,-0.6525070071220398,-0.24425135552883148,-0.03149378299713135
1772794781683561000,0.79856103515625,-0.6489948034286499,-0.2571421265602112,0.029967712238430977
1772794781693606100,0.808606201171875,-0.6487625241279602,-0.23874720931053162,0.0902436375617981
1772794781703650300,0.818650390625,-0.6251887679100037,-0.19811323285102844,0.1385885328054428
1772794781713694200,0.828694091796875,-0.6162582039833069,-0.21106557548046112,0.1401769369840622
1772794781723739100,0.8387392578125,-0.6556058526039124,-0.27882304787635803,0.09439852088689804
1772794781733783300,0.848783203125,-0.7275925874710083,-0.3490356206893921,0.034393396228551865
1772794781743828000,0.858827880859375,-0.8439053297042847,-0.3751969337463379,-0.02483850158751011
1772794781753872100,0.8688720703125,-0.9329128265380859,-0.3631278872489929,-0.0710737481713295
1772794781763917300,0.878917236328125,-1.0034583806991577,-0.3342339098453522,-0.11977364122867584
1772794781773961000,0.8889609375,-1.0873305797576904,-0.3335391581058502,-0.18498294055461884
1772794781784005000,0.899005126953125,-1.1959562301635742,-0.3459084630012512,-0.2644425928592682
1772794781794050300,0.90905029296875,-1.3078224658966064,-0.34321510791778564,-0.3327314853668213
1772794781804094000,0.919093994140625,-1.401247501373291,-0.3147751986980438,-0.3895617723464966
1772794781814139100,0.92913916015625,-1.469717264175415,-0.2714449167251587,-0.42853647470474243
1772794781824183300,0.939183349609375,-1.5139851570129395,-0.21922673285007477,-0.46070238947868347
1772794781834228200,0.949228271484375,-1.5181621313095093,-0.1479358822107315,-0.4795025885105133
1772794781844272000,0.959272216796875,-1.4864684343338013,-0.04011993855237961,-0.4749288856983185
1772794781854316300,0.96931640625,-1.4188085794448853,0.07497145235538483,-0.4637824296951294
1772794781864361200,0.979361328125,-1.331634759902954,0.1860114187002182,-0.4439043402671814
1772794781874405000,0.989405029296875,-1.2217285633087158,0.2973721921443939,-0.4200332760810852
1772794781884450300,0.9994501953125,-1.1054301261901855,0.3876760005950928,-0.39511728286743164
1772794781894494000,1.009493896484375,-0.9987144470214844,0.4351266324520111,-0.36555030941963196
1772794781904539100,1.0195390625,-0.9191546440124512,0.42014849185943604,-0.33220168948173523
1772794781914583300,1.029583251953125,-0.8660444021224976,0.35257428884506226,-0.2910953760147095
1772794781924627000,1.039626953125,-0.8304861187934875,0.28060662746429443,-0.24043595790863037
1772794781934672100,1.049672119140625,-0.8178873658180237,0.2345992922782898,-0.18651339411735535
1772794781944716300,1.05971630859375,-0.8162695169448853,0.1944630742073059,-0.14874418079853058
1772794781954761200,1.06976123046875,-0.8270422220230103,0.1686798334121704,-0.13502508401870728
1772794781964805000,1.07980517578125,-0.8368146419525146,0.1422937661409378,-0.14197567105293274
1772794781974850300,1.089850341796875,-0.8467314839363098,0.12364817410707474,-0.17049387097358704
1772794781984894200,1.099894287109375,-0.8543058037757874,0.11848484724760056,-0.20543614029884338
1772794781994938000,1.109938232421875,-0.8539827466011047,0.1046433299779892,-0.24669036269187927
1772794782004983300,1.1199833984375,-0.8468111157417297,0.08939007669687271,-0.2854529321193695
1772794782015027200,1.130027099609375,-0.8368788361549377,0.07666660845279694,-0.29977357387542725
1772794782025072000,1.140072021484375,-0.8252562880516052,0.082761250436306,-0.3005879819393158
1772794782035116300,1.1501162109375,-0.8138952255249023,0.08972211927175522,-0.2901911735534668
1772794782045161200,1.1601611328125,-0.7943044900894165,0.08964435756206512,-0.27990472316741943
1772794782055205000,1.170205078125,-0.7683255672454834,0.07900913059711456,-0.2594943940639496
1772794782065249300,1.180249267578125,-0.7530398368835449,0.07330571115016937,-0.23893292248249054
1772794782075294200,1.190294189453125,-0.7408676147460938,0.06046409532427788,-0.2082718014717102
1772794782085338000,1.200338134765625,-0.7224881052970886,0.03363727405667305,-0.17827661335468292
1772794782095383000,1.210383056640625,-0.6999660134315491,0.008523614145815372,-0.142082080245018
1772794782105427200,1.22042724609375,-0.6877506375312805,-0.009710783138871193,-0.10360739380121231
1772794782115472100,1.23047216796875,-0.6914498209953308,-0.026589397341012955,-0.07337841391563416
1772794782125516300,1.240516357421875,-0.7061989307403564,-0.04538466036319733,-0.06540969759225845
1772794782135561200,1.250561279296875,-0.7252951860427856,-0.06889542192220688,-0.07515140622854233
1772794782145605000,1.260605224609375,-0.7542884945869446,-0.09939926862716675,-0.10654661059379578
1772794782155649300,1.270649169921875,-0.789801836013794,-0.12886327505111694,-0.14823560416698456
1772794782165694200,1.280694091796875,-0.824472188949585,-0.14036306738853455,-0.18851403892040253
1772794782175738000,1.290738037109375,-0.859675407409668,-0.1271851509809494,-0.22812387347221375
1772794782185783000,1.300782958984375,-0.8747909665107727,-0.09985765069723129,-0.2646046578884125
1772794782195827200,1.3108271484375,-0.8759448528289795,-0.04993503913283348,-0.2886336147785187
1772794782205872000,1.3208720703125,-0.8618202209472656,0.019114598631858826,-0.28786876797676086
1772794782215916000,1.330916015625,-0.8339430093765259,0.09968993812799454,-0.2668820917606354
1772794782225960200,1.340960205078125,-0.7952225208282471,0.1822870820760727,-0.23891915380954742
1772794782236005000,1.351005126953125,-0.7432394623756409,0.2658040523529053,-0.20988936722278595
1772794782246049300,1.36104931640625,-0.7003924250602722,0.3420974910259247,-0.19354820251464844
1772794782256094200,1.37109423828125,-0.6702554225921631,0.3936774432659149,-0.1990889608860016
1772794782266138000,1.38113818359375,-0.6469159722328186,0.4174485504627228,-0.2250766158103943
1772794782276183000,1.39118310546875,-0.6273326277732849,0.40460658073425293,-0.2631377875804901
1772794782286227200,1.401227294921875,-0.6174008846282959,0.34214988350868225,-0.30348336696624756
1772794782296272400,1.4112724609375,-0.6231847405433655,0.25961819291114807,-0.32298511266708374
1772794782306316000,1.42131591796875,-0.6281190514564514,0.18350423872470856,-0.3283948004245758
1772794782316360200,1.431360107421875,-0.6348366737365723,0.11922287195920944,-0.3042730689048767
1772794782326405400,1.4414052734375,-0.6377429962158203,0.06265813112258911,-0.2762930989265442
1772794782336449000,1.451448974609375,-0.6354071497917175,0.016843341290950775,-0.2436971664428711
1772794782346494200,1.461494140625,-0.6218255758285522,-0.019203875213861465,-0.20896102488040924
1772794782356538000,1.4715380859375,-0.5998056530952454,-0.05161948502063751,-0.16922682523727417
1772794782366583000,1.4815830078125,-0.5751088261604309,-0.07326139509677887,-0.12875157594680786
1772794782376627200,1.491627197265625,-0.5547665357589722,-0.08241042494773865,-0.09424816071987152
1772794782386671000,1.501671142578125,-0.5369665026664734,-0.08562006801366806,-0.07358256727457047
1772794782396716000,1.511716064453125,-0.5214352011680603,-0.09284067898988724,-0.06815136224031448
1772794782406760200,1.52176025390625,-0.5092962384223938,-0.10650722682476044,-0.06623575091362
1772794782416805400,1.531805419921875,-0.4926083981990814,-0.12185631692409515,-0.06290200352668762
1772794782426849000,1.54184912109375,-0.48101967573165894,-0.1160932406783104,-0.04891134798526764
1772794782436894200,1.551894287109375,-0.4656452238559723,-0.10015187412500381,-0.03587113693356514
1772794782446938400,1.5619384765625,-0.456060528755188,-0.08693353831768036,-0.024550307542085648
1772794782456983000,1.571983154296875,-0.44692105054855347,-0.08922923356294632,-0.01898452267050743
1772794782467027200,1.582027099609375,-0.4382029175758362,-0.09604106843471527,-0.020748334005475044
1772794782477071400,1.5920712890625,-0.4398055970668793,-0.10236719250679016,-0.030397988855838776
1772794782487116000,1.602115966796875,-0.4508601129055023,-0.12016402930021286,-0.045510098338127136
1772794782497160200,1.61216015625,-0.46544307470321655,-0.14614738523960114,-0.056921783834695816
1772794782507205000,1.622205078125,-0.47537267208099365,-0.18021054565906525,-0.05486049875617027
1772794782517249000,1.6322490234375,-0.4678622782230377,-0.2118811309337616,-0.03402001038193703
1772794782527294200,1.642294189453125,-0.45112964510917664,-0.2209867537021637,0.007355658803135157
1772794782537338400,1.65233837890625,-0.42619097232818604,-0.2021232396364212,0.0629880353808403
1772794782547383000,1.662383056640625,-0.4155780076980591,-0.19257314503192902,0.10774938762187958
1772794782557427200,1.67242724609375,-0.4151608645915985,-0.19503149390220642,0.1364920288324356
1772794782567471400,1.682471435546875,-0.410828173160553,-0.21967612206935883,0.14680352807044983
1772794782577516000,1.69251611328125,-0.40633726119995117,-0.25049108266830444,0.14580515027046204
1772794782587560200,1.702560302734375,-0.40613165497779846,-0.28528526425361633,0.1275869905948639
1772794782597605000,1.712605224609375,-0.40023526549339294,-0.317735493183136,0.10084795951843262
1772794782607649000,1.72264892578125,-0.40166565775871277,-0.3606022596359253,0.07455243915319443
1772794782617694200,1.732694091796875,-0.39708101749420166,-0.386231392621994,0.053958434611558914
1772794782627738000,1.742738037109375,-0.4028947055339813,-0.38913530111312866,0.052825793623924255
1772794782637783300,1.752783203125,-0.4035221338272095,-0.35779428482055664,0.0757165476679802
1772794782647827200,1.7628271484375,-0.39036157727241516,-0.2941306233406067,0.10418414324522018
1772794782657872100,1.7728720703125,-0.36064058542251587,-0.2042059749364853,0.14009009301662445
1772794782667916000,1.782916015625,-0.32968026399612427,-0.09373857825994492,0.17619456350803375
1772794782677960200,1.792960205078125,-0.304081529378891,0.00586085906252265,0.20645277202129364
1772794782688005000,1.803005126953125,-0.2864375412464142,0.07406308501958847,0.22848564386367798
1772794782698049000,1.813049072265625,-0.2685982584953308,0.1334955394268036,0.2471761852502823
1772794782708094200,1.82309423828125,-0.25043925642967224,0.18481118977069855,0.2453889399766922
1772794782718138000,1.83313818359375,-0.22690914571285248,0.2146068960428238,0.22670286893844604
1772794782728183300,1.843183349609375,-0.2108023464679718,0.22616688907146454,0.19287219643592834
1772794782738227200,1.853227294921875,-0.2004288285970688,0.20191805064678192,0.1500525176525116
1772794782748272000,1.863272216796875,-0.19659627974033356,0.15022315084934235,0.10433882474899292
1772794782758316300,1.87331640625,-0.1916394680738449,0.06861867010593414,0.07355424016714096
1772794782768360200,1.883360107421875,-0.1937556266784668,-0.011668981052935123,0.05929993838071823
1772794782778405000,1.893405029296875,-0.20236799120903015,-0.0750497579574585,0.05244596302509308
1772794782788449300,1.90344921875,-0.2162555754184723,-0.13311518728733063,0.05605960637331009
1772794782798494200,1.913494140625,-0.23505792021751404,-0.18492421507835388,0.05307217687368393
1772794782808538000,1.9235380859375,-0.25645214319229126,-0.21230603754520416,0.04797675088047981
1772794782818583300,1.933583251953125,-0.2757326066493988,-0.21483534574508667,0.04006458446383476
1772794782828627200,1.943627197265625,-0.29559579491615295,-0.20034082233905792,0.0388517826795578
1772794782838672100,1.953672119140625,-0.3100550174713135,-0.1863042712211609,0.03658619150519371
1772794782848716300,1.96371630859375,-0.31784582138061523,-0.16584719717502594,0.02960205078125
1772794782858761000,1.973760986328125,-0.3121924102306366,-0.12736637890338898,0.02074994519352913
1772794782868805000,1.98380517578125,-0.29218408465385437,-0.07467147707939148,0.01925697736442089
1772794782878849300,1.993849365234375,-0.26493531465530396,-0.00948084332048893,0.01825699768960476
1772794782888894200,2.003894287109375,-0.22325895726680756,0.06649541854858398,0.021479688584804535
1772794782898938000,2.013938232421875,-0.17504888772964478,0.15472182631492615,0.025481225922703743
1772794782908983300,2.0239833984375,-0.1279149204492569,0.2319987714290619,0.026754483580589294
1772794782919027200,2.034027099609375,-0.08714768290519714,0.28293201327323914,0.019697589799761772
1772794782929072000,2.044072021484375,-0.05581878870725632,0.3154987394809723,-0.007345213554799557
1772794782939116300,2.0541162109375,-0.03461379557847977,0.33424806594848633,-0.044634610414505005
1772794782949161000,2.064160888671875,-0.03840586915612221,0.3105030655860901,-0.09265565872192383
1772794782959205000,2.074205078125,-0.067425936460495,0.2508388161659241,-0.1357695311307907
1772794782969250300,2.084250244140625,-0.1169964149594307,0.1908452808856964,-0.16921430826187134
1772794782979294000,2.0942939453125,-0.1758328229188919,0.13394896686077118,-0.2002454698085785
1772794782989339100,2.104339111328125,-0.23978784680366516,0.07901355624198914,-0.23330700397491455
1772794782999383000,2.114383056640625,-0.3052012622356415,0.03532811254262924,-0.276058167219162
1772794783009427000,2.124427001953125,-0.366546630859375,-0.005025166552513838,-0.31480929255485535
1772794783019472100,2.13447216796875,-0.4257102906703949,-0.05022049322724342,-0.3556106686592102
1772794783029516000,2.14451611328125,-0.4913870394229889,-0.09002836048603058,-0.3897465467453003
1772794783039561000,2.15456103515625,-0.5065301656723022,-0.09860220551490784,-0.3980349898338318
1772794783049605000,2.164605224609375,-0.5051769614219666,-0.13946469128131866,-0.41336336731910706
1772794783059650000,2.174650146484375,-0.524466335773468,-0.21632307767868042,-0.43855708837509155
1772794783069694000,2.18469384765625,-0.5446704030036926,-0.2830948829650879,-0.461577445268631
1772794783079739100,2.1947392578125,-0.5414032340049744,-0.3089444637298584,-0.46393442153930664
1772794783089783000,2.204782958984375,-0.5239856243133545,-0.30296728014945984,-0.4521821439266205
1772794783099828000,2.214827880859375,-0.5019852519035339,-0.28868573904037476,-0.4198930859565735
1772794783109872000,2.2248720703125,-0.46336570382118225,-0.23960313200950623,-0.3784710764884949
1772794783119916000,2.234916015625,-0.4001615047454834,-0.14813517034053802,-0.33046820759773254
1772794783129961000,2.2449609375,-0.329656183719635,-0.06695669889450073,-0.28676626086235046
1772794783140005000,2.255005126953125,-0.25202739238739014,0.001196898054331541,-0.25230827927589417
1772794783150050000,2.265050048828125,-0.1881280541419983,0.04111235588788986,-0.2302626222372055
1772794783160094000,2.275093994140625,-0.13249333202838898,0.036816246807575226,-0.212754026055336
1772794783170139100,2.28513916015625,-0.08693782985210419,0.014091492630541325,-0.1939060389995575
1772794783180183000,2.29518310546875,-0.05025748535990715,-0.010368671268224716,-0.15857063233852386
1772794783190228000,2.30522802734375,-0.032054513692855835,-0.02399207279086113,-0.11552542448043823
1772794783200272100,2.315272216796875,-0.029126212000846863,-0.01773722656071186,-0.07113249599933624
1772794783210317000,2.325317138671875,-0.052079468965530396,-0.00916024949401617,-0.04333095625042915
1772794783220361000,2.33536083984375,-0.044616688042879105,0.007622681092470884,-0.023176399990916252
1772794783230406100,2.34540625,-0.027508273720741272,0.025518856942653656,-0.016134735196828842
1772794783240450000,2.355449951171875,-0.021127043291926384,0.012489665299654007,-0.027740860357880592
1772794783250495000,2.365494873046875,-0.02633219212293625,0.02418147586286068,-0.038166336715221405
1772794783260539100,2.3755390625,-0.0378836952149868,0.04146682471036911,-0.03405876085162163
1772794783270583000,2.3855830078125,-0.044884346425533295,0.03911525011062622,-0.02522292733192444
1772794783280628000,2.3956279296875,-0.05491785332560539,0.026499584317207336,-0.0088572446256876
1772794783290672000,2.405672119140625,-0.06121835857629776,0.035341013222932816,0.011135637760162354
1772794783300717000,2.415717041015625,-0.07186263054609299,0.04296773672103882,0.022785361856222153
1772794783310761000,2.425760986328125,-0.09014656394720078,0.036987610161304474,0.02258535847067833
1772794783320806100,2.43580615234375,-0.100615493953228,0.009162096306681633,0.015028397552669048
1772794783330850000,2.44585009765625,-0.09505348652601242,-0.028476092964410782,0.01656291075050831
1772794783340895000,2.45589501953125,-0.07257648557424545,-0.04341196268796921,0.027555735781788826
1772794783350939100,2.465939208984375,-0.0479947105050087,-0.036063503473997116,0.053647786378860474
1772794783360984000,2.475984130859375,-0.02171187289059162,-0.018935635685920715,0.08454199880361557
1772794783371028000,2.486028076171875,0.018581487238407135,-0.004596376791596413,0.11921662837266922
1772794783381073000,2.496072998046875,0.06671478599309921,0.01862061582505703,0.16188576817512512
1772794783391117000,2.506116943359375,0.12800291180610657,0.055535756051540375,0.21389783918857574
1772794783401162200,2.516162353515625,0.18648019433021545,0.0952245444059372,0.2762296497821808
1772794783411206000,2.526205810546875,0.22300198674201965,0.09680992364883423,0.3217960596084595
1772794783421250000,2.53625,0.22879256308078766,0.030206458643078804,0.36401158571243286
1772794783431295200,2.546295166015625,0.21667252480983734,-0.0652228593826294,0.388545423746109
1772794783441339100,2.556339111328125,0.18634657561779022,-0.14482273161411285,0.4117946922779083
1772794783451384000,2.566384033203125,0.14456184208393097,-0.20255233347415924,0.41786429286003113
1772794783461428000,2.576427978515625,0.09106828272342682,-0.23189204931259155,0.4126231074333191
1772794783471473000,2.586472900390625,0.03727136179804802,-0.2581438720226288,0.3991568386554718
1772794783481517000,2.59651708984375,-0.014885324984788895,-0.2798602283000946,0.38424164056777954
1772794783491562200,2.606562255859375,-0.03774190694093704,-0.25012603402137756,0.3754098117351532
1772794783501606000,2.61660595703125,-0.043304428458213806,-0.17488378286361694,0.3748322129249573
1772794783511651000,2.626651123046875,-0.03374367952346802,-0.05150751769542694,0.3744271695613861
1772794783521695200,2.6366953125,-0.03130360320210457,0.06838791072368622,0.36098578572273254
1772794783531740000,2.646739990234375,-0.024366868659853935,0.1263289749622345,0.33881497383117676
1772794783541784000,2.6567841796875,-0.02150358445942402,0.11859485507011414,0.3085084557533264
1772794783551829000,2.6668291015625,-0.013100779615342617,0.07770414650440216,0.29222267866134644
1772794783561873000,2.676872802734375,-0.009166521951556206,0.0360458567738533,0.2888892590999603
1772794783571918000,2.68691796875,-0.012128489091992378,0.01292615756392479,0.29826653003692627
1772794783581962000,2.6969619140625,-0.021242180839180946,-0.011215586215257645,0.3030497133731842
1772794783592006000,2.707005859375,-0.03310656547546387,-0.028237178921699524,0.2996467053890228
1772794783602051000,2.717051025390625,-0.04412125051021576,-0.023688731715083122,0.27580317854881287
1772794783612095200,2.72709521484375,-0.04798655956983566,-0.002477451227605343,0.24313923716545105
1772794783622140000,2.737139892578125,-0.04070359468460083,0.04599203169345856,0.1988746076822281
1772794783632184000,2.74718408203125,-0.02176053076982498,0.11613623052835464,0.1571921557188034
1772794783642229000,2.75722900390625,0.01695919781923294,0.20156250894069672,0.12563495337963104
1772794783652273000,2.76727294921875,0.07625794410705566,0.3006376624107361,0.1107148602604866
1772794783662318000,2.777318115234375,0.16023048758506775,0.41691306233406067,0.11190065741539001
1772794783672362000,2.787362060546875,0.2556014955043793,0.5224429368972778,0.12792596220970154
1772794783682407200,2.7974072265625,0.32948946952819824,0.5878876447677612,0.13894160091876984
1772794783692451000,2.807451171875,0.3836294114589691,0.5971413254737854,0.1482086032629013
1772794783702496000,2.81749609375,0.41238588094711304,0.5592886805534363,0.1493927389383316
1772794783712540200,2.8275400390625,0.41315633058547974,0.48394837975502014,0.15102311968803406
1772794783722585000,2.837585205078125,0.3889532685279846,0.3666699230670929,0.14774934947490692
1772794783732629000,2.84762890625,0.33830714225769043,0.23266097903251648,0.14002804458141327
1772794783742674200,2.857674072265625,0.2827155292034149,0.08984338492155075,0.1279524713754654
1772794783752718000,2.867718017578125,0.23344571888446808,-0.03488603234291077,0.11121877282857895
1772794783762763000,2.877762939453125,0.19864699244499207,-0.12437490373849869,0.08589796721935272
1772794783772807200,2.88780712890625,0.17201857268810272,-0.18049196898937225,0.04772607982158661
1772794783782851800,2.897851806640625,0.14052219688892365,-0.22442981600761414,0.0010759516153484583
1772794783792896000,2.90789599609375,0.10579244792461395,-0.24259096384048462,-0.050980061292648315
1772794783802940200,2.917940185546875,0.06577268987894058,-0.23426644504070282,-0.10431550443172455
1772794783812984800,2.92798486328125,0.02081746608018875,-0.23778606951236725,-0.15705114603042603
1772794783823029000,2.938029052734375,-0.022464217618107796,-0.2641587257385254,-0.19956225156784058
1772794783833074200,2.94807421875,-0.05261679366230965,-0.30149200558662415,-0.21156084537506104
1772794783843118000,2.9581181640625,-0.06713341921567917,-0.3005090057849884,-0.20422197878360748
1772794783853163000,2.9681630859375,-0.06783755868673325,-0.24496771395206451,-0.18756256997585297
1772794783863207200,2.978207275390625,-0.05846627801656723,-0.167647585272789,-0.1718302071094513
1772794783873252000,2.988252197265625,-0.04787461832165718,-0.10865910351276398,-0.1642010509967804
1772794783883296000,2.9982958984375,-0.03539106249809265,-0.08556535094976425,-0.16324831545352936
1772794783893341200,3.008341064453125,-0.027541128918528557,-0.06977573782205582,-0.15878166258335114
1772794783903385000,3.018385009765625,-0.029917260631918907,-0.05634607374668121,-0.1615142971277237
1772794783913430000,3.028429931640625,-0.034178320318460464,-0.03207056224346161,-0.16474151611328125
1772794783923474200,3.03847412109375,-0.03083762899041176,0.00982944667339325,-0.16864103078842163
1772794783933519000,3.04851904296875,-0.03471466153860092,0.0633091852068901,-0.17784757912158966
1772794783943563000,3.05856298828125,-0.05255335196852684,0.08686386048793793,-0.19547176361083984
1772794783953608000,3.06860791015625,-0.07494600862264633,0.06723237037658691,-0.22362616658210754
1772794783963652000,3.078652099609375,-0.09160342812538147,0.030645042657852173,-0.2540857195854187
1772794783973697000,3.088697021484375,-0.10315542668104172,0.00629230123013258,-0.276553750038147
1772794783983741000,3.098740966796875,-0.11421959102153778,0.007729904260486364,-0.2847318947315216
1772794783993786000,3.1087861328125,-0.12611141800880432,0.012996573001146317,-0.2862192690372467
1772794784003830000,3.118830078125,-0.14380858838558197,0.013410715386271477,-0.2887079417705536
1772794784013875000,3.128875,-0.16145390272140503,0.008157895877957344,-0.29676133394241333
1772794784023918800,3.1389189453125,-0.18501104414463043,0.018819401040673256,-0.30657172203063965
1772794784033964000,3.148964111328125,-0.2168901413679123,0.036612510681152344,-0.3225669264793396
1772794784044008000,3.159008056640625,-0.24061381816864014,0.047711558640003204,-0.34787264466285706
1772794784054051800,3.1690517578125,-0.26376545429229736,0.0461200550198555,-0.37538257241249084
1772794784064097000,3.179096923828125,-0.28426700830459595,0.026302091777324677,-0.40277817845344543
1772794784074141000,3.189140869140625,-0.3016872704029083,-0.00613840576261282,-0.41794276237487793
1772794784084185900,3.199185791015625,-0.3101596534252167,-0.02180589735507965,-0.4067839980125427
1772794784094230000,3.20922998046875,-0.31441912055015564,-0.009244832210242748,-0.37401992082595825
1772794784104275000,3.21927490234375,-0.300788015127182,0.013642899692058563,-0.3374682664871216
1772794784114318800,3.22931884765625,-0.28066277503967285,0.034049902111291885,-0.29148611426353455
1772794784124363800,3.23936376953125,-0.2584932744503021,0.04733072221279144,-0.2578258216381073
1772794784134408000,3.249407958984375,-0.24304665625095367,0.048503577709198,-0.22736723721027374
1772794784144452900,3.259452880859375,-0.22729983925819397,0.04833096265792847,-0.19304493069648743
1772794784154497000,3.2694970703125,-0.20605766773223877,0.05515078455209732,-0.15956659615039825
1772794784164542000,3.2795419921875,-0.18433032929897308,0.06489501893520355,-0.12306342273950577
1772794784174585900,3.2895859375,-0.1712755262851715,0.07292498648166656,-0.09603500366210938
1772794784184630800,3.299630859375,-0.14826570451259613,0.06790945678949356,-0.07071958482265472
1772794784194675000,3.309675048828125,-0.11764414608478546,0.08527327328920364,-0.04680173471570015
1772794784204720000,3.31972021484375,-0.08161420375108719,0.09586615860462189,-0.02289205603301525
1772794784214763800,3.329763671875,-0.043859630823135376,0.10522051155567169,0.008353215642273426
1772794784224809000,3.33980908203125,-0.002847905969247222,0.12401165068149567,0.04367837309837341
1772794784234853000,3.34985302734375,0.02666551060974598,0.14536674320697784,0.07943877577781677
1772794784244897800,3.359897705078125,0.05249598249793053,0.14841274917125702,0.10099346935749054
1772794784254942000,3.36994189453125,0.06642511487007141,0.1277138590812683,0.10155247151851654
1772794784264987000,3.37998681640625,0.09779378771781921,0.06261183321475983,0.09601090848445892
1772794784275030800,3.39003076171875,0.11224303394556046,0.014582794159650803,0.09750574082136154
1772794784285076000,3.400075927734375,0.07079217582941055,-0.08055482804775238,0.09180216491222382
1772794784295120100,3.4101201171875,0.024827348068356514,-0.24255385994911194,0.0861157774925232
1772794784305164800,3.420164794921875,0.01649250090122223,-0.40625011920928955,0.08862604945898056
1772794784315209000,3.430208984375,0.04261518269777298,-0.5124942660331726,0.10351604968309402
1772794784325254000,3.44025390625,0.06901519000530243,-0.5392447710037231,0.1435682773590088
1772794784335297800,3.4502978515625,0.09548594057559967,-0.4862461984157562,0.19980065524578094
1772794784345343000,3.460343017578125,0.12607397139072418,-0.39119312167167664,0.2576678693294525
1772794784355387000,3.470386962890625,0.16267167031764984,-0.2977992594242096,0.3059195578098297
1772794784365432000,3.48043212890625,0.1934671401977539,-0.20400039851665497,0.356765478849411
1772794784375476000,3.49047607421875,0.20727136731147766,-0.11184730380773544,0.40747207403182983
1772794784385521000,3.50052099609375,0.19036781787872314,-0.025343455374240875,0.4537549912929535
1772794784395565000,3.51056494140625,0.15933506190776825,0.0367867648601532,0.4833794832229614
1772794784405609700,3.520609619140625,0.1457511931657791,0.09173334389925003,0.5010877251625061
1772794784415654000,3.53065380859375,0.1499432772397995,0.15811637043952942,0.4992397427558899
1772794784425699000,3.540698974609375,0.16476789116859436,0.21360835433006287,0.48355716466903687
1772794784435743000,3.550742919921875,0.1864020824432373,0.2571592926979065,0.4582270383834839
1772794784445788000,3.560787841796875,0.21701779961585999,0.3033227324485779,0.43044233322143555
1772794784455832000,3.57083203125,0.2580408453941345,0.3458384871482849,0.40617987513542175
1772794784465876700,3.580876708984375,0.3023989796638489,0.4025125503540039,0.397068589925766
1772794784475921000,3.5909208984375,0.3452652096748352,0.45559707283973694,0.40232059359550476
1772794784485965000,3.600965087890625,0.3780195116996765,0.4918627440929413,0.41355693340301514
1772794784496009700,3.611009765625,0.3918466567993164,0.5126639008522034,0.42653316259384155
1772794784506055000,3.621054931640625,0.3891564905643463,0.5240982174873352,0.4380057752132416
1772794784516099000,3.63109912109375,0.3692232668399811,0.5364379286766052,0.43051618337631226
1772794784526142700,3.641142822265625,0.3516303598880768,0.5404157638549805,0.4032077491283417
1772794784536188000,3.65118798828125,0.3365382254123688,0.531692624092102,0.35560160875320435
1772794784546232000,3.661232177734375,0.3065631091594696,0.4886702299118042,0.29267221689224243
1772794784556277000,3.671277099609375,0.2587745487689972,0.4034655690193176,0.22067366540431976
1772794784566321000,3.68132080078125,0.2135554552078247,0.30221545696258545,0.14405231177806854
1772794784576365800,3.69136572265625,0.18163374066352844,0.21469226479530334,0.05662073940038681
1772794784586409700,3.70140966796875,0.15581490099430084,0.15193533897399902,-0.03899119794368744
1772794784596455000,3.711454833984375,0.1314866542816162,0.11845222115516663,-0.13987413048744202
1772794784606499000,3.7214990234375,0.11368370801210403,0.09331406652927399,-0.2481267899274826
1772794784616544000,3.7315439453125,0.10688918828964233,0.03704120218753815,-0.34126153588294983
1772794784626588000,3.741587890625,0.11572159826755524,-0.02943406254053116,-0.3891246020793915
1772794784636632800,3.7516328125,0.13491740822792053,-0.08467654138803482,-0.39842888712882996
1772794784646677000,3.761677001953125,0.15087205171585083,-0.11355672776699066,-0.38305380940437317
1772794784656722000,3.771721923828125,0.1743565946817398,-0.13038603961467743,-0.36110618710517883
1772794784666765800,3.781765869140625,0.19600819051265717,-0.1318882703781128,-0.3412918150424957
1772794784676811000,3.79181103515625,0.21314376592636108,-0.11349380761384964,-0.31986933946609497
1772794784686855000,3.80185498046875,0.21994736790657043,-0.08929600566625595,-0.3031162619590759
1772794784696899800,3.81189990234375,0.2257453352212906,-0.06607164442539215,-0.2947520911693573
1772794784706944000,3.821944091796875,0.2241959124803543,-0.04233637824654579,-0.28797072172164917
1772794784716989000,3.831989013671875,0.24068620800971985,-0.03106614761054516,-0.2777242064476013
1772794784727032800,3.84203271484375,0.2640196979045868,-0.006759649142622948,-0.25152647495269775
1772794784737078000,3.852078125,0.2893034815788269,0.03942648693919182,-0.2101534754037857
1772794784747122000,3.862121826171875,0.31182828545570374,0.08358804881572723,-0.170558899641037
1772794784757166800,3.872166748046875,0.3332509994506836,0.1127704381942749,-0.13996531069278717
1772794784767211000,3.8822109375,0.3485289514064789,0.12092576175928116,-0.12478812783956528
1772794784777256000,3.892255859375,0.3566475808620453,0.11878617852926254,-0.1252206265926361
1772794784787299800,3.9022998046875,0.3558160364627838,0.1086917594075203,-0.13286371529102325
1772794784797345000,3.912344970703125,0.35778170824050903,0.09977149963378906,-0.15079611539840698
1772794784807389000,3.922388916015625,0.3636060357093811,0.09956324100494385,-0.16987286508083344
1772794784817433900,3.932433837890625,0.37686780095100403,0.1113104447722435,-0.18694372475147247
1772794784827478000,3.94247802734375,0.38835427165031433,0.11874811351299286,-0.20432378351688385
1772794784837523000,3.95252294921875,0.40374547243118286,0.11433632671833038,-0.21743878722190857
1772794784847566800,3.96256689453125,0.4177802503108978,0.09798408299684525,-0.23070724308490753
1772794784857611800,3.97261181640625,0.4317631721496582,0.07236526906490326,-0.2412285953760147
1772794784867656000,3.982656005859375,0.44999340176582336,0.04788172245025635,-0.23514671623706818
1772794784877700900,3.992700927734375,0.46617743372917175,0.019042616710066795,-0.21674028038978577
1772794784887744000,4.002743896484375,0.48435649275779724,-0.008307809941470623,-0.19422182440757751
1772794784897789000,4.012788818359375,0.5016467571258545,-0.028807491064071655,-0.15965399146080017
1772794784907832800,4.022832763671875,0.5265816450119019,-0.025389239192008972,-0.1210218146443367
1772794784917878000,4.0328779296875,0.5478893518447876,-0.011404979974031448,-0.08111913502216339
1772794784927922000,4.042921875,0.5701876878738403,0.006590892560780048,-0.04148310422897339
1772794784937966800,4.052966796875,0.589942216873169,0.0346829816699028,-0.007196503691375256
1772794784948011000,4.063010986328125,0.6098336577415466,0.05869128555059433,0.029279273003339767
1772794784958056000,4.073055908203125,0.6252413988113403,0.07849055528640747,0.0625794380903244
1772794784968099800,4.083099853515625,0.6443977355957031,0.09570292383432388,0.09395168721675873
1772794784978144800,4.093144775390625,0.6534332633018494,0.10804986953735352,0.12908650934696198
1772794784988189000,4.10318896484375,0.6606496572494507,0.11193233728408813,0.15925414860248566
1772794784998234000,4.113234130859375,0.6651738286018372,0.10094413161277771,0.18650734424591064
1772794785008277800,4.12327783203125,0.6558257341384888,0.07532235980033875,0.21423961222171783
1772794785018322700,4.13332275390625,0.6378472447395325,0.04410558193922043,0.24104326963424683
1772794785028366600,4.14336669921875,0.6058586239814758,0.02297152765095234,0.2621996998786926
1772794785038411500,4.15341162109375,0.5707128643989563,0.019029783084988594,0.2828506529331207
1772794785048455400,4.163455322265625,0.5393104553222656,0.032749585807323456,0.3009452819824219
1772794785058500600,4.17350048828125,0.5214448571205139,0.051280390471220016,0.31421899795532227
1772794785068544500,4.18354443359375,0.5113595724105835,0.06619580835103989,0.3269983232021332
1772794785078589700,4.193589599609375,0.5019287467002869,0.05515540391206741,0.33002686500549316
1772794785088633600,4.203633544921875,0.49440842866897583,0.0038634203374385834,0.32007303833961487
1772794785098678500,4.213678466796875,0.47997620701789856,-0.07558133453130722,0.28939715027809143
1772794785108722700,4.22372265625,0.43210920691490173,-0.17979271709918976,0.2623908817768097
1772794785118767600,4.233767578125,0.3522617816925049,-0.2822312116622925,0.24037852883338928
1772794785128811500,4.2438115234375,0.24598856270313263,-0.37614020705223083,0.21605488657951355
1772794785138856700,4.253856689453125,0.13432194292545319,-0.4262411892414093,0.18882033228874207
1772794785148900600,4.263900634765625,0.0435260646045208,-0.4211634695529938,0.16147565841674805
1772794785158945500,4.273945556640625,-0.009643415920436382,-0.3357604146003723,0.12868894636631012
1772794785168989700,4.28398974609375,0.009467684663832188,-0.17613545060157776,0.10375788062810898
1772794785179034400,4.294034423828125,0.08710841834545135,0.028062691912055016,0.08454344421625137
1772794785189079600,4.30407958984375,0.19691403210163116,0.22224916517734528,0.07786374539136887
1772794785199123700,4.314123779296875,0.30674999952316284,0.36964288353919983,0.08613578975200653
1772794785209168600,4.324168701171875,0.43070119619369507,0.4438628554344177,0.11234790831804276
1772794785219212500,4.334212646484375,0.5686116814613342,0.4671969413757324,0.14591199159622192
1772794785229257500,4.344257568359375,0.6996068358421326,0.44897228479385376,0.19853371381759644
1772794785239301600,4.354301513671875,0.8052871823310852,0.39087992906570435,0.2489936798810959
1772794785249346600,4.3643466796875,0.8805142641067505,0.2878197133541107,0.30185332894325256
1772794785259390700,4.374390625,0.9268410205841064,0.1601344645023346,0.3459603488445282
1772794785269436700,4.384436767578125,0.9400519728660583,0.00957697443664074,0.3778305649757385
1772794785279480600,4.39448046875,0.9199647903442383,-0.1567494124174118,0.38849306106567383
1772794785289525500,4.404525390625,0.8738502860069275,-0.3093559443950653,0.3744778633117676
1772794785299569700,4.414569580078125,0.8064388036727905,-0.4196142852306366,0.3405110836029053
1772794785309614600,4.424614501953125,0.7176512479782104,-0.473401814699173,0.2866551876068115
1772794785319658500,4.434658447265625,0.6147613525390625,-0.4684451222419739,0.22145037353038788
1772794785329703700,4.44470361328125,0.50979083776474,-0.4264533817768097,0.14935187995433807
1772794785339747600,4.45474755859375,0.42600783705711365,-0.35759976506233215,0.07372184097766876
1772794785349792500,4.46479248046875,0.3700301945209503,-0.2646578252315521,0.015231714583933353
1772794785359836700,4.474836669921875,0.34627291560173035,-0.15664216876029968,-0.031071335077285767
1772794785369881600,4.484881591796875,0.3468892276287079,-0.031148575246334076,-0.06272101402282715
1772794785379925500,4.494925537109375,0.3689679205417633,0.09261970967054367,-0.08497066050767899
1772794785389970400,4.504970458984375,0.3859895169734955,0.1624409705400467,-0.11131662875413895
1772794785400014600,4.5150146484375,0.3783978819847107,0.18546506762504578,-0.12982851266860962
1772794785410059800,4.525059814453125,0.35542529821395874,0.18251849710941315,-0.14096371829509735
1772794785420103400,4.535103515625,0.32415899634361267,0.17514793574810028,-0.1334964781999588
1772794785430148600,4.545148681640625,0.29923388361930847,0.17950263619422913,-0.10860034078359604
1772794785440193500,4.555193603515625,0.2668434679508209,0.18285395205020905,-0.06357827037572861
1772794785450237400,4.565237548828125,0.21800436079502106,0.16692472994327545,-0.019308531656861305
1772794785460282600,4.57528271484375,0.16987624764442444,0.132493257522583,0.009209662675857544
1772794785470326800,4.585326904296875,0.13434487581253052,0.10589376837015152,0.022568723186850548
1772794785480371500,4.595371337890625,0.09607205539941788,0.07962488383054733,0.00958208553493023
1772794785490415600,4.60541552734375,0.05790136009454727,0.036751002073287964,-0.023292003199458122
1772794785500460500,4.61546044921875,0.022381450980901718,-0.021434005349874496,-0.06654280424118042
1772794785510504400,4.62550439453125,-0.00436434056609869,-0.06661457568407059,-0.10166029632091522
1772794785520549600,4.635549560546875,-0.01375224906951189,-0.08852998912334442,-0.12179779261350632
1772794785530593500,4.645593505859375,-0.015335192903876305,-0.09559012949466705,-0.12839461863040924
1772794785540638700,4.655638671875,-0.012435010634362698,-0.09795288741588593,-0.12445367127656937
1772794785550682600,4.6656826171875,0.005839284509420395,-0.08389513939619064,-0.1184905618429184
1772794785560727600,4.6757275390625,0.040312040597200394,-0.057494156062603,-0.11455361545085907
1772794785570771700,4.685771728515625,0.07765047252178192,-0.02401399426162243,-0.1068941131234169
1772794785580816400,4.69581640625,0.12969529628753662,0.017461277544498444,-0.10562991350889206
1772794785590860500,4.705860595703125,0.19058184325695038,0.06450772285461426,-0.10727159678936005
1772794785600905700,4.71590576171875,0.24307753145694733,0.09725475311279297,-0.10860397666692734
1772794785610949600,4.72594970703125,0.2857509255409241,0.11788210272789001,-0.11687103658914566
1772794785620994600,4.73599462890625,0.31679725646972656,0.11756198853254318,-0.12117923051118851
1772794785631038700,4.746038818359375,0.3316614329814911,0.1072821393609047,-0.1317460834980011
1772794785641083400,4.75608349609375,0.32719796895980835,0.08137304335832596,-0.14928299188613892
1772794785651127600,4.76612744140625,0.31323689222335815,0.0157606303691864,-0.180201917886734
1772794785661172700,4.7761728515625,0.28707531094551086,-0.07022804766893387,-0.21862362325191498
1772794785671217700,4.7862177734375,0.24274933338165283,-0.14979180693626404,-0.2616121172904968
1772794785681261600,4.796261474609375,0.18822696805000305,-0.2227722704410553,-0.30166125297546387
1772794785691306500,4.806306396484375,0.13879930973052979,-0.2975234091281891,-0.33469706773757935
1772794785701350700,4.8163505859375,0.10478381812572479,-0.35824909806251526,-0.34806346893310547
1772794785711395600,4.8263955078125,0.08543193340301514,-0.39546963572502136,-0.33274635672569275
1772794785721439500,4.836439453125,0.06659912317991257,-0.41649502515792847,-0.2923525869846344
1772794785731484700,4.846484619140625,0.044009968638420105,-0.4094816744327545,-0.2366732507944107
1772794785741528600,4.856528564453125,0.0023978096432983875,-0.38231584429740906,-0.17643414437770844
1772794785751573500,4.866573486328125,-0.008504579775035381,-0.3533104658126831,-0.12951073050498962
1772794785761617700,4.87661767578125,0.0017398018389940262,-0.3059823513031006,-0.09144456684589386
1772794785771662600,4.88666259765625,0.002214672975242138,-0.23797819018363953,-0.06397013366222382
1772794785781706500,4.89670654296875,-0.013791457749903202,-0.17242901027202606,-0.039716996252536774
1772794785791751700,4.906751708984375,-0.03631873428821564,-0.11872697621583939,-0.013494584709405899
1772794785801795600,4.916795654296875,-0.05367002636194229,-0.0881754606962204,0.011531406082212925
1772794785811840500,4.926840576171875,-0.062370799481868744,-0.06893235445022583,0.0319582037627697
1772794785821884700,4.936884765625,-0.06443635374307632,-0.05425248295068741,0.05303739011287689
1772794785831929600,4.9469296875,-0.05075564980506897,-0.038179341703653336,0.05320658162236214
1772794785841974500,4.956974609375,-0.0357988066971302,-0.02701590210199356,0.047301556915044785
1772794785852018700,4.967018798828125,-0.018439816311001778,-0.01162661798298359,0.029017427936196327
1772794785862063600,4.977063720703125,-0.010765120387077332,0.00026359688490629196,-0.0026179966516792774
1772794785872107500,4.987107421875,-0.011340382508933544,0.0008769738487899303,-0.0307649876922369
1772794785882152400,4.99715234375,-0.021961068734526634,-0.0024277428165078163,-0.05827570706605911
1772794785892196600,5.007196533203125,-0.04115552455186844,0.0007077041082084179,-0.06478512287139893
1772794785902241800,5.01724169921875,-0.054196227341890335,0.02263057976961136,-0.059463586658239365
1772794785912285400,5.027285400390625,-0.056172776967287064,0.026166997849941254,-0.045705992728471756
1772794785922330600,5.03733056640625,-0.06552766263484955,-0.003586901817470789,-0.037460848689079285
1772794785932374500,5.04737451171875,-0.09221555292606354,-0.05845726281404495,-0.03378744050860405
1772794785942419500,5.05741943359375,-0.13625891506671906,-0.11510030180215836,-0.032382622361183167
1772794785952463600,5.067463623046875,-0.1908791959285736,-0.16323594748973846,-0.025846002623438835
1772794785962508800,5.0775087890625,-0.26851406693458557,-0.2275017499923706,-0.017842672765254974
1772794785972552400,5.087552490234375,-0.3516536056995392,-0.30209267139434814,-0.0018908572383224964
1772794785982597600,5.09759765625,-0.43922847509384155,-0.38268154859542847,0.015297982841730118
1772794785992642600,5.107642578125,-0.5088759064674377,-0.43780943751335144,0.033387407660484314
1772794786002687000,5.11768701171875,-0.5415758490562439,-0.4360395073890686,0.047892846167087555
1772794786012732000,5.12773193359375,-0.5330060720443726,-0.3510364592075348,0.04758074879646301
1772794786022776000,5.137776123046875,-0.525198757648468,-0.23179715871810913,0.027748988941311836
1772794786032821000,5.147821044921875,-0.45548585057258606,-0.1293480396270752,-0.005807123612612486
1772794786042865200,5.157865234375,-0.34596017003059387,-0.02343679405748844,-0.04634576290845871
1772794786052910000,5.16791015625,-0.2409629225730896,0.04549555853009224,-0.07583163678646088
1772794786062954000,5.1779541015625,-0.1817467361688614,0.08091694116592407,-0.082293801009655
1772794786072999000,5.1879990234375,-0.15715841948986053,0.08372101187705994,-0.061994630843400955
1772794786083043000,5.19804296875,-0.1343947798013687,0.06645281612873077,-0.014455609954893589
1772794786093088300,5.208088134765625,-0.10172072052955627,0.06560815870761871,0.05913061276078224
1772794786103132000,5.2181318359375,-0.07533998042345047,0.09572425484657288,0.14832228422164917
1772794786113177000,5.228177001953125,-0.042771659791469574,0.15098686516284943,0.24414850771427155
1772794786123222000,5.238221923828125,-0.012567685917019844,0.21149468421936035,0.337145060300827
1772794786133266000,5.248265869140625,0.026066021993756294,0.27822422981262207,0.4243302047252655
1772794786143311000,5.25831103515625,0.06753703206777573,0.3535882234573364,0.4880649745464325
1772794786153355000,5.26835498046875,0.12231612205505371,0.41553032398223877,0.5202877521514893
1772794786163400000,5.27839990234375,0.18130619823932648,0.45714861154556274,0.5223045349121094
1772794786173444000,5.288444091796875,0.23816102743148804,0.4775142967700958,0.4945421814918518
1772794786183489000,5.298489013671875,0.28712135553359985,0.487180233001709,0.44759464263916016
1772794786193533000,5.308532958984375,0.3109744191169739,0.48774203658103943,0.39092886447906494
1772794786203578000,5.318578125,0.30128368735313416,0.47889819741249084,0.32166802883148193
1772794786213622000,5.3286220703125,0.2798488736152649,0.433041512966156,0.249227836728096
1772794786223667200,5.338667236328125,0.24132651090621948,0.34570980072021484,0.1750289648771286
1772794786233711000,5.348711181640625,0.19562125205993652,0.22784240543842316,0.09931045025587082
1772794786243756000,5.358756103515625,0.1311839371919632,0.09108509123325348,0.045730315148830414
1772794786253801200,5.36880126953125,0.06380541622638702,-0.024477839469909668,-0.007092838641256094
1772794786263844900,5.378844970703125,0.013694573193788528,-0.10077261179685593,-0.05560338497161865
1772794786273890000,5.38889013671875,-0.014792894944548607,-0.14119671285152435,-0.09807980060577393
1772794786283934200,5.398934326171875,-0.03190689906477928,-0.15785984694957733,-0.12821026146411896
1772794786293979000,5.408978759765625,-0.03770527243614197,-0.18072938919067383,-0.1477978378534317
1772794786304023000,5.41902294921875,-0.031675077974796295,-0.17650215327739716,-0.14303822815418243
1772794786314068000,5.42906787109375,0.003028673119843006,-0.13001427054405212,-0.11775877326726913
1772794786324112000,5.43911181640625,0.06554850935935974,-0.05120440945029259,-0.08222714066505432
1772794786334157000,5.449156982421875,0.1574738621711731,0.04837048426270485,-0.05383846536278725
1772794786344201000,5.459200927734375,0.2512187361717224,0.13327552378177643,-0.022272281348705292
1772794786354246100,5.46924609375,0.33056145906448364,0.18840278685092926,0.008433614857494831
1772794786364291000,5.479291015625,0.3821530044078827,0.20881032943725586,0.04199397191405296
1772794786374335000,5.4893349609375,0.4184553921222687,0.213836669921875,0.07590222358703613
1772794786384380200,5.499380126953125,0.45978233218193054,0.21008189022541046,0.10745029151439667
1772794786394424000,5.509424072265625,0.4950169324874878,0.19913674890995026,0.11836365610361099
1772794786404469000,5.519468994140625,0.5173861384391785,0.184249147772789,0.11670610308647156
1772794786414513200,5.52951318359375,0.5303115248680115,0.17144609987735748,0.09511338174343109
1772794786424558000,5.53955810546875,0.5401484370231628,0.16050530970096588,0.06641728430986404
1772794786434602000,5.54960205078125,0.5510274171829224,0.158235102891922,0.03106262907385826
1772794786444647200,5.559647216796875,0.5656809210777283,0.1676027774810791,-0.004824795760214329
1772794786454690800,5.56969091796875,0.5847747325897217,0.17747996747493744,-0.034188613295555115
1772794786464736000,5.579736083984375,0.6151067614555359,0.17051739990711212,-0.05303100869059563
1772794786474781000,5.589781005859375,0.6444790959358215,0.1423843652009964,-0.07362929731607437
1772794786484825000,5.5998251953125,0.6662467122077942,0.10512912273406982,-0.08780211210250854
1772794786494870000,5.6098701171875,0.6920436024665833,0.06582378596067429,-0.09474118798971176
1772794786504914000,5.619913818359375,0.7147344946861267,0.0344831719994545,-0.09573161602020264
1772794786514959000,5.629958984375,0.729605495929718,-0.0012385756708681583,-0.08232910931110382
1772794786525003000,5.6400029296875,0.751564085483551,-0.028084836900234222,-0.05513450875878334
1772794786535048000,5.6500478515625,0.7790512442588806,-0.04215838387608528,-0.01159835048019886
1772794786545092000,5.660092041015625,0.8084421753883362,-0.042123496532440186,0.04278819262981415
1772794786555137300,5.67013720703125,0.8353228569030762,-0.030562281608581543,0.08518339693546295
1772794786565181000,5.680180908203125,0.864776611328125,-0.004766638390719891,0.12072195112705231
1772794786575226000,5.69022607421875,0.8925676941871643,0.02647271752357483,0.1337089240550995
1772794786585271000,5.70027099609375,0.9226819276809692,0.06260062009096146,0.13592946529388428
1772794786595315000,5.71031494140625,0.9489977359771729,0.10759474337100983,0.13017036020755768
1772794786605360000,5.720360107421875,0.9677895307540894,0.1611330658197403,0.12050521373748779
1772794786615404000,5.730404052734375,0.9890820384025574,0.20934265851974487,0.11074899137020111
1772794786625449000,5.740448974609375,0.9963857531547546,0.22280840575695038,0.1047171950340271
1772794786635493000,5.7504931640625,0.9814496636390686,0.18221336603164673,0.11153218150138855
1772794786645538000,5.7605380859375,0.959151029586792,0.10716282576322556,0.14120912551879883
1772794786655582000,5.77058203125,0.9247986674308777,0.03593594208359718,0.18887421488761902
1772794786665627000,5.780626953125,0.8916947841644287,-0.005824553780257702,0.2442978024482727
1772794786675672000,5.790672119140625,0.8713622689247131,-0.007096587214618921,0.2947451174259186
1772794786685716200,5.80071630859375,0.8550501465797424,0.010157767683267593,0.3282916247844696
1772794786695761000,5.810760986328125,0.8411639332771301,0.030886057764291763,0.3500146269798279
1772794786705805000,5.82080517578125,0.8249735236167908,0.052984435111284256,0.35727548599243164
1772794786715850200,5.830850341796875,0.8228163719177246,0.08493763208389282,0.3611449897289276
1772794786725894000,5.840893798828125,0.8264281153678894,0.12910109758377075,0.3651040494441986
1772794786735939000,5.85093896484375,0.8342671394348145,0.16392134130001068,0.3604438006877899
1772794786745983200,5.860983154296875,0.8258448839187622,0.16592085361480713,0.344522088766098
1772794786756028000,5.87102783203125,0.8069759011268616,0.14494994282722473,0.31443703174591064
1772794786766073000,5.881072998046875,0.7649946212768555,0.0909479558467865,0.2766694128513336
1772794786776117000,5.891116943359375,0.705989420413971,0.02962633967399597,0.24903504550457
1772794786786162200,5.901162109375,0.6512790322303772,-0.020412594079971313,0.24148817360401154
1772794786796206000,5.9112060546875,0.6089813709259033,-0.05322028324007988,0.26720890402793884
1772794786806251000,5.9212509765625,0.5711450576782227,-0.08374863862991333,0.3117114007472992
1772794786816295200,5.931295166015625,0.5576326847076416,-0.09364030510187149,0.35828518867492676
1772794786826339800,5.94133984375,0.56620192527771,-0.052735745906829834,0.39535000920295715
1772794786836384000,5.951384033203125,0.5948387384414673,0.03220508620142937,0.4053439199924469
1772794786846429200,5.96142919921875,0.6248983144760132,0.14214330911636353,0.38473638892173767
1772794786856474000,5.97147412109375,0.6605809926986694,0.2339816689491272,0.3416527807712555
1772794786866518000,5.98151806640625,0.6815416216850281,0.27869826555252075,0.2889573276042938
1772794786876563200,5.991563232421875,0.6966363191604614,0.26760804653167725,0.24182076752185822
1772794786886606800,6.00160693359375,0.7119279503822327,0.22482864558696747,0.21507863700389862
1772794786896652000,6.011652099609375,0.7199837565422058,0.17656230926513672,0.21141865849494934
1772794786906696200,6.0216962890625,0.7195629477500916,0.12604427337646484,0.22498106956481934
1772794786916741000,6.0317412109375,0.7201285362243652,0.10077275335788727,0.2491411715745926
1772794786926785000,6.041784912109375,0.7266681790351868,0.09867072105407715,0.26626503467559814
1772794786936830000,6.051829833984375,0.731541633605957,0.11733851581811905,0.26200661063194275
1772794786946875100,6.061875244140625,0.744777262210846,0.13739636540412903,0.23114214837551117
1772794786956919000,6.0719189453125,0.7581974864006042,0.1698262095451355,0.1913055181503296
1772794786966964000,6.0819638671875,0.7753149271011353,0.20973367989063263,0.13879862427711487
1772794786977008000,6.092008056640625,0.7915557026863098,0.24189716577529907,0.09646270424127579
1772794786987053000,6.102052978515625,0.8114647269248962,0.2689998745918274,0.06404989957809448
1772794786997097000,6.112096923828125,0.8343977332115173,0.2963722050189972,0.05339394509792328
1772794787007142400,6.122142333984375,0.8606663346290588,0.33952420949935913,0.057773515582084656
1772794787017186000,6.13218603515625,0.8931841850280762,0.3773132562637329,0.06758975982666016
1772794787027231200,6.142231201171875,0.9304394125938416,0.39541396498680115,0.07335124164819717
1772794787037276200,6.152276123046875,0.9631560444831848,0.3851158320903778,0.06721556931734085
1772794787047320000,6.162320068359375,0.9905610084533691,0.33851078152656555,0.049555085599422455
1772794787057365200,6.172365234375,1.0097529888153076,0.27046623826026917,0.02457377314567566
1772794787067409200,6.1824091796875,1.0114853382110596,0.18568237125873566,-0.013430068269371986
1772794787077454300,6.192454345703125,0.9873011708259583,0.07926423102617264,-0.05397821217775345
1772794787087498200,6.202498291015625,0.9401962161064148,-0.040508512407541275,-0.09182438999414444
1772794787097543200,6.212543212890625,0.8814215660095215,-0.15007154643535614,-0.11300896853208542
1772794787107588400,6.22258837890625,0.8284896612167358,-0.20923925936222076,-0.12408292293548584
1772794787117632300,6.23263232421875,0.7791639566421509,-0.24048861861228943,-0.11681720614433289
1772794787127677200,6.24267724609375,0.7298043966293335,-0.26980260014533997,-0.11044132709503174
1772794787137721300,6.252721435546875,0.6803379654884338,-0.2937796413898468,-0.11175466328859329
1772794787147766000,6.26276611328125,0.6371539831161499,-0.3214688003063202,-0.13163036108016968
1772794787157810200,6.27281005859375,0.603870689868927,-0.3392601013183594,-0.17791900038719177
1772794787167855400,6.28285546875,0.5956098437309265,-0.33598628640174866,-0.21827280521392822
1772794787177899000,6.29289892578125,0.5980508327484131,-0.32295742630958557,-0.24833285808563232
1772794787187944200,6.302944091796875,0.6024268865585327,-0.2919345200061798,-0.2555151581764221
1772794787197989000,6.312989013671875,0.616797149181366,-0.2505370080471039,-0.24065233767032623
1772794787208033300,6.323033203125,0.6449288725852966,-0.18734151124954224,-0.21095356345176697
1772794787218078200,6.333078125,0.678831934928894,-0.11649085581302643,-0.17372752726078033
1772794787228122000,6.3431220703125,0.6984817981719971,-0.055263713002204895,-0.14040552079677582
1772794787238167300,6.353167236328125,0.7106049656867981,0.007498996797949076,-0.11515739560127258
1772794787248211200,6.363211181640625,0.7056150436401367,0.0493343286216259,-0.09229255467653275
1772794787258256100,6.373256103515625,0.6733996272087097,0.04195919260382652,-0.07205039262771606
1772794787268301300,6.38330126953125,0.6258835196495056,0.008685125969350338,-0.05383703112602234
1772794787278345200,6.39334521484375,0.5810998678207397,-0.02167234756052494,-0.02981710433959961
1772794787288390100,6.40339013671875,0.5321695804595947,-0.053654249757528305,-0.009093981236219406
1772794787298434300,6.413434326171875,0.49637365341186523,-0.06283961236476898,0.0010544335236772895
1772794787308479200,6.423479248046875,0.475054532289505,-0.048842571675777435,-0.0030558891594409943
1772794787318523100,6.433523193359375,0.45223453640937805,-0.020442551001906395,-0.013606133870780468
1772794787328568300,6.443568359375,0.4215557277202606,-0.006465482525527477,-0.03501075878739357
1772794787338612200,6.4536123046875,0.3805769383907318,-0.013606742024421692,-0.0550614632666111
1772794787348657200,6.4636572265625,0.326322466135025,-0.03556264191865921,-0.06449916958808899
1772794787358702000,6.4737021484375,0.2643241286277771,-0.07455243170261383,-0.052947402000427246
1772794787368746200,6.483746337890625,0.20166578888893127,-0.12236043810844421,-0.04248863458633423
1772794787378791200,6.493791259765625,0.15194544196128845,-0.1465291976928711,-0.03211694583296776
1772794787388835000,6.5038349609375,0.12518920004367828,-0.13255426287651062,-0.01338640321046114
1772794787398880300,6.51388037109375,0.11032550036907196,-0.08469684422016144,-0.0007279881974682212
1772794787408924200,6.523924072265625,0.12033019959926605,-0.0069344001822173595,0.015592928044497967
1772794787418969000,6.533968994140625,0.1532479077577591,0.08712013810873032,0.028972454369068146
1772794787429014300,6.54401416015625,0.20330281555652618,0.17125952243804932,0.04555436223745346
1772794787439058200,6.55405810546875,0.24726517498493195,0.23173211514949799,0.060915011912584305
1772794787449103000,6.56410302734375,0.28237682580947876,0.2495603710412979,0.06954392045736313
1772794787459147300,6.574147216796875,0.3036326766014099,0.23464994132518768,0.06631872802972794
1772794787469192200,6.584192138671875,0.3175216019153595,0.18813809752464294,0.05555875971913338
1772794787479236000,6.594236083984375,0.3203510642051697,0.1356443613767624,0.041421081870794296
1772794787489281300,6.60428125,0.31697842478752136,0.08813755214214325,0.034072622656822205
1772794787499326200,6.614326171875,0.30528032779693604,0.03862067312002182,0.04574459046125412
1772794787509370400,6.624370361328125,0.3033199906349182,-0.0039614057168364525,0.07693447172641754
1772794787519415000,6.6344150390625,0.31135764718055725,-0.03363887965679169,0.1356004774570465
1772794787529459200,6.644459228515625,0.33053505420684814,-0.05806379392743111,0.2102595418691635
1772794787539504400,6.65450439453125,0.3408157229423523,-0.0682002529501915,0.2828012704849243
1772794787549548000,6.664548095703125,0.35480451583862305,-0.06833421438932419,0.34506863355636597
1772794787559593200,6.67459326171875,0.3747025728225708,-0.06200495362281799,0.38805076479911804
1772794787569638100,6.68463818359375,0.39113134145736694,-0.08990422636270523,0.4000786542892456
1772794787579682000,6.69468212890625,0.38125813007354736,-0.15993595123291016,0.39488300681114197
1772794787589727200,6.704727294921875,0.342916339635849,-0.22655199468135834,0.3920704424381256
1772794787599771100,6.714771240234375,0.29671403765678406,-0.29679545760154724,0.411642462015152
1772794787609816300,6.72481640625,0.2549801766872406,-0.3315427899360657,0.4568445682525635
1772794787619860200,6.734860107421875,0.22292159497737885,-0.2716604173183441,0.5095329880714417
1772794787629905200,6.7449052734375,0.1935541182756424,-0.10357236117124557,0.5489714741706848
1772794787639950300,6.754950439453125,0.16411148011684418,0.12095927447080612,0.534609854221344
1772794787649994200,6.764994140625,0.1433502733707428,0.34420567750930786,0.43991929292678833
1772794787660039200,6.7750390625,0.13116802275180817,0.5029159188270569,0.2825402617454529
1772794787670083300,6.785083251953125,0.1036040335893631,0.5837274193763733,0.09721780568361282
1772794787680128000,6.7951279296875,0.06527316570281982,0.5928510427474976,-0.09768415987491608
1772794787690172200,6.805172119140625,0.02537369169294834,0.5562258958816528,-0.24488718807697296
1772794787700217300,6.81521728515625,-0.006903930567204952,0.45876580476760864,-0.31999826431274414
1772794787710262300,6.82526220703125,-0.036792319267988205,0.32022950053215027,-0.3191298246383667
1772794787720306200,6.83530615234375,-0.06602073460817337,0.17998585104942322,-0.253795862197876
1772794787730351000,6.84535107421875,-0.11280634999275208,0.05037911981344223,-0.149978905916214
1772794787740395300,6.855395263671875,-0.10430066287517548,-0.06406563520431519,-0.02052008919417858
1772794787750440200,6.865440185546875,-0.04143008589744568,-0.08835899084806442,0.12072545289993286
1772794787760485000,6.875485107421875,0.0502152219414711,-0.04516085237264633,0.24379561841487885
1772794787770529300,6.885529296875,0.1453007161617279,0.026436634361743927,0.3367021381855011
1772794787780574200,6.89557421875,0.21496376395225525,0.1098199114203453,0.370978444814682
1772794787790618000,6.9056181640625,0.2796095907688141,0.16969603300094604,0.35706183314323425
1772794787800663300,6.915663330078125,0.3239177167415619,0.20845013856887817,0.3114543557167053
1772794787810707500,6.92570751953125,0.3489527404308319,0.22538863122463226,0.2573826014995575
1772794787820752100,6.935752197265625,0.3490615487098694,0.21689626574516296,0.21184015274047852
1772794787830797300,6.94579736328125,0.33823341131210327,0.19271211326122284,0.19143661856651306
1772794787840841200,6.95584130859375,0.3117169737815857,0.15873116254806519,0.1882350891828537
1772794787850886100,6.96588623046875,0.2847883999347687,0.15091824531555176,0.17989380657672882
1772794787860930300,6.975930419921875,0.26151272654533386,0.17589610815048218,0.15613777935504913
1772794787870975200,6.985975341796875,0.24024659395217896,0.20194076001644135,0.10170675069093704
1772794787881019100,6.99601904296875,0.21971538662910461,0.22075968980789185,0.017162635922431946
1772794787891064000,7.00606396484375,0.20539237558841705,0.21974582970142365,-0.08528517931699753
1772794787901109200,7.016109130859375,0.19917261600494385,0.19055332243442535,-0.18774659931659698
1772794787911153400,7.0261533203125,0.19398558139801025,0.1266542375087738,-0.2549101710319519
1772794787921198000,7.036197998046875,0.18853020668029785,0.04765994846820831,-0.28749945759773254
1772794787931242200,7.0462421875,0.19555562734603882,-0.022206218913197517,-0.2840363085269928
1772794787941287200,7.056287109375,0.21618759632110596,-0.06498042494058609,-0.25378450751304626
1772794787951332400,7.066332275390625,0.24852050840854645,-0.08528570085763931,-0.2185458093881607
1772794787961376300,7.076376220703125,0.29977861046791077,-0.08245684206485748,-0.18253512680530548
1772794787971421200,7.086421142578125,0.3564853072166443,-0.04727568477392197,-0.14824825525283813
1772794787981465000,7.096465087890625,0.4004685580730438,0.0028148707933723927,-0.12725375592708588
1772794787991510300,7.10651025390625,0.4261794984340668,0.04080406576395035,-0.1209159716963768
1772794788001554200,7.11655419921875,0.43612220883369446,0.05792175233364105,-0.13173264265060425
1772794788011599000,7.12659912109375,0.4413793087005615,0.07352548092603683,-0.13952133059501648
1772794788021644000,7.13664404296875,0.44741445779800415,0.10023404657840729,-0.1399388611316681
1772794788031688200,7.146688232421875,0.4424852132797241,0.11620635539293289,-0.13323195278644562
1772794788041733400,7.1567333984375,0.43197768926620483,0.1065489798784256,-0.12077505886554718
1772794788051777000,7.166777099609375,0.4220432937145233,0.08556513488292694,-0.10424428433179855
1772794788061822200,7.176822265625,0.409831166267395,0.06361707299947739,-0.08813469856977463
1772794788071867100,7.1868671875,0.4062233865261078,0.05724093317985535,-0.06853969395160675
1772794788081911000,7.1969111328125,0.4061630666255951,0.05840439721941948,-0.04745424538850784
1772794788091956200,7.206956298828125,0.4053784906864166,0.04204859584569931,-0.028111174702644348
1772794788102000000,7.217000244140625,0.406061053276062,0.013038016855716705,-0.01738278567790985
1772794788112045300,7.22704541015625,0.40551668405532837,-0.01073255855590105,-0.019586550071835518
1772794788122089200,7.237089111328125,0.40850764513015747,-0.01056207250803709,-0.02582554705440998
1772794788132134100,7.247134033203125,0.4128730893135071,0.004750570748001337,-0.05308566614985466
1772794788142179300,7.257179443359375,0.41923990845680237,0.011651037260890007,-0.08984710276126862
1772794788152223200,7.26722314453125,0.43004968762397766,0.014411404728889465,-0.12526048719882965
1772794788162268200,7.27726806640625,0.43963438272476196,0.0023241150192916393,-0.14633408188819885
1772794788172312300,7.287312255859375,0.44692906737327576,-0.001392593141645193,-0.13964368402957916
1772794788182357000,7.29735693359375,0.44826751947402954,0.0010727960616350174,-0.11504574865102768
1772794788192402200,7.307402099609375,0.453464150428772,0.013588055968284607,-0.07928535342216492
1772794788202446300,7.3174462890625,0.4615887999534607,0.03437022492289543,-0.044987697154283524
1772794788212491300,7.3274912109375,0.4714030921459198,0.05397428572177887,-0.020156117156147957
1772794788222535200,7.33753515625,0.4813273847103119,0.07344339042901993,-0.015269022434949875
1772794788232580000,7.347580078125,0.4861149489879608,0.07122816890478134,-0.023276349529623985
1772794788242625300,7.357625244140625,0.47972989082336426,0.04126325994729996,-0.03235131874680519
1772794788252669200,7.367669189453125,0.4748792052268982,-0.004116474185138941,-0.02807481400668621
1772794788262714000,7.377714111328125,0.48024192452430725,-0.033717382699251175,0.0022836835123598576
1772794788272758300,7.38775830078125,0.4847826063632965,-0.04734131693840027,0.04264815151691437
1772794788282803000,7.397802978515625,0.4991903305053711,-0.043814681470394135,0.08552268892526627
1772794788292847000,7.40784716796875,0.5092149972915649,-0.021122153848409653,0.11733227968215942
1772794788302892300,7.417892333984375,0.5149509906768799,0.006247541401535273,0.13818252086639404
1772794788312937200,7.427937255859375,0.5210227370262146,0.04110592231154442,0.1490016132593155
1772794788322981000,7.437981201171875,0.5224400758743286,0.0642300397157669,0.15322230756282806
1772794788333026000,7.448026123046875,0.5091549158096313,0.05416782200336456,0.16262699663639069
1772794788343070200,7.4580703125,0.48143860697746277,0.028259102255105972,0.18765953183174133
1772794788353115100,7.468115234375,0.46035036444664,0.01572413370013237,0.22697603702545166
1772794788363160000,7.47816015625,0.45334377884864807,0.04369908571243286,0.27856627106666565
1772794788373204200,7.488204345703125,0.4587470591068268,0.09039069712162018,0.32646802067756653
1772794788383249400,7.49824951171875,0.46319490671157837,0.1434648334980011,0.3468499183654785
1772794788393293000,7.50829296875,0.4633016884326935,0.1911090612411499,0.3465607166290283
1772794788403338200,7.518338134765625,0.45792120695114136,0.22343282401561737,0.3283311128616333
1772794788413383200,7.528383056640625,0.4405517876148224,0.2171533703804016,0.30588865280151367
1772794788423427000,7.538427001953125,0.42102351784706116,0.20695360004901886,0.2799656391143799
1772794788433472300,7.54847216796875,0.399924099445343,0.20672722160816193,0.2703748047351837
1772794788443516200,7.55851611328125,0.3754805028438568,0.18786932528018951,0.26664164662361145
1772794788453561000,7.56856103515625,0.33652645349502563,0.12075473368167877,0.2605970501899719
1772794788463605200,7.578605224609375,0.2839163541793823,0.028975527733564377,0.24560195207595825
1772794788473650200,7.588650146484375,0.2303042709827423,-0.04659513011574745,0.22934654355049133
1772794788483695400,7.5986953125,0.1866292953491211,-0.08647696673870087,0.21826131641864777
1772794788493739000,7.608739013671875,0.15480053424835205,-0.10033073276281357,0.21450039744377136
1772794788503784200,7.6187841796875,0.12186388671398163,-0.09580761939287186,0.21622319519519806
1772794788513828400,7.628828369140625,0.1010851040482521,-0.05757714435458183,0.22507500648498535
1772794788523873000,7.638873046875,0.10550020635128021,0.00920930691063404,0.2400193065404892
1772794788533918200,7.648918212890625,0.1275479942560196,0.08032556623220444,0.25850990414619446
1772794788543962400,7.65896240234375,0.1627010852098465,0.16057734191417694,0.27496418356895447
1772794788554007000,7.669007080078125,0.2093500792980194,0.2412405014038086,0.2822559177875519
1772794788564051200,7.67905126953125,0.2539319396018982,0.30314141511917114,0.27422383427619934
1772794788574096100,7.68909619140625,0.28996342420578003,0.3309067487716675,0.25452709197998047
1772794788584141300,7.699141357421875,0.31624165177345276,0.33248332142829895,0.2354428917169571
1772794788594185200,7.709185302734375,0.32878538966178894,0.31927618384361267,0.21185286343097687
1772794788604230100,7.719230224609375,0.32442933320999146,0.28822341561317444,0.18462951481342316
1772794788614274300,7.7292744140625,0.30712518095970154,0.25150373578071594,0.14986275136470795
1772794788624319000,7.739319091796875,0.2771124839782715,0.22031670808792114,0.11334369331598282
1772794788634364200,7.7493642578125,0.24083460867404938,0.19543665647506714,0.07152993232011795
1772794788644408300,7.759408203125,0.21518518030643463,0.18725942075252533,0.029493005946278572
1772794788654453200,7.769453369140625,0.1975766271352768,0.19838877022266388,-0.0035965037532150745
1772794788664497200,7.7794970703125,0.18925273418426514,0.20475485920906067,-0.026659315451979637
1772794788674542000,7.7895419921875,0.19049403071403503,0.2199963927268982,-0.024078980088233948
1772794788684587300,7.799587158203125,0.2122029960155487,0.24274085462093353,-0.009164446964859962
1772794788694631200,7.809631103515625,0.2491476982831955,0.2761789560317993,0.013724623247981071
1772794788704676000,7.819676025390625,0.2991456091403961,0.31249988079071045,0.03162779659032822
1772794788714720300,7.82972021484375,0.3418363332748413,0.3239957094192505,0.03712642565369606
1772794788724765200,7.83976513671875,0.3740902245044708,0.2966199517250061,0.020810309797525406
1772794788734810000,7.84981005859375,0.4067440330982208,0.23795931041240692,-0.004657764919102192
1772794788744854300,7.859854248046875,0.421795129776001,0.17499428987503052,-0.03592628613114357
1772794788754899200,7.869899169921875,0.4186621904373169,0.10356590896844864,-0.06155494973063469
1772794788764943000,7.879943115234375,0.4046466052532196,0.02883700653910637,-0.08715391904115677
1772794788774988300,7.88998828125,0.3815311789512634,-0.06092536821961403,-0.10374807566404343
1772794788785033200,7.900033203125,0.3554006814956665,-0.14028318226337433,-0.11271913349628448
1772794788795077000,7.9100771484375,0.32851099967956543,-0.19841520488262177,-0.11893575638532639
1772794788805122000,7.9201220703125,0.29909634590148926,-0.23959475755691528,-0.12680254876613617
1772794788815166200,7.930166259765625,0.2733164131641388,-0.258441686630249,-0.15067991614341736
1772794788825211400,7.94021142578125,0.24700301885604858,-0.27544504404067993,-0.19340083003044128
1772794788835256000,7.950256103515625,0.23061364889144897,-0.2687346935272217,-0.2350289672613144
1772794788845300200,7.96030029296875,0.22002579271793365,-0.26064980030059814,-0.2615498900413513
1772794788855345200,7.97034521484375,0.2171517163515091,-0.2378062754869461,-0.2787480354309082
1772794788865389000,7.98038916015625,0.21877366304397583,-0.18488068878650665,-0.28253623843193054
1772794788875434200,7.990434326171875,0.20953835546970367,-0.15122178196907043,-0.27334222197532654
1772794788885477000,8.00047705078125,0.2114008218050003,-0.10842762887477875,-0.2730306386947632
1772794788895522000,8.01052197265625,0.21563445031642914,-0.03929835557937622,-0.2772621512413025
1772794788905567200,8.020567138671876,0.2272043079137802,0.057449325919151306,-0.2960801422595978
1772794788915611400,8.030611328125,0.22787542641162872,0.13181596994400024,-0.32527050375938416
1772794788925656000,8.040656005859375,0.23625941574573517,0.1908288151025772,-0.33721283078193665
1772794788935700200,8.0507001953125,0.2412637621164322,0.23966187238693237,-0.32886701822280884
1772794788945745200,8.0607451171875,0.24708706140518188,0.26095300912857056,-0.3001953959465027
1772794788955790300,8.070790283203126,0.2489856332540512,0.23142145574092865,-0.266433984041214
1772794788965834200,8.080834228515625,0.23687908053398132,0.1844993233680725,-0.2296523004770279
1772794788975879200,8.090879150390625,0.21915706992149353,0.11157531291246414,-0.20142945647239685
1772794788985923300,8.10092333984375,0.19678838551044464,0.02284262701869011,-0.17919351160526276
1772794788995968000,8.110968017578125,0.17600826919078827,-0.07111289352178574,-0.15882937610149384
1772794789006013200,8.12101318359375,0.14473649859428406,-0.15690095722675323,-0.12516091763973236
1772794789016057000,8.13105712890625,0.12009480595588684,-0.2409825325012207,-0.08657383918762207
1772794789026102000,8.14110205078125,0.09143034368753433,-0.30254456400871277,-0.03898605704307556
1772794789036146200,8.151146240234375,0.055709898471832275,-0.33988848328590393,0.002918517217040062
1772794789046191000,8.161191162109375,0.01068455446511507,-0.3598902225494385,0.03437348082661629
1772794789056236000,8.171236083984375,-0.01684027910232544,-0.3353358805179596,0.04366977885365486
1772794789066280200,8.1812802734375,-0.03206056356430054,-0.29471707344055176,0.04085724800825119
1772794789076324900,8.191324951171875,-0.051615890115499496,-0.2427729219198227,0.019419066607952118
1772794789086370000,8.2013701171875,-0.05845420062541962,-0.2046087384223938,0.0005222450708970428
1772794789096414200,8.211414306640625,-0.06147608906030655,-0.1701756715774536,-0.009519469924271107
1772794789106459100,8.221459228515625,-0.058317918330430984,-0.1425040364265442,0.0024548929650336504
1772794789116503000,8.2315029296875,-0.049960386008024216,-0.11522901058197021,0.04175329580903053
1772794789126548000,8.2415478515625,-0.03283730521798134,-0.07538603991270065,0.08474528044462204
1772794789136593200,8.25159326171875,-0.015412243083119392,-0.03180740401148796,0.11516842991113663
1772794789146637000,8.261636962890625,-0.003958667162805796,0.003338028211146593,0.13287469744682312
1772794789156682000,8.271681884765625,0.010821077972650528,0.030850613489747047,0.1411009430885315
1772794789166726100,8.28172607421875,0.01478983648121357,0.0423399992287159,0.14974673092365265
1772794789176771000,8.29177099609375,0.02718072570860386,0.06186869740486145,0.16028591990470886
1772794789186816000,8.30181591796875,0.04210386797785759,0.11960545927286148,0.1696314662694931
1772794789196860200,8.311860107421875,0.06104506924748421,0.1579003781080246,0.17932510375976562
1772794789206905000,8.321905029296875,0.08156052976846695,0.15681539475917816,0.15666678547859192
1772794789216949000,8.331948974609375,0.09603267908096313,0.1185406967997551,0.13121680915355682
1772794789226995000,8.341994873046875,0.08019929379224777,0.06462550163269043,0.14066378772258759
1772794789237039000,8.3520390625,0.049650438129901886,-0.04792553931474686,0.16921234130859375
1772794789247084000,8.362083984375,0.05509522184729576,-0.11465903371572495,0.211922287940979
1772794789257128000,8.3721279296875,0.07370246201753616,-0.2415384203195572,0.24727654457092285
1772794789267173000,8.382173095703125,0.07217686623334885,-0.39137738943099976,0.2793826758861542
1772794789277218000,8.392218017578125,0.022938480600714684,-0.5773717761039734,0.30744707584381104
1772794789287262000,8.402261962890625,-0.05888586863875389,-0.7589938044548035,0.3139008581638336
1772794789297307100,8.41230712890625,-0.1399381160736084,-0.9466601610183716,0.29890114068984985
1772794789307351000,8.42235107421875,-0.2463923841714859,-1.077319860458374,0.2480051964521408
1772794789317396200,8.432396240234375,-0.32346823811531067,-1.0876686573028564,0.1715996414422989
1772794789327441000,8.44244091796875,-0.3618362247943878,-0.9382802248001099,0.11039247363805771
