time,seconds_elapsed,z,y,x
1772794734235009300,0.07300927734375,0.2979600332677364,-0.376064944146201,-0.010710559910908342
1772794734245053200,0.08305322265625,0.3430664184510708,-0.36008075468130407,0.019998978064209222
1772794734255098400,0.093098388671875,0.44816871491372584,-0.35992461427152156,0.023544980107992886
1772794734265142300,0.103142333984375,0.5256979447960853,-0.3648084407903254,-0.035809783723577855
1772794734275186200,0.113186279296875,0.5113526085793971,-0.38137474099211394,-0.02661072435416281
1772794734285231400,0.1232314453125,0.43403848275244233,-0.30247787601836024,-0.03595554886981845
1772794734295275300,0.133275146484375,0.3712175771802664,-0.1908198743019253,-0.054200084482133384
1772794734305319400,0.1433193359375,0.3804448397308588,-0.13590521180965007,-0.07337481361664831
1772794734315364400,0.1533642578125,0.4066851964026689,-0.0860326351378113,-0.11090287250019609
1772794734325408300,0.163408203125,0.3357937970995903,-0.021205431244522333,-0.16115473081320522
1772794734335452400,0.173452392578125,0.2343079375684261,0.1044653137333691,-0.16825521046817302
1772794734345497300,0.183497314453125,0.1309077688485384,0.2939554007362574,-0.1727295794032514
1772794734355541200,0.193541259765625,0.06876373962461949,0.11126600672416388,-0.0346422012489289
1772794734365585400,0.20358544921875,0.10386720170974731,0.10635821480788289,0.01988857649229467
1772794734375630300,0.21363037109375,0.23913901098668575,0.16881240595951674,0.0012939853332936764
1772794734385674200,0.22367431640625,0.3234282365232706,0.14370039573051036,-0.028983883226290343
1772794734395718400,0.233718505859375,0.3630097208052873,0.14433343293704093,-0.020506416129693388
1772794734405763300,0.243763427734375,0.3960650181889534,0.15528481586650014,0.028554186572134495
1772794734415807200,0.25380712890625,0.3469984972029924,0.08744779916536062,0.15864815481975675
1772794734425851400,0.263851318359375,0.21509061140120028,0.010717281912639737,0.2548067549135536
1772794734435896300,0.273896240234375,0.10836626669466495,0.1776374078521505,0.0018497925851494073
1772794734445940200,0.283940185546875,0.10482815569639205,0.4040270831093192,0.02401508183777332
1772794734455985400,0.2939853515625,0.11854688444733619,0.5816578054923564,0.1572255016054958
1772794734466029000,0.304029052734375,0.02837561513483524,0.7093854830000549,0.05308518204279244
1772794734476073200,0.3140732421875,-0.13461480667293071,0.8336253914572298,-0.11878343314956873
1772794734486118400,0.324118408203125,-0.3029576954245567,0.9861838510997593,-0.25420319952983406
1772794734496162300,0.334162353515625,-0.47606151496767996,0.9572950988110154,-0.35810119823664427
1772794734506206200,0.344206298828125,-0.5884218197345733,0.6767559367477893,-0.46910479116495696
1772794734516251400,0.35425146484375,-0.5813631333947181,0.2088226005150005,-0.5370131926018744
1772794734526295300,0.36429541015625,-0.5116156434297562,-0.30761406986303624,-0.5726472544323653
1772794734536339200,0.374339111328125,-0.44205870760083193,-0.6831938608407974,-0.5836045556459576
1772794734546384400,0.38438427734375,-0.35758944932222364,-0.9470238071002065,-0.5885751471327617
1772794734556428300,0.39442822265625,-0.2701788768947124,-1.1708460795547813,-0.4812238296343013
1772794734566472200,0.40447216796875,-0.10482698665261268,-1.0503438963212073,-0.2877066790724173
1772794734576517400,0.414517333984375,0.05294423920214176,-1.2468693618535995,-0.40577253853715956
1772794734586561300,0.424561279296875,0.08945698356330395,-1.721489007449895,-0.3084784316074103
1772794734596605200,0.434605224609375,0.31098610357940193,-1.9422700855776667,-0.24170250479914246
1772794734606650400,0.444650390625,0.6920289092034101,-1.9234939273066818,-0.31356201848201454
1772794734616694300,0.4546943359375,0.9013561347723007,-2.071068753317743,-0.18472469923198223
1772794734626738400,0.464738525390625,0.8594646199822426,-1.9413354350760579,0.0870303774708882
1772794734636783400,0.474783447265625,0.7575041286766528,-1.8224524505421518,0.14295231730956584
1772794734646827300,0.4848271484375,0.45717327462434765,-2.0098456383310257,0.3609612273102626
1772794734656871400,0.494871337890625,0.3239461229175329,-1.8662971452265977,0.28757888797428455
1772794734666916400,0.504916259765625,0.23777473689615725,-1.8137246619462966,0.03856467192228883
1772794734676960300,0.514960205078125,0.012009586745500563,-1.8466367514669895,0.126677035943605
1772794734687004400,0.52500439453125,-0.04082710042893886,-1.4330210251487792,0.15356401995588093
1772794734697049300,0.53504931640625,-0.04159808480143547,-1.2767165108457208,0.13131189267002044
1772794734707093200,0.54509326171875,-0.09172083684206009,-1.2284789880298077,0.2554013232732191
1772794734717137400,0.555137451171875,-0.09534721064567565,-1.140946615853533,0.025927418265119195
1772794734727182300,0.565182373046875,-0.19716624765396118,-1.3388153857536613,-0.15887093072496353
1772794734737226200,0.575226318359375,-0.2899614357292652,-1.2403056194238364,-0.30349319054074586
1772794734747271400,0.585271484375,-0.4328519033163786,-1.1671347308814526,-0.4905101654283702
1772794734757315300,0.5953154296875,-0.6840151140958071,-1.2679425450205801,-0.652050826819241
1772794734767359200,0.605359130859375,-0.7858055095314979,-1.3431301802128552,-0.6440192768592387
1772794734777404400,0.615404296875,-0.7302572253108024,-1.3600095649518071,-0.7273628921087831
1772794734787448000,0.625447998046875,-0.5786836850523949,-1.234814766922593,-0.6688716132387519
1772794734797492200,0.6354921875,-0.5367360561609268,-1.0650593810245395,-0.6119823992704972
1772794734807537400,0.645537353515625,-0.5862643494397402,-1.1909740177609025,-0.3066981240618974
1772794734817581000,0.6555810546875,-0.6119143390029669,-1.2403791230514645,-0.20236023610047996
1772794734827625200,0.665625244140625,-0.594125584334135,-1.1508572575584053,-0.2841408398170024
1772794734837670400,0.67567041015625,-0.5441057081460953,-1.0851073858622462,-0.28391086698602885
1772794734847714300,0.68571435546875,-0.5443342562049627,-1.041623414248973,-0.14659125833380968
1772794734857758200,0.69575830078125,-0.5706166984528303,-0.9667288437191396,0.02336246314793825
1772794734867803400,0.705803466796875,-0.5791185693383216,-0.8176451475150883,0.11961403875481337
1772794734877847300,0.715847412109375,-0.6437374642431736,-0.7747945053692906,0.22101441195961086
1772794734887891200,0.72589111328125,-0.655890843373537,-0.7985960175216198,0.296186484256573
1772794734897936400,0.735936279296875,-0.6279477744370698,-0.8405044834464788,0.33424090510178356
1772794734907980300,0.745980224609375,-0.5322603720515966,-0.8168204601939767,0.3846701292756945
1772794734918024200,0.756024169921875,-0.3859948750734329,-0.6711296212986111,0.42844227018058295
1772794734928069400,0.7660693359375,-0.3269365369051695,-0.7159441108632832,0.281719202160649
1772794734938113300,0.77611328125,-0.30554011313319207,-0.6942087374605238,0.27229086408000436
1772794734948157200,0.7861572265625,-0.2559796711504459,-0.5289047049481421,0.35147849216125904
1772794734958202600,0.79620263671875,-0.24110066644847392,-0.39688440828043964,0.38617216786909847
1772794734968246500,0.80624658203125,-0.29340017800629137,-0.38279633476044983,0.4046322824608534
1772794734978291500,0.81629150390625,-0.2973170591890812,-0.35228217322696,0.41942970982659605
1772794734988335400,0.82633544921875,-0.3018547026187181,-0.3047533101370558,0.33582517861854283
1772794734998379500,0.836379638671875,-0.29487609577775,-0.25726726327557115,0.2518201037855819
1772794735008424400,0.846424560546875,-0.2987614127784967,-0.18632906568869947,0.22273367350026965
1772794735018468400,0.85646826171875,-0.31605741549432276,-0.07497041224502027,0.2576423801982775
1772794735028512500,0.866512451171875,-0.25848434744775295,0.035286855828016994,0.25428623817078766
1772794735038557400,0.876557373046875,-0.11113397784233092,0.20207608539685606,0.34536183591187
1772794735048601300,0.886601318359375,0.11148001480102539,0.36968298802413047,0.41837238279338923
1772794735058645500,0.8966455078125,0.33178631502389905,0.513231992585212,0.51400140605513
1772794735068690400,0.9066904296875,0.5282371078848839,0.6318133638240396,0.5568154059849679
1772794735078734300,0.916734375,0.6311918709248304,0.7280532855257391,0.5605372029870748
1772794735088778500,0.926778564453125,0.7040460947334766,0.8054689720310271,0.5675675400152802
1772794735098823400,0.936823486328125,0.7232049687117338,0.7997383194245398,0.6005516718588769
1772794735108867300,0.946867431640625,0.6861340059459209,0.7415938812308013,0.6516030099865049
1772794735118911500,0.956911376953125,0.6269447348743676,0.6849247032213955,0.7088291642915457
1772794735128956700,0.966956787109375,0.5841688384652137,0.5805993459479883,0.7356362880006432
1772794735139000300,0.977000244140625,0.5363520252794027,0.431146926029399,0.737463357297331
1772794735149044500,0.98704443359375,0.45066696147024626,0.21099607209656387,0.693655998948589
1772794735159089700,0.997089599609375,0.4364174868434667,-0.05899217759687453,0.6009668285310268
1772794735169133300,1.00713330078125,0.48752983444333076,-0.2726974721195176,0.5083899593815208
1772794735179177500,1.017177490234375,0.510095886516571,-0.44762799563314765,0.426286955310218
1772794735189222700,1.02722265625,0.4814361937433481,-0.6106103802649304,0.329004721481353
1772794735199266600,1.0372666015625,0.45430327214598654,-0.7322060943562537,0.2477114446240477
1772794735209311500,1.0473115234375,0.4141080398797989,-0.820168090121448,0.15306524012088774
1772794735219355600,1.057355712890625,0.3905120602369308,-0.8678709215387701,0.0635255284438841
1772794735229399600,1.067399658203125,0.3145347359716892,-0.8263275625992565,0.08115198695678263
1772794735239444500,1.077444580078125,0.2081587663114071,-0.7218023353721946,0.07664391668150201
1772794735249488600,1.087488525390625,0.08581015149354934,-0.5938260899309069,0.07001216878313571
1772794735259532500,1.097532470703125,-0.054503743603825566,-0.45011871647033835,0.09596315058693289
1772794735269577500,1.107577392578125,-0.22362170838117598,-0.3369150562144816,0.14124291957579552
1772794735279621600,1.11762158203125,-0.3854460090190172,-0.22636918045841156,0.17054514803625642
1772794735289665500,1.12766552734375,-0.5158516735643148,-0.1183093493644148,0.14892894403375684
1772794735299710500,1.13771044921875,-0.6317138489723205,0.007463723476789892,0.14312011162452398
1772794735309754400,1.14775439453125,-0.6538707357227802,0.13110055147428065,0.2482470310717821
1772794735319798500,1.157798583984375,-0.6154255619943142,0.23861743479799477,0.3367073682805523
1772794735329843500,1.167843505859375,-0.602255114775896,0.2818862292906269,0.4471491260750219
1772794735339887400,1.177887451171875,-0.564766803380847,0.3164302673947066,0.530630250099115
1772794735349931500,1.187931640625,-0.5043243173778057,0.3526774196222424,0.5707788302119821
1772794735359976400,1.1979765625,-0.43946167684495446,0.3759009857561439,0.5544994206601753
1772794735370020400,1.208020263671875,-0.3724000649631023,0.3538937000768259,0.5249534831043332
1772794735380064500,1.218064453125,-0.2904115175843239,0.24720457281414418,0.4619680711528286
1772794735390109400,1.228109375,-0.18638240331113337,0.06877243438772856,0.34658140430208295
1772794735400153300,1.2381533203125,-0.07778583499193191,-0.0862359026249498,0.26914620937872674
1772794735410197500,1.248197509765625,-0.018245266264677047,-0.22092589342594146,0.26420246936623004
1772794735420242400,1.258242431640625,0.04627952061593532,-0.3409595092996955,0.274308122186549
1772794735430286300,1.268286376953125,0.14555881001353263,-0.4522333340041339,0.270757169973012
1772794735440330500,1.27833056640625,0.2675765854418278,-0.5953214430551975,0.2980226684414781
1772794735450375700,1.288375732421875,0.3270867590308189,-0.7881281072601676,0.31378077579922975
1772794735460419300,1.29841943359375,0.2973538840681314,-0.9520111670587211,0.3055636401392519
1772794735470464500,1.308464599609375,0.20862346121370792,-1.0581341848712413,0.3044455228295177
1772794735480508700,1.3185087890625,0.09033727352917194,-1.1591622906975447,0.3309290771400556
1772794735490552300,1.32855224609375,-0.11055763925909995,-1.2177185976278035,0.4000588370654732
1772794735500597500,1.338597412109375,-0.28181612319648264,-1.2789002846255897,0.45794637788869436
1772794735510641700,1.3486416015625,-0.48285132123827934,-1.2783164933882654,0.4509725933533162
1772794735520685300,1.358685302734375,-0.6567500905513763,-1.2389498209007084,0.4273482643987983
1772794735530730500,1.36873046875,-0.7042004085123539,-1.1612619663905352,0.42167504106797277
1772794735540774700,1.378774658203125,-0.6525158139824867,-1.0014426488995551,0.420497813982144
1772794735550818600,1.388818603515625,-0.5942600243687629,-0.7253597355928272,0.44001397696547206
1772794735560863500,1.398863525390625,-0.5012462251067161,-0.441250533023104,0.4765325665455311
1772794735570907600,1.40890771484375,-0.3979933559030294,-0.1980894269134849,0.5178930066661909
1772794735580951600,1.41895166015625,-0.25466274333298206,0.03688121234737336,0.5446585197232663
1772794735590996500,1.42899658203125,-0.12488543981909751,0.17093422041907905,0.7225079994235187
1772794735601040600,1.43904052734375,-0.022037644284963607,0.2783869524654001,0.8404455928660929
1772794735611084500,1.44908447265625,0.08206862687766552,0.37086313771940765,0.8020907277695835
1772794735621129500,1.45912939453125,0.10896832424104214,0.3054801996394992,0.6652225892119109
1772794735631173400,1.46917333984375,0.12231471254825592,0.19637414742819964,0.4367150450179353
1772794735641217500,1.479217529296875,0.10283727414011955,-0.004623641212657094,0.2288092670869082
1772794735651262500,1.489262451171875,0.14326280803084374,-0.21635405546575784,0.08476805856209248
1772794735661306400,1.499306396484375,0.1909036801278591,-0.4298583475235849,-0.0175090974772349
1772794735671350500,1.5093505859375,0.21857903803884982,-0.6260803000647575,-0.10257931732367724
1772794735681395500,1.5193955078125,0.27972411935329433,-0.7820281098846346,-0.12309157867226748
1772794735691439400,1.529439453125,0.3081868282496929,-0.8747215180858969,-0.05080003024768084
1772794735701483500,1.5394833984375,0.31780162881314755,-0.8503335843477398,0.0864788810679689
1772794735711528400,1.549528564453125,0.25624445956647396,-0.6674406305875629,0.2561125402824953
1772794735721572400,1.559572265625,0.1380699155628681,-0.3511650422979146,0.4391555335052311
1772794735731617500,1.569617431640625,0.012016016486287116,-0.013638868447765707,0.6233549667540937
1772794735741661400,1.579661376953125,-0.13726795153021812,0.2520741150792688,0.7563751246467232
1772794735751705300,1.589705322265625,-0.21728958275020122,0.4551557242568582,0.8260232458904385
1772794735761750500,1.59975048828125,-0.22213351565003395,0.5643558114271611,0.846921657012403
1772794735771794400,1.60979443359375,-0.14488076462149618,0.5922698734648525,0.8513540134366602
1772794735781838300,1.61983837890625,-0.06167115101516246,0.5379504734519869,0.8717568961266428
1772794735791883500,1.629883544921875,-0.048363341152667993,0.44651714831441636,0.9868961640875786
1772794735801927700,1.639927734375,-0.05570785869657993,0.3373262673638761,1.0381490892019123
1772794735811971300,1.649971435546875,0.04779635491967201,0.29660942237637933,0.895952887489274
1772794735822016500,1.6600166015625,0.20158581766188144,0.21764007668830454,0.7720491521839052
1772794735832060700,1.670060791015625,0.38622693026363847,0.1697909686680883,0.5795895478509366
1772794735842104300,1.680104248046875,0.5944453178077935,0.1704005519337952,0.43712848465703424
1772794735852149500,1.6901494140625,0.7944798143744468,0.17942469312772152,0.30371260544508694
1772794735862193700,1.700193603515625,0.9669809918493032,0.19356172035597263,0.14634294612854717
1772794735872237600,1.710237548828125,1.0331605601996183,0.17939897416457531,-0.023717998587340115
1772794735882282500,1.720282470703125,1.0638841997653246,0.14713606926761566,-0.19509506740309296
1772794735892326700,1.73032666015625,1.0034989969074726,0.146413234885782,-0.3577080342005938
1772794735902370600,1.74037060546875,0.9234937323004007,0.15568915888369084,-0.5236899294419214
1772794735912415500,1.75041552734375,0.8676315598249434,0.16193740562349557,-0.6317457784805447
1772794735922459600,1.760459716796875,0.7716139025717973,0.17743439609333872,-0.7131435934245586
1772794735932503600,1.770503662109375,0.6386468631058931,0.21720015090107916,-0.6885743117701262
1772794735942548500,1.780548583984375,0.5492454091221094,0.2478621964726597,-0.6632829994514584
1772794735952592400,1.79059228515625,0.49863458130359645,0.342946591463685,-0.6365532518275082
1772794735962637000,1.800636962890625,0.490912462618947,0.44737215770855543,-0.5796529684759676
1772794735972681700,1.810681640625,0.4879501056820154,0.4905865186002105,-0.47259888035841285
1772794735982726000,1.820725830078125,0.4149608573168516,0.4718799184340983,-0.35014826647080477
1772794735992770800,1.830770751953125,0.2899485762476921,0.43096871991828084,-0.2763916869949549
1772794736002814700,1.840814697265625,0.10767243921160698,0.41456345549710094,-0.246913736641407
1772794736012859000,1.85085888671875,-0.05446107350587844,0.4469413650758564,-0.2764730816680938
1772794736022903800,1.86090380859375,-0.21749299636781214,0.44077034829072653,-0.27707170514836904
1772794736032947700,1.87094775390625,-0.3578583293914795,0.37620647150874137,-0.26888883708417416
1772794736042991900,1.880991943359375,-0.3846311855047941,0.31659608894828706,-0.20894012594744563
1772794736053037000,1.891037109375,-0.43789632722437377,0.31915454125944526,-0.12115224464014172
1772794736063080700,1.901080810546875,-0.5882125608980655,0.3020595410084352,-0.11483305155597627
1772794736073124900,1.911124755859375,-0.6551274577856063,0.2327900803513825,-0.13651976351141928
1772794736083170000,1.921170166015625,-0.7113847670584916,0.15096523563433437,-0.012757920894771813
1772794736093213700,1.931213623046875,-0.701210579046607,0.11683270094059407,-0.005897387475520372
1772794736103257900,1.9412578125,-0.6209715056836604,0.01865055912993848,-0.042329394750669595
1772794736113303000,1.951302978515625,-0.5304419244527816,-0.12113467245083301,-0.04560374024622142
1772794736123346700,1.9613466796875,-0.4846685997933149,-0.2495735669678077,-0.025485154390335083
1772794736133390800,1.971390869140625,-0.4249854077249765,-0.35516934603583067,0.12146649822108446
1772794736143436000,1.98143603515625,-0.44943069767355914,-0.4588662326799705,0.25743688422143457
1772794736153480000,1.99147998046875,-0.44776305672228334,-0.5050025089003145,0.26096805402226747
1772794736163523800,2.00152392578125,-0.31006548160314557,-0.5396912161720916,0.17808862221837043
1772794736173569000,2.011569091796875,-0.07540449281334877,-0.5865916816979646,0.08023731979727744
1772794736183613000,2.021613037109375,0.17827859183251857,-0.7089984564438462,0.09138510208167135
1772794736193656800,2.03165673828125,0.40992637028098106,-0.8300310202270745,0.13150544248074292
1772794736203702000,2.041701904296875,0.5564128165334463,-0.9179980574935674,0.09379976200796664
1772794736213746000,2.051745849609375,0.5984586451023817,-0.9558555675271898,-0.003640840720385313
1772794736223790800,2.061790771484375,0.5464350278764963,-0.9115224317386745,-0.07289572486281394
1772794736233834800,2.071834716796875,0.46917350901961324,-0.8370549275144934,-0.07783983020149171
1772794736243879000,2.08187890625,0.39230712696015835,-0.7318214058876037,0.002172156407311559
1772794736253923800,2.091923828125,0.37188393213450904,-0.6049222150932997,0.07374591195136308
1772794736263967700,2.1019677734375,0.417153398925066,-0.4304157622106373,0.04906498661600053
1772794736274012000,2.112011962890625,0.4533984322607517,-0.3566267417699098,0.054851461062952876
1772794736284056800,2.122056884765625,0.46434126655757424,-0.22784550008866936,0.055880767578072844
1772794736294100700,2.132100830078125,0.4690127654999494,-0.21053873851681126,-0.019482333778962493
1772794736304145000,2.142144775390625,0.5480471392482519,-0.07644008293878286,-0.15582158962432294
1772794736314189800,2.15218994140625,0.5986398468881845,-0.06920245983544737,-0.2528132064761594
1772794736324233700,2.162233642578125,0.6210159293472767,-0.09320106546245514,-0.25982567905411125
1772794736334278000,2.17227783203125,0.6852215672761202,-0.10698841160335577,-0.2959437980744988
1772794736344322800,2.18232275390625,0.7472896086543798,-0.13800531676090322,-0.31411990809310225
1772794736354366700,2.19236669921875,0.7964063985228538,-0.19661876983903348,-0.3174557014523074
1772794736364411000,2.202410888671875,0.7866635876655578,-0.32551512579992414,-0.3515186415085569
1772794736374455800,2.212455810546875,0.7182669277876615,-0.47437853031679983,-0.3949210723182186
1772794736384499700,2.222499755859375,0.6463824257940054,-0.6569719166085124,-0.49565151037219907
1772794736394543900,2.2325439453125,0.5567740510612725,-0.8220823262449354,-0.5097522607106715
1772794736404589000,2.242589111328125,0.3256973504990339,-0.9168882696207612,-0.5115889015533029
1772794736414632700,2.2526328125,0.08371347147524356,-1.018880690434575,-0.480362134771049
1772794736424676900,2.2626767578125,-0.05569558373689651,-1.105489591090381,-0.459445165079087
1772794736434722000,2.27272216796875,-0.1255880351305008,-1.1089803558155893,-0.4311098819546401
1772794736444765700,2.282765625,-0.15965455538332463,-1.1465676706057042,-0.3935781698092818
1772794736454809900,2.292809814453125,-0.18057926999032498,-1.1638599469944835,-0.3785799226418137
1772794736464855000,2.30285498046875,-0.1451373697310686,-1.1052408770263193,-0.3302960034009069
1772794736474898700,2.312898681640625,-0.1344447108030319,-1.0735194585949182,-0.2950277061428875
1772794736484944000,2.32294384765625,-0.2203922249406576,-1.0203627456858753,-0.22819909929931162
1772794736494988000,2.332988037109375,-0.418249961990118,-0.9152185828428715,-0.17200294562913476
1772794736505032000,2.343031982421875,-0.5690460881352424,-0.7710366872057318,-0.09718472827114165
1772794736515076900,2.353076904296875,-0.6169482415169477,-0.6522449611518532,-0.03788257140964269
1772794736525121000,2.36312109375,-0.677262132704258,-0.5759130147626623,0.030700770146772263
1772794736535165000,2.3731650390625,-0.7095645658940076,-0.604314750719443,0.07252981415987014
1772794736545209900,2.3832099609375,-0.7393821965306997,-0.7029591032143682,0.0757787329532206
1772794736555253800,2.393253662109375,-0.8620061211585998,-0.8553538236625492,0.2685166427709162
1772794736565298000,2.4032978515625,-0.9582932430028915,-1.0092670589148998,0.26237704403735695
1772794736575342800,2.4133427734375,-0.9277706789672374,-1.0535417425144462,-0.03820712718889117
1772794736585386800,2.42338671875,-0.8451046707183122,-1.136179474516958,-0.1977909554235637
1772794736595431000,2.433430908203125,-0.7212386370748282,-1.2634230217695235,-0.32698110669925806
1772794736605475800,2.443475830078125,-0.654354135325551,-1.3149097556397318,-0.38711978745013476
1772794736615519700,2.453519775390625,-0.6810831522971391,-1.2135826668668537,-0.38534167186170815
1772794736625564000,2.46356396484375,-0.7805810528814792,-0.9141295454971492,-0.2816492421969771
1772794736635608800,2.47360888671875,-0.9237164351403713,-0.48924580804836004,-0.06506218169294298
1772794736645652700,2.48365283203125,-1.028858479091525,0.030466897458815947,0.12523651827909052
1772794736655697000,2.49369677734375,-1.0234557432651519,0.5328489490618928,0.22888364749737083
1772794736665741800,2.503741943359375,-0.8948089050859213,0.9093873924713581,0.2099944573059678
1772794736675785700,2.51378564453125,-0.677349810987711,1.1978368162024766,0.1366372524112463
1772794736685830000,2.523829833984375,-0.4525719183087349,1.3782730975255368,0.4006389750409871
1772794736695874800,2.533874755859375,-0.30855566156208514,1.2671535865999757,0.4051864822775125
1772794736705918700,2.543918701171875,-0.060606736654043196,1.43464190434888,0.24265089156515895
1772794736715963000,2.553962890625,0.14450667061209677,1.4812195311285554,0.34736930327676235
1772794736726008000,2.564008056640625,0.2359609654724598,1.3563472430519758,0.3868300837885588
1772794736736051700,2.5740517578125,0.2758499082684517,0.8853573322601616,0.22205453212969004
1772794736746097000,2.584096923828125,0.4435381325036287,0.5251105733621865,-0.20183299735598265
1772794736756141000,2.59414111328125,0.6303811390638351,0.2396020253885537,-0.3310221257183701
1772794736766184700,2.604184814453125,0.6260211902886629,-0.13053199433870613,-0.36997868303507564
1772794736776230000,2.61422998046875,0.47962008423209185,-0.3815661353783682,-0.41647590152230113
1772794736786274000,2.624274169921875,0.2779004110574722,-0.49136590547487136,-0.5175649437556042
1772794736796317700,2.634317626953125,0.11956395253539084,-0.4586796605993062,-0.5638110735585913
1772794736806363000,2.64436279296875,0.040780923199653624,-0.3440658778171986,-0.4792173121174797
1772794736816407000,2.654406982421875,0.07774842559099197,-0.14109450581474228,-0.3264434196259826
1772794736826451000,2.664450927734375,0.18589257396757602,0.10749666251959279,-0.1176517987711355
1772794736836496000,2.674495849609375,0.2523720020473003,0.3741346336707473,0.0855519754813984
1772794736846540000,2.6845400390625,0.23800036234557628,0.6357485113158822,0.24435955864656714
1772794736856584000,2.694583984375,0.19111703061759472,0.8808397087052464,0.3794721953064203
1772794736866628900,2.70462890625,0.1813397329688072,1.089435332063958,0.4864865359354764
1772794736876672800,2.7146728515625,0.24089316117763518,1.155921262949705,0.560446821289882
1772794736886717000,2.724717041015625,0.3267150031089783,1.1161112306088208,0.6081610874166712
1772794736896761900,2.734761962890625,0.4392857357561588,0.9831158418312668,0.5587304823586717
1772794736906805800,2.7448056640625,0.5520125357478857,0.8410838907696306,0.4060916144236922
1772794736916850000,2.754849853515625,0.6252677415728569,0.7163254383310675,0.2509359048295766
1772794736926894800,2.764894775390625,0.6125672499537468,0.633922026541084,0.17007226982749998
1772794736936938800,2.774938720703125,0.49438335359990593,0.5562043614145368,0.13610226875171064
1772794736946983000,2.78498291015625,0.2695148600280285,0.5305701904749498,0.11084697759449481
1772794736957027600,2.795027587890625,0.06845569658875465,0.5520360992865636,0.08142791782133281
1772794736967071500,2.805071533203125,-0.0496615642696619,0.5843750285618007,0.0743502345200628
1772794736977116700,2.81511669921875,-0.11322364359796047,0.5920859682653099,0.12823358120322226
1772794736987160600,2.82516064453125,-0.16972469849884508,0.5719491891656071,0.14980375410690902
1772794736997204500,2.83520458984375,-0.21487258473634718,0.5771774817405269,0.14876878503598273
1772794737007249700,2.845249755859375,-0.26049627179205415,0.5551835669994354,0.13666355589628218
1772794737017293600,2.85529345703125,-0.27420038749575615,0.48956798920743166,0.09689159054346382
1772794737027337500,2.86533740234375,-0.2229150214165449,0.36839645534493026,0.07391703073456883
1772794737037382700,2.875382568359375,-0.14950608633458615,0.2414078327015042,0.06827266817204654
1772794737047426800,2.8854267578125,-0.09640694883167743,0.1353302614659071,0.12567220628261566
1772794737057470500,2.895470458984375,-0.1079980179041624,0.075356744681485,0.13794248979091644
1772794737067515600,2.905515625,-0.15259469999969005,0.05484199911486357,0.1539951413821429
1772794737077559800,2.915559814453125,-0.118472650167346,0.045778055633511394,0.15163403827399013
1772794737087603500,2.925603515625,-0.03352408393919468,0.023837697710562496,0.16721775717921555
1772794737097648600,2.935648681640625,0.1129822360575199,-0.07100656838165596,0.17994331017434595
1772794737107692800,2.94569287109375,0.30849253319799896,-0.1758502139081247,0.2063178876850754
1772794737117736700,2.95573681640625,0.4863017539530992,-0.26167949022725223,0.22293628340028224
1772794737127781600,2.96578173828125,0.5654769974768161,-0.2540962868229486,0.22739034019969404
1772794737137825800,2.97582568359375,0.5753606781095266,-0.22415437221946194,0.24166801800765095
1772794737147869700,2.98586962890625,0.5653928263247012,-0.17086599575476719,0.2748739028431475
1772794737157914600,2.99591455078125,0.5486889442831278,-0.1715551470627077,0.2503221568454057
1772794737167958500,3.00595849609375,0.5569505766719579,-0.2345101821422577,0.24276436187699435
1772794737178002700,3.016002685546875,0.5915279690563678,-0.30113221529675643,0.2260015161897987
1772794737188047600,3.026047607421875,0.6209007785350084,-0.3633889293812215,0.1471268630478531
1772794737198091500,3.036091552734375,0.6155991649955511,-0.42333647147417064,0.06261011236570775
1772794737208135700,3.0461357421875,0.6135019004553556,-0.4265024246918037,0.016522314929589627
1772794737218180600,3.0561806640625,0.5941781913042068,-0.3615969313979149,0.08724975584261119
1772794737228224500,3.066224609375,0.542328761601448,-0.2315398976271972,0.13639796376265584
1772794737238268700,3.0762685546875,0.4659118768751621,-0.10717581480108201,0.16916553024612366
1772794737248313600,3.086313720703125,0.399722956174612,0.00772179217437515,0.18819478649534285
1772794737258357500,3.096357421875,0.34269641609489915,0.09111359166391193,0.21496545065157113
1772794737268402700,3.106402587890625,0.2832826886177063,0.10821335942158475,0.24828056801520287
1772794737278446600,3.116446533203125,0.22824703009426592,0.12009808681155554,0.2736119931485504
1772794737288490500,3.126490478515625,0.22825988957583904,0.07564713332965038,0.25026253561265766
1772794737298535700,3.13653564453125,0.20188976904451847,-0.032481205556448546,0.23426555973142385
1772794737308579600,3.14657958984375,0.12246551919579506,-0.17223450762899592,0.1922152741830796
1772794737318623500,3.15662353515625,0.03134790894389152,-0.35664771149270236,0.11752747827172279
1772794737328668700,3.166668701171875,-0.06643851154744625,-0.5554818192936479,0.04094064380601048
1772794737338712600,3.176712646484375,-0.13808160600066186,-0.7448074364498257,-0.03379508290030062
1772794737348756500,3.186756591796875,-0.19633213491737841,-0.8913907672055065,-0.08016264712586998
1772794737358801700,3.1968017578125,-0.2504097620636225,-1.0410556242983788,-0.09084032768048346
1772794737368845800,3.206845703125,-0.3310696911871433,-1.1337380727142095,-0.11118746159523725
1772794737378889500,3.216889404296875,-0.4046697649270296,-1.1746985902644693,-0.08902648319154978
1772794737388934700,3.2269345703125,-0.45368835511803624,-1.1582318779796361,0.03080240389034152
1772794737398978800,3.236978759765625,-0.4942196874707937,-1.0619924677345902,0.19543650125190615
1772794737409022500,3.2470224609375,-0.5503215139210224,-0.8745809405714273,0.3427755457457155
1772794737419067600,3.257067626953125,-0.6094470721065998,-0.6803728120706976,0.4503766732867807
1772794737429111800,3.26711181640625,-0.6362684435367584,-0.5162919281451032,0.5329886132609098
1772794737439155500,3.277155517578125,-0.6682727705627679,-0.43693665187936276,0.6058505089193582
1772794737449200600,3.28720068359375,-0.7555126625984907,-0.46636342003494496,0.6185582339968532
1772794737459244800,3.297244873046875,-0.9003273762464523,-0.6438448701404035,0.5232530358619988
1772794737469288700,3.307288818359375,-1.108445810547471,-0.8626435422793031,0.40647783726230263
1772794737479333600,3.317333740234375,-1.2171996152549982,-1.0761587210573256,0.30016528822705146
1772794737489377500,3.32737744140625,-1.2747937260895967,-1.2731588183641434,0.20286270572990178
1772794737499422500,3.33742236328125,-1.3067583056271075,-1.399382082658261,0.14428952073007822
1772794737509466600,3.347466552734375,-1.3946405872195957,-1.4247589543685317,0.10271065208576619
1772794737519510500,3.357510498046875,-1.4559639477103947,-1.3043915764957665,0.12697152537815273
1772794737529555500,3.367555419921875,-1.4693530061155557,-1.0071754934631287,0.26330723755955693
1772794737539599600,3.377599609375,-1.4853805963307618,-0.5763203534545377,0.43679691461510955
1772794737549643500,3.3876435546875,-1.4522925657212733,-0.114185218639113,0.5962661034941673
1772794737559688400,3.3976884765625,-1.38236095136106,0.31567857224456963,0.7077721295192837
1772794737569732600,3.407732666015625,-1.1895704345732927,0.7551059814937412,0.7641529921066016
1772794737579776500,3.417776611328125,-0.892198430326581,1.0998812496893107,0.773785036065802
1772794737589821700,3.42782177734375,-0.5194844771087169,1.3046033195503055,0.7263656977649777
1772794737599865600,3.437865478515625,-0.15449731875061987,1.3669088229462503,0.6227237561784684
1772794737609909500,3.447909423828125,0.16219138038456438,1.3474563728488982,0.4562597399760037
1772794737619954700,3.45795458984375,0.44595279242992397,1.194573649688065,0.31905886233262715
1772794737629998600,3.46799853515625,0.6467091735303402,1.0639372451268136,0.03544263091161847
1772794737640042500,3.47804248046875,0.7735679592490196,0.9374537955265492,-0.283618058051914
1772794737650087700,3.488087646484375,0.9107055623978376,0.8103377471111715,-0.5177025621280074
1772794737660131600,3.498131591796875,1.0213625703781843,0.6561863191887736,-0.6885127177760004
1772794737670175500,3.508175537109375,1.1225035619944332,0.4767011280454695,-0.8946356674108654
1772794737680220700,3.518220703125,1.209055471765995,0.3527867617482319,-1.1083377470631153
1772794737690264600,3.5282646484375,1.2589490912258625,0.2385902362638153,-1.2918768167071044
1772794737700309500,3.5383095703125,1.2964689668029545,0.20035528948623685,-1.449482476736605
1772794737710353700,3.548353759765625,1.2693962509602308,0.16807327803000807,-1.5480141626372932
1772794737720397800,3.558397705078125,1.1577876413434742,0.12770086256600915,-1.567694137880206
1772794737730442500,3.5684423828125,1.00260877006948,0.11887359565105289,-1.4901169772028922
1772794737740486700,3.578486572265625,0.8257540735602379,0.1526298261119984,-1.3678379204899072
1772794737750530800,3.58853076171875,0.6000614041239023,0.22628805977990848,-1.2058594522036612
1772794737760575500,3.598575439453125,0.37382746741771694,0.3298421221535653,-1.0370426623299718
1772794737770619600,3.60861962890625,0.17621055338680744,0.448655694713071,-0.8809723951742052
1772794737780663800,3.618663818359375,-0.03793020994365215,0.5585768626995384,-0.691995591455698
1772794737790708500,3.62870849609375,-0.20218202998936174,0.6059275196783245,-0.5264934790879487
1772794737800752600,3.638752685546875,-0.3023690818816423,0.6393422980241477,-0.35560631268098947
1772794737810796500,3.648796630859375,-0.36122049930095673,0.6451193470556289,-0.168837102009356
1772794737820841500,3.658841552734375,-0.3400362569749355,0.6141304076172411,0.03816445709094405
1772794737830885600,3.6688857421875,-0.2809329106211662,0.5975113543149083,0.2172360989972949
1772794737840929500,3.678929443359375,-0.23307225829362868,0.5862425029341131,0.3211930248171091
1772794737850974500,3.688974365234375,-0.14250000696480272,0.5574034350059927,0.4484755889058113
1772794737861018600,3.6990185546875,-0.0782610512882471,0.5545807788006961,0.522125347006321
1772794737871062500,3.7090625,-0.0799824682533741,0.5359806712163612,0.6091876905180513
1772794737881107500,3.719107421875,-0.06640928545296192,0.5152116951603443,0.6747977884173393
1772794737891151600,3.729151611328125,-0.024034371060132977,0.4954976715173572,0.6527728574834764
1772794737901195500,3.739195556640625,0.048774844563007354,0.41836701249852776,0.5834907930731773
1772794737911240700,3.74924072265625,0.119705406832695,0.3079899905033409,0.4939565064899623
1772794737921284600,3.75928466796875,0.2350356673210859,0.11839415983734651,0.3866036546215415
1772794737931329800,3.769329833984375,0.3704688046395778,-0.059306595574598754,0.28569588723927736
1772794737941373700,3.779373779296875,0.5348825372487306,-0.2561424970293417,0.17394173167198895
1772794737951417600,3.78941748046875,0.6990875955432653,-0.4561508362414315,0.04478153714314103
1772794737961463000,3.799463134765625,0.8728571855187416,-0.5852896957213058,-0.09585435645021498
1772794737971507200,3.809507080078125,1.004762733232975,-0.7041181370563805,-0.19630612369328737
1772794737981550800,3.81955078125,1.1185475178450346,-0.8212979709342122,-0.3112657242383808
1772794737991596000,3.829595947265625,1.1913532263368367,-0.9422032550759613,-0.3881475961279124
1772794738001640200,3.83964013671875,1.2147650815844535,-1.05749537551105,-0.46737383918650444
1772794738011683800,3.849683837890625,1.1582090816259383,-1.0989100665695966,-0.5561117146950215
1772794738021729000,3.85972900390625,1.088684294500947,-1.1370131488621233,-0.6436100384712219
1772794738031773200,3.869773193359375,1.0441127468466758,-1.1858655156407505,-0.731716849534586
1772794738041816800,3.87981689453125,0.985504490533471,-1.2279821444235741,-0.7178006985154003
1772794738051862000,3.889862060546875,0.8803495871007442,-1.2391994117476046,-0.7205234745427965
1772794738061906200,3.89990625,0.743618811187148,-1.2407982252463698,-0.6919602278813719
1772794738071950000,3.9099501953125,0.590397503721714,-1.1841821656636893,-0.6854036458447575
1772794738081995000,3.9199951171875,0.44279462065994735,-1.0945414960965514,-0.6641913464680314
1772794738092039000,3.930038818359375,0.3298153072118759,-1.0088622044410556,-0.6229064192689955
1772794738102083000,3.9400830078125,0.28124855244159697,-0.915478329757601,-0.5429683746792375
1772794738112128000,3.9501279296875,0.2820177832484245,-0.8121599210370332,-0.46353016937039787
1772794738122172000,3.960171875,0.2752899362981319,-0.7527423211023211,-0.4075625637590885
1772794738132216000,3.970216064453125,0.24567922641038895,-0.7171520253483206,-0.36848683704212304
1772794738142261000,3.980260986328125,0.1911135234862566,-0.7005952966924757,-0.367507762876898
1772794738152305000,3.990304931640625,0.07745148847103119,-0.6970335125576704,-0.3633352264326066
1772794738162349800,4.000349853515625,-0.03229834153652191,-0.6664774115785956,-0.405382808567211
1772794738172394000,4.01039404296875,-0.07879179716408252,-0.6460421609889716,-0.5175060897078365
1772794738182438000,4.02043798828125,-0.07899170365035534,-0.6744685564629733,-0.6153798962216824
1772794738192483000,4.030483154296875,-0.048310149660706514,-0.7852061553988605,-0.7222252369593829
1772794738202527000,4.04052685546875,0.03915302973687648,-0.927758769333735,-0.7950640440031885
1772794738212571000,4.05057080078125,0.06251169349253177,-1.0102350271642206,-0.8323512068029493
1772794738222616000,4.060615966796875,-0.06077975513339042,-1.279611501634866,-0.7117012125965207
1772794738232660000,4.070659912109375,-0.2249929967343807,-1.376243637524545,-0.6409885308612138
1772794738242704000,4.080703857421875,-0.45107028157413004,-1.3961122672073543,-0.6722047031842172
1772794738252749000,4.0907490234375,-0.7429249837040901,-1.4598790753275155,-0.5799808852560818
1772794738262793000,4.10079296875,-1.0030646971434354,-1.4602378256373107,-0.4406427033230662
1772794738272836900,4.1108369140625,-1.1784458139687777,-1.3287887895189225,-0.264746914973855
1772794738282882000,4.120882080078125,-1.2851309957087038,-1.0332307758916168,-0.031214053431153296
1772794738292926000,4.130926025390625,-1.3735440231770277,-0.6895688027001917,0.18493468872085211
1772794738302969900,4.140969970703125,-1.4044815977543592,-0.330932328543067,0.4520692294836044
1772794738313015000,4.15101513671875,-1.4056921425879,0.04704648640044033,0.6708876292362809
1772794738323059200,4.16105908203125,-1.3343302031636237,0.43146636724211274,0.9188372847966849
1772794738333103900,4.171103759765625,-1.1602654296338557,0.7307750386398285,1.1769694578059018
1772794738343148000,4.18114794921875,-0.9620867900669574,0.9430150098502635,1.4154894601114094
1772794738353192200,4.191192138671875,-0.750601509681344,1.0635025069713593,1.5065847124010323
1772794738363236900,4.20123681640625,-0.5662947436004877,1.0939974523477256,1.5434784189037978
1772794738373281000,4.211281005859375,-0.44228024139702315,1.010928197060153,1.489492415563762
1772794738383325200,4.2213251953125,-0.3416793480068445,0.8391866788461804,1.3346163266286253
1772794738393369900,4.231369873046875,-0.20788111841380594,0.6341182797655462,1.1606773714356124
1772794738403414000,4.2414140625,-0.1043903488010168,0.41983580640945584,0.9912298824429512
1772794738413458000,4.2514580078125,0.010416180074214935,0.26399185882285237,0.7805339988693595
1772794738423502800,4.2615029296875,0.06464812099933624,0.11731807330474257,0.584652384198457
1772794738433547000,4.271547119140625,0.0884434226065874,0.006007241058163345,0.4766467675097286
1772794738443591000,4.2815908203125,0.1437555599838495,-0.04315287649538368,0.46366439020931716
1772794738453635800,4.2916357421875,0.2335340305864811,-0.022397198312357067,0.5578577546447515
1772794738463680000,4.301679931640625,0.34579964280724523,0.14459559100456534,0.6959143723346293
1772794738473724000,4.311723876953125,0.3941922100543976,0.34963633489329365,0.8880719980463385
1772794738483768800,4.321768798828125,0.3912625863432884,0.5223003382470458,1.1088054376401006
1772794738493813000,4.33181298828125,0.42266427130103107,0.7195480536393821,1.264309010823816
1772794738503858200,4.341858154296875,0.41071313674449916,0.8666415258742869,1.42438412970677
1772794738513901800,4.35190185546875,0.43721711278855796,0.9043298898860812,1.5353411435469984
1772794738523946000,4.361946044921875,0.4069149135053158,0.8871350094571709,1.6425668619044125
1772794738533991200,4.3719912109375,0.3830500537931919,0.8491272042326629,1.6649911674194038
1772794738544035000,4.38203515625,0.33576807813644405,0.7900617056712508,1.6141935848571358
1772794738554079000,4.392078857421875,0.22717852407991884,0.6863985021010041,1.5417691307678818
1772794738564124000,4.4021240234375,0.09591302783489226,0.5952602143872529,1.4161935167275368
1772794738574168000,4.41216796875,-0.00779693748652935,0.5402256153097376,1.1984097207196056
1772794738584212000,4.4222119140625,-0.11952478956878185,0.49080549511313437,0.9624785658635199
1772794738594257000,4.4322568359375,-0.20171499699950218,0.42155404503680766,0.736115157558769
1772794738604301000,4.442301025390625,-0.2534796710282564,0.3457528079908341,0.5477696374811232
1772794738614345000,4.452344970703125,-0.3180553113132715,0.25492804320566353,0.40921690683737394
1772794738624390000,4.462389892578125,-0.38834582211375235,0.19916158618964253,0.28158246057108044
1772794738634434000,4.47243408203125,-0.40998716055750845,0.19274357237350195,0.20269494794756174
1772794738644478200,4.482478271484375,-0.43451311452686786,0.1928486401831731,0.16772884850651024
1772794738654523000,4.49252294921875,-0.43140930329263205,0.25421711845733225,0.1881289547175169
1772794738664567000,4.502567138671875,-0.44392391695082184,0.3582310351613909,0.2678488265119493
1772794738674611200,4.512611083984375,-0.44655075832307334,0.4935104432228952,0.35988632808774706
1772794738684655900,4.52265576171875,-0.4243377574712038,0.5701669453913346,0.452749759093672
1772794738694700000,4.532699951171875,-0.3387292660295963,0.6107499348660931,0.5151392875112593
1772794738704744200,4.542744140625,-0.16278993079960347,0.6172223822832107,0.5615352741137146
1772794738714788900,4.552788818359375,-0.06269874049723148,0.5305454944251105,0.557402850484103
1772794738724833000,4.5628330078125,-0.032224107256531714,0.35060185545720157,0.4863920625850558
1772794738734878000,4.5728779296875,-0.0087228201597929,0.18737605399098245,0.38372429979294537
1772794738744921900,4.582921875,0.02390577624440193,0.07117690171357244,0.2965663869522512
1772794738754966000,4.592966064453125,0.06625555619597434,-0.046215880795195695,0.27899244407787915
1772794738765011200,4.60301123046875,0.08184884664714336,-0.1472151623858139,0.2757880220133811
1772794738775054800,4.613054931640625,0.12058394323289394,-0.19189367754589765,0.32326172084994614
1772794738785099000,4.62309912109375,0.1807429361194372,-0.19444661343172193,0.3070124507080763
1772794738795144200,4.633144287109375,0.27911387850046154,-0.1899612481785938,0.2962040564458817
1772794738805187800,4.643187744140625,0.34685821194946764,-0.17830292255617677,0.27471630112864076
1772794738815232000,4.65323193359375,0.3794160812050104,-0.23536394942738115,0.24391813502199947
1772794738825277200,4.663277099609375,0.40436815163195133,-0.2920983016274869,0.2025880535069853
1772794738835320800,4.67332080078125,0.44280689561963077,-0.3467881058553234,0.17658216317817568
1772794738845365000,4.683364990234375,0.5113181217879057,-0.3737445018419996,0.17206446655802426
1772794738855410200,4.69341015625,0.5989385375738143,-0.3589472936719656,0.21683891637325287
1772794738865454000,4.7034541015625,0.633085721847415,-0.36890962903145696,0.28546149396151305
1772794738875498000,4.713498046875,0.6297083543688059,-0.3022522871015593,0.3227181154925376
1772794738885543000,4.72354296875,0.6066150635510683,-0.1720524838592857,0.37387247560322284
1772794738895587000,4.733587158203125,0.6120698218256235,-0.008904058478213846,0.4407993551895022
1772794738905632000,4.743632080078125,0.5818564698696136,0.16705463903937487,0.5226328581370413
1772794738915676000,4.753676025390625,0.5580336957335472,0.2919213741580024,0.5789375867482275
1772794738925720000,4.763719970703125,0.5205541521668434,0.368724225994572,0.6056845777679234
1772794738935765000,4.773764892578125,0.4489747705996036,0.4064751338485628,0.6217288999222219
1772794738945809000,4.783808837890625,0.340833544832468,0.3966744553241878,0.5848571129903197
1772794738955853000,4.79385302734375,0.2343254732251167,0.2967644302750006,0.5440289165828377
1772794738965897700,4.803897705078125,0.18499767095446584,0.12582429157178848,0.44890755058228965
1772794738975942000,4.81394189453125,0.19117606732845305,-0.08456833473891019,0.3137921009108424
1772794738985985800,4.82398583984375,0.250893746188283,-0.3448718604378402,0.246493684598431
1772794738996030700,4.83403076171875,0.34161738868653774,-0.6320661695413291,0.14808080277182162
1772794739006075000,4.844074951171875,0.44676936950981616,-0.8752277140423655,0.055735258160158986
1772794739016118800,4.854118896484375,0.5484492903083562,-1.0490000074315815,-0.10571370635926723
1772794739026163700,4.864163818359375,0.6542804855674504,-1.252174482524395,-0.20456695236451922
1772794739036207900,4.874207763671875,0.6575561462372541,-1.4247504788011311,-0.25070384963937103
1772794739046251800,4.884251708984375,0.5498737701535225,-1.5330045172929763,-0.25405849382951856
1772794739056296700,4.894296630859375,0.3058727060884237,-1.617717228938639,-0.21117299956604837
1772794739066340900,4.9043408203125,-0.04273790248632431,-1.5930148954890668,-0.15309709656387566
1772794739076386000,4.914385986328125,-0.4135784630477428,-1.4731414386130868,-0.07738989447690546
1772794739086430000,4.924429931640625,-0.7820259909927845,-1.3357584824010729,-0.013934636523947119
1772794739096473900,4.934473876953125,-1.1367506985336542,-1.2278633403494954,0.05258205482624471
1772794739106518800,4.944518798828125,-1.5024176558494566,-1.1347028991583734,0.12566665332466362
1772794739116563000,4.95456298828125,-1.858691346397996,-1.0705255374759435,0.2239903955630958
1772794739126606800,4.96460693359375,-2.1121745245575902,-1.0251950612131506,0.3425419561855495
1772794739136651800,4.97465185546875,-2.234737658908963,-0.9117414813168346,0.35538799375519153
1772794739146696000,4.984696044921875,-2.274779161918163,-0.8107615254811942,0.30874606956765055
1772794739156739800,4.99473974609375,-2.286220593386888,-0.6683481738865376,0.3320987419739365
1772794739166784800,5.00478466796875,-2.220845911678672,-0.4384608657719567,0.39283655766174197
1772794739176829000,5.014828857421875,-2.108094561767578,-0.14802315430045127,0.4921911042526364
1772794739186872800,5.024872802734375,-1.9706553453236817,0.19262674106080083,0.5849547281458973
1772794739196917800,5.034917724609375,-1.8125854287832974,0.5201338443955407,0.6678012075282633
1772794739206962000,5.0449619140625,-1.5763076524466275,0.8668056303948164,0.7532561158433556
1772794739217006000,5.055006103515625,-1.2522206597536802,1.1200398022294045,0.796345462115854
1772794739227050800,5.06505078125,-0.8407780396908521,1.3180441081427037,0.7992806387849152
1772794739237095000,5.075094970703125,-0.444388027331233,1.382098208771646,0.762087584009394
1772794739247139800,5.085139892578125,-0.08117313934266566,1.35487570919469,0.6960634254164993
1772794739257183700,5.095183837890625,0.2793547015190124,1.2353357220567762,0.573279999377951
1772794739267228000,5.105227783203125,0.579033813664317,1.0068507184881716,0.42509500557929275
1772794739277272800,5.11527294921875,0.8067173646569251,0.7215951223623007,0.27568763037882743
1772794739287316700,5.125316650390625,0.9857850610405207,0.44182964808531106,0.09588160978332161
1772794739297361000,5.13536083984375,1.1627987475037573,0.21674919226318595,-0.11597579185031354
1772794739307405800,5.14540576171875,1.1888958963125944,0.018337620723247527,-0.28800489483401176
1772794739317449700,5.15544970703125,1.0819891807764768,-0.08603490016013383,-0.43028862869963047
1772794739327494000,5.165493896484375,0.9927402870059012,-0.0822238174393773,-0.5500470078285783
1772794739337539000,5.1755390625,0.9707815531760453,-0.044377559452131385,-0.577750422790274
1772794739347582700,5.185582763671875,0.9322685749083757,0.09186638279259204,-0.4900954471476376
1772794739357627000,5.195626953125,0.9155366358160972,0.26885661531500515,-0.31504341614618897
1772794739367672000,5.205672119140625,0.8920750962078571,0.48593014416173097,-0.13902268624305725
1772794739377715700,5.2157158203125,0.8081418445020914,0.6557991465020925,-0.006685907504707575
1772794739387759900,5.225759765625,0.717519908812642,0.803555904951319,0.0873491245638579
1772794739397805000,5.23580517578125,0.6435843195080757,0.8970094838701188,0.20388846858106552
1772794739407849000,5.245848876953125,0.57813306543231,0.9529871724840253,0.32075244144275783
1772794739417894000,5.255893798828125,0.560894930383563,1.0014705598197877,0.3868349791593849
1772794739427937800,5.265937744140625,0.5373877980679274,0.9796222275618464,0.4913113988086581
1772794739437982000,5.27598193359375,0.46972529768347737,0.9843515941713005,0.4930274089463055
1772794739448027000,5.28602685546875,0.435133876773715,0.962192369333282,0.5317442392230034
1772794739458070800,5.29607080078125,0.38964930592775343,0.8645691765796393,0.5540596775360405
1772794739468115000,5.306114990234375,0.33178982215523717,0.7272654230836778,0.5180722722232342
1772794739478160000,5.316159912109375,0.2631950093567371,0.5687993468325585,0.4745084403067827
1772794739488203800,5.326203857421875,0.18905951356589792,0.47812458497732874,0.4396512080676853
1772794739498248000,5.336248046875,0.10613163951039313,0.4342832512937486,0.4161930294603109
1772794739508292900,5.34629296875,0.05702011033892631,0.42429830224364995,0.38558760944679377
1772794739518336800,5.356336669921875,0.014429507368803024,0.447677351200208,0.36168943198695774
1772794739528381000,5.366380859375,0.0016799159109592437,0.46848742645159364,0.35120252476409075
1772794739538425900,5.37642578125,0.011802081474661826,0.48668527337796985,0.33916751131638884
1772794739548469800,5.3864697265625,0.05266016156375408,0.4825299803294241,0.33407471822202206
1772794739558514000,5.396513916015625,0.1095318033427,0.4615286202896386,0.3145819361142814
1772794739568558800,5.406558837890625,0.08436696694791317,0.36755635125897823,0.23422055154591798
1772794739578602800,5.416602783203125,0.07534896323382854,0.2230797835242003,0.11569354084283112
1772794739588648000,5.42664794921875,0.05222527727782726,0.029228140310943125,0.04361337014660239
1772794739598691800,5.43669189453125,0.04657411964833736,-0.18496259964108466,-0.03553725039251149
1772794739608735700,5.44673583984375,0.06237666893601417,-0.3957823287900537,-0.08935951453819871
1772794739618781000,5.456781005859375,0.03746902217268944,-0.5926468900837004,-0.16920301271229982
1772794739628824800,5.466824951171875,-0.001180149695277214,-0.7988502114783972,-0.18050876203738153
1772794739638868700,5.47686865234375,-0.08630056535899638,-0.9344280179645865,-0.21019377927035093
1772794739648914000,5.486913818359375,-0.1330728379279375,-1.017227516400069,-0.22860636492595074
1772794739658958000,5.4969580078125,-0.10078034161031246,-1.0602361255865544,-0.23182160064540802
1772794739669001700,5.507001708984375,-0.044354105511307716,-1.0919518449295311,-0.20129713691361248
1772794739679047000,5.517046875,0.06617138504385948,-1.0766442395519464,-0.21026560239754616
1772794739689091000,5.527091064453125,0.14254209254086017,-1.0625916026715188,-0.19403174902051687
1772794739699134700,5.537134765625,0.1557686538606882,-1.0596923740986735,-0.20567104114890097
1772794739709180000,5.547179931640625,0.09907003056108951,-1.0652430670283735,-0.2138965062458068
1772794739719224000,5.55722412109375,0.031102994272112845,-1.1039009336594492,-0.20068886882215736
1772794739729267700,5.567267822265625,-0.0285778597086668,-1.1045218420367686,-0.20261158051304518
1772794739739313000,5.57731298828125,-0.06723930653631686,-1.0834393795847892,-0.17955986381471156
1772794739749356800,5.587356689453125,-0.060663435277342796,-1.0541613357175141,-0.175533896234259
1772794739759401700,5.597401611328125,-0.05413666385710239,-1.036483055685833,-0.19951931358613073
1772794739769446000,5.60744580078125,-0.02894552397727966,-0.9971971202842891,-0.2607018043015152
1772794739779489800,5.61748974609375,-0.05129530295133591,-0.9579881956417113,-0.29826595741175116
1772794739789534700,5.62753466796875,-0.07074468430876732,-0.9542132071476429,-0.3046287704419344
1772794739799579000,5.637578857421875,-0.0936544352531433,-0.949690834352374,-0.30513584318123754
1772794739809622800,5.647622802734375,-0.1006780502796173,-0.8383244359936565,-0.3315687998156994
1772794739819667700,5.657667724609375,-0.07136310846805573,-0.7660089221715927,-0.3515856057975441
1772794739829712000,5.6677119140625,0.01232347500026226,-0.6761993257783353,-0.27406075982935724
1772794739839755800,5.677755859375,0.0894715966105461,-0.5629988438602537,-0.2116032076768577
1772794739849800700,5.68780078125,0.11381517975032329,-0.42311910239644346,-0.12635163991414008
1772794739859844900,5.697844970703125,0.0927788214623928,-0.2733717546518892,-0.022691943475231527
1772794739869888800,5.707888671875,0.02375847672820091,-0.15480835746116936,0.10095694028623402
1772794739879934000,5.717933837890625,-0.019209142860770224,-0.08197846437618136,0.19503873410597442
1772794739889977900,5.727977783203125,-0.029268180060386655,-0.006771978352963924,0.2663529619310051
1772794739900022800,5.738022705078125,0.028357494956254958,0.05311966883428394,0.36492234949357805
1772794739910067000,5.74806689453125,0.06656885992884636,-0.008223273139819503,0.4394539319299161
1772794739920110800,5.75811083984375,0.1411988612383604,-0.12993760864213108,0.45794360140971835
1772794739930155800,5.76815576171875,0.1700163749217987,-0.31371859728321433,0.41871743337139483
1772794739940200000,5.778199951171875,0.2149894891142845,-0.5505178402107208,0.35724238945022224
1772794739950243800,5.788243896484375,0.2381944236129522,-0.7208166853357106,0.23622012786529956
1772794739960289000,5.7982890625,0.21653730307817456,-0.8157005162533372,0.09845445594601332
1772794739970333200,5.808333251953125,0.15302724619805813,-0.8601072287347167,-0.005853475268557668
1772794739980376800,5.818376953125,0.058719315472245216,-0.7422393395274877,0.0033090514827519655
1772794739990422000,5.828422119140625,-0.011328034222126006,-0.5243276062909513,0.13349975810311734
1772794740000466000,5.8384658203125,-0.1508446414619684,-0.2025637958485633,0.2519298843029886
1772794740010510000,5.848510009765625,-0.3665530925005674,0.1218953180924058,0.31286431854143737
1772794740020555000,5.858554931640625,-0.5304594601094722,0.412106636929512,0.43937575212717056
1772794740030599000,5.868598876953125,-0.5581166978418827,0.6762734869930893,0.6248284733727574
1772794740040643000,5.87864306640625,-0.5641279209554195,0.8762744466163217,0.7999880564019084
1772794740050688000,5.88868798828125,-0.4786550385922193,0.9688757926199585,0.9565181961543857
1772794740060732000,5.89873193359375,-0.3389432010412216,1.0174818564873187,1.019931806922704
1772794740070776800,5.90877685546875,-0.19353812028467654,0.9588372867517173,1.0137827097084373
1772794740080821000,5.918821044921875,-0.12178221310675144,0.8199675260480492,0.9301132235053926
1772794740090865000,5.928864990234375,-0.10750409690737724,0.57535212947689,0.7894311526827513
1772794740100909800,5.938909912109375,-0.13321487674713134,0.30510544804297385,0.6518551581166684
1772794740110954000,5.9489541015625,-0.14120119932591915,0.0522829257491976,0.4918592419497668
1772794740120998000,5.958997802734375,-0.16473697321414946,-0.15527539045102892,0.3948088806480169
1772794740131043000,5.96904296875,-0.21705168234109878,-0.3001172113016248,0.37474618969783186
1772794740141087000,5.9790869140625,-0.2311673014551401,-0.34989940627627075,0.44488574772030115
1772794740151131000,5.989130859375,-0.18725041831731795,-0.27109080410785974,0.6204812379486858
1772794740161176000,5.999176025390625,-0.15731296069324016,-0.08872750024497508,0.823191602661088
1772794740171220000,6.009219970703125,-0.14909984362125395,0.1678237602483481,1.0246980714764446
1772794740181264000,6.019263916015625,-0.1361754801183939,0.4764394083693623,1.1935070433698594
1772794740191309000,6.02930908203125,-0.13743629383444786,0.7396268189415335,1.3510603886902333
1772794740201353000,6.03935302734375,-0.1273562138468027,0.9623854807525872,1.5114055566862226
1772794740211396900,6.04939697265625,-0.10397826086878775,1.1011011468730867,1.670814028353989
1772794740221442000,6.059442138671875,-0.025977321821451186,1.17949261960797,1.765790505991131
1772794740231486200,6.069486328125,0.09290040201544761,1.1975338146679102,1.8045175654008982
1772794740241531000,6.07953076171875,0.24487784689962863,1.1534809571254998,1.7572529792703686
1772794740251575000,6.089574951171875,0.4145265575528145,1.040139020910114,1.6838151103548704
1772794740261619200,6.099619140625,0.4699631980925798,0.8561643363278358,1.5311051134124398
1772794740271663900,6.109663818359375,0.45830198639333247,0.6100281599301844,1.3385121650233864
1772794740281708000,6.1197080078125,0.4852829322993755,0.45985257683619857,1.1356065699998288
1772794740291752200,6.129752197265625,0.48750236191451546,0.3533280655506998,0.9639290569327771
1772794740301796900,6.139796875,0.5117717107743025,0.2489094405032694,0.835254015572369
1772794740311841000,6.149841064453125,0.5005483059704303,0.1966958536632359,0.7369408677931875
1772794740321885000,6.159885009765625,0.411118210414052,0.20986929655633865,0.6886798179712146
1772794740331929900,6.169929931640625,0.28828970312476154,0.27781675136201084,0.6760143246002495
1772794740341974000,6.17997412109375,0.1420312204092741,0.3560647970382124,0.6738575849577784
1772794740352018000,6.190017822265625,-0.0005582184046506881,0.45788726811259983,0.6882111775461583
1772794740362062800,6.200062744140625,-0.12877601751685142,0.5468327219571918,0.6545862635809928
1772794740372107000,6.21010693359375,-0.24359131422042846,0.6005068828690797,0.6518039393860846
1772794740382152200,6.220152099609375,-0.26295360181629657,0.6090815267298371,0.644453284362331
1772794740392195800,6.23019580078125,-0.2336953586280346,0.55693260262385,0.6504974598973989
1772794740402240000,6.240239990234375,-0.25402502995133397,0.44518297710120674,0.6972603070508688
1772794740412285200,6.25028515625,-0.2668073546350002,0.34081111380495127,0.7226451428718864
1772794740422328800,6.260328857421875,-0.23149112658202647,0.21204254894219338,0.6885672975074499
1772794740432373000,6.270373046875,-0.15701602357327937,0.07225691550262273,0.663751055354625
1772794740442418200,6.280418212890625,-0.05804419268965721,-0.08559066352397203,0.7010944783862679
1772794740452462000,6.290462158203125,0.05158697937428951,-0.2221075774911791,0.7433249428071081
1772794740462506000,6.300506103515625,0.11705167745351791,-0.3349806540858,0.7826390813898295
1772794740472551000,6.310551025390625,0.1530588103801012,-0.40873007316850124,0.8036977976400405
1772794740482595000,6.320594970703125,0.14988719460666178,-0.4399379160545766,0.7600879346247762
1772794740492639000,6.330638916015625,0.1581423972547054,-0.47417738172151147,0.7470010740365832
1772794740502684000,6.340683837890625,0.15379121630787848,-0.4466019039884209,0.7486365662839263
1772794740512728000,6.35072802734375,0.17630524593293667,-0.41392333096265793,0.7774765109948814
1772794740522772000,6.36077197265625,0.1834013416737318,-0.36028438749462366,0.8197001803487539
1772794740532817000,6.37081689453125,0.1569540642529726,-0.2651120950244367,0.8739867010053247
1772794740542861000,6.380861083984375,0.1525666429489851,-0.1598265509493649,0.9460092232301831
1772794740552905000,6.390905029296875,0.1319838736474514,-0.07784260668046772,0.9890838103249668
1772794740562950000,6.400949951171875,0.08861234943270682,-0.010603482807241379,1.0103749470915644
1772794740572994000,6.410994140625,0.05883563532829284,0.05307374733332544,1.0073584488146006
1772794740583039000,6.4210390625,0.017815642675757408,0.08997077830433844,0.9904626243975013
1772794740593083000,6.431082763671875,-0.039811785906553265,0.1259364467093721,0.9670707890246063
1772794740603127000,6.441126953125,-0.0741916098922491,0.1626572077980265,0.8989759616374969
1772794740613172000,6.451171875,-0.08052081291377544,0.2140005146095529,0.8150474591720849
1772794740623215900,6.4612158203125,-0.09176876763701439,0.23777396971117704,0.7798405367124825
1772794740633260000,6.471260009765625,-0.07720365118980407,0.30579949472174045,0.7629128558523952
1772794740643305000,6.481304931640625,-0.02910977462828159,0.3979049104345962,0.6740898593436926
1772794740653348900,6.491348876953125,-0.01136661266684532,0.4586554029408842,0.6021532618366181
1772794740663393000,6.50139306640625,0.0030821839243173597,0.4576400153532624,0.5788893636923284
1772794740673438000,6.51143798828125,-0.0007838438540697097,0.3874667377242818,0.4993351307883858
1772794740683481900,6.52148193359375,-0.10904489660859107,0.2827798536621034,0.40714097734615207
1772794740693526000,6.531526123046875,-0.28921967745125293,0.07296199503205716,0.2599145263813436
1772794740703571200,6.5415712890625,-0.5038894330918788,-0.18423961912877856,0.034872356742992994
1772794740713614800,6.55161474609375,-0.7006997069150209,-0.37240773681290446,-0.23532960876636205
1772794740723660000,6.561659912109375,-0.8620458686470985,-0.6929548649419098,-0.34317046334743495
1772794740733704200,6.5717041015625,-0.9664899934619665,-0.9061815821673721,-0.36708515355065463
1772794740743747800,6.581747802734375,-0.9692372463434934,-0.9425804178252816,-0.42202655791938304
1772794740753793000,6.59179296875,-0.9259130684018134,-0.8649938317324966,-0.40747459321469065
1772794740763837200,6.601837158203125,-0.8541343648701906,-0.6793465377628802,-0.3012834786020219
1772794740773880800,6.611880859375,-0.7538046896368265,-0.3336433410674333,-0.1100982050538063
1772794740783926000,6.621926025390625,-0.7513169644743204,0.015638517832383514,0.06907426687851548
1772794740793970000,6.631969970703125,-0.7394833188176154,0.2635964297644794,0.22329050366543232
1772794740804014000,6.64201416015625,-0.7260948449343443,0.5007396638240665,0.3167124453369528
1772794740814059000,6.65205908203125,-0.6937935807883739,0.6526882479399442,0.4019112599991262
1772794740824103000,6.66210302734375,-0.6338134516000747,0.7115303860742599,0.500502786328271
1772794740834147000,6.67214697265625,-0.5839736081540584,0.7863700115464627,0.5161831705410033
1772794740844192000,6.68219189453125,-0.5188444256395102,0.8330843433830887,0.4874978318698704
1772794740854236000,6.69223583984375,-0.43002047928273673,0.8081566036798059,0.41013562911748885
1772794740864280800,6.70228076171875,-0.3160796273261309,0.7403852360934019,0.34425102512575684
1772794740874325000,6.712324951171875,-0.17814356727600097,0.6067606095016003,0.25133988252058626
1772794740884369000,6.722368896484375,-0.05181552743315696,0.4721774400759488,0.1445243523992598
1772794740894413800,6.732413818359375,0.07847673986554145,0.35052477163299917,0.027498613104596732
1772794740904458000,6.7424580078125,0.19752280600667,0.29109014749825,-0.0991996482901275
1772794740914502000,6.752501953125,0.30387422574758527,0.21780133166462182,-0.18995755838416517
1772794740924547000,6.762547119140625,0.4253267685085535,0.12253295840881764,-0.22397534412443637
1772794740934591000,6.772591064453125,0.5679290668040514,0.019225217212736605,-0.235145557436347
1772794740944635000,6.782634765625,0.6143921272933482,-0.077770272096619,-0.20911708994954822
1772794740954680000,6.79268017578125,0.6088140349000692,-0.1275344199579209,-0.1545716260958463
1772794740964723700,6.8027236328125,0.5742056628555059,-0.11968889408931135,-0.15433796347044407
1772794740974767900,6.812767822265625,0.5363666383266449,-0.12592391602136194,-0.20245412492901085
1772794740984813000,6.82281298828125,0.4978256030082702,-0.10175378975234925,-0.23904380698390304
1772794740994857000,6.83285693359375,0.436032871440053,-0.12110511756278573,-0.26123452293872834
1772794741004900900,6.84290087890625,0.37866321701109407,-0.14697269539944827,-0.2670341491281986
1772794741014946000,6.852946044921875,0.35060558178424833,-0.15142339119799433,-0.34688604980446397
1772794741024990000,6.862989990234375,0.3748059570610523,-0.15318345967307687,-0.4342367087382823
1772794741035035000,6.873034912109375,0.4158183509290218,-0.14843677660264074,-0.4493785290949046
1772794741045079000,6.8830791015625,0.425322092333436,-0.11013254571482539,-0.40849451084695754
1772794741055123000,6.893123046875,0.38932138914763925,-0.03799450735151767,-0.41440410021692514
1772794741065168000,6.90316796875,0.3103209176689386,-0.020954525223374366,-0.4764404312826693
1772794741075212000,6.9132119140625,0.22695114506483077,0.024082082659378647,-0.47865533085316414
1772794741085256000,6.923255859375,0.11009762053191662,0.09254238235801458,-0.45047954913936555
1772794741095300900,6.93330078125,0.014918167668581008,0.15727372466139494,-0.34764819328337904
1772794741105345000,6.943344970703125,-0.07596855643689632,0.29738961296863853,-0.2984432136747986
1772794741115389000,6.953388916015625,-0.15317922188937663,0.456661160383746,-0.23173472607955337
1772794741125433900,6.963433837890625,-0.2509650578588247,0.503022367933765,-0.25073417171239853
1772794741135478000,6.97347802734375,-0.16136954260766506,0.6039734630011022,-0.37599918543361127
1772794741145522000,6.98352197265625,-0.09965104531943797,0.49155156424008306,-0.09736775668784975
1772794741155566800,6.99356689453125,-0.030589784052968024,0.4085637766908854,0.011639365193620323
1772794741165610800,7.00361083984375,0.10337912593185901,0.30160379659757014,0.05458586892932653
1772794741175656000,7.013656005859375,0.16695581830739975,0.08553199213929474,0.18667071873322127
1772794741185699800,7.023699951171875,0.2995166150599718,0.11614347656741737,0.11784333928786217
1772794741195743700,7.03374365234375,0.40343817730545994,0.2503499216351658,0.1470659997060895
1772794741205789000,7.043788818359375,0.4420920253485441,0.20032434635870158,0.1133474161081016
1772794741215832800,7.053832763671875,0.20456512573361396,-0.4205365385573357,0.1955571319568902
1772794741225876700,7.063876708984375,0.19077157818078994,-0.4143331538725644,0.16269290016591548
1772794741235922000,7.073921875,0.3622323066920042,-0.24128391406089067,-0.1634478101864457
1772794741245966000,7.083966064453125,0.4101373826831579,-0.3477117600388825,-0.20654519363492727
1772794741256009700,7.094009765625,0.4450801012486219,-0.5918540592055768,-0.1805329466305673
1772794741266055000,7.104054931640625,0.5003858088850974,-0.7570142993330955,-0.12276362535953521
1772794741276099000,7.11409912109375,0.5061696529835462,-0.7187794073544442,-0.1382777130946517
1772794741286142700,7.124142822265625,0.4187637567311525,-0.7330453947246074,-0.1429353296421468
1772794741296188000,7.13418798828125,0.23674948550164698,-0.715174295534566,-0.1604214481025934
1772794741306232000,7.144232177734375,0.1411199507832527,-0.6187426506530493,-0.2269426694974303
1772794741316276700,7.15427685546875,0.10739946748912334,-0.5140361485749483,-0.2509451841145754
1772794741326321000,7.16432080078125,0.06382336061298848,-0.45171829715408385,-0.18825448079332707
1772794741336365000,7.174364990234375,-0.02741758375763893,-0.48379459343776104,-0.08325111466050147
1772794741346409700,7.18440966796875,-0.07282616675794124,-0.4684685756206512,0.002143441769480705
1772794741356454000,7.194453857421875,-0.11436053867340087,-0.5557822635449469,-0.07719152236059308
1772794741366498000,7.204498046875,-0.09565466915965079,-0.507973122208938,-0.054606619456410405
1772794741376542700,7.214542724609375,0.028803485158085822,-0.29652174409292636,0.20022519683316348
1772794741386587000,7.2245869140625,0.09718553198873996,-0.16657178742587567,0.3882341784328222
1772794741396631000,7.234631103515625,0.0919686741232872,-0.2210052422724664,0.6075171269573271
1772794741406675700,7.24467578125,0.07820259909927844,-0.25798414284065363,0.6000381693787873
1772794741416720000,7.254719970703125,0.1369721834540367,-0.19476210912168024,0.4943498897217214
1772794741426764000,7.264763916015625,0.3460486491322517,-0.18417422574236988,0.38554011704325675
1772794741436808700,7.27480859375,0.40973113996982574,-0.28284795046225186,0.3031593554764986
1772794741446852900,7.284852783203125,0.44257367138564585,-0.3110669137306511,0.2863778781540692
1772794741456898000,7.29489794921875,0.42137715409994125,-0.3028453941565007,0.18091697751209138
1772794741466942000,7.30494189453125,0.32435704180598257,-0.31346549930498,0.12224924609661102
1772794741476985900,7.31498583984375,0.1969032128036022,-0.3429093281932175,0.12734978410601616
1772794741487031000,7.325031005859375,-0.0012415244936943054,-0.32900340630710123,0.10250921122953295
1772794741497075000,7.335074951171875,-0.2665197698652744,-0.3100703039087355,0.13099603165388107
1772794741507118800,7.345118896484375,-0.45472003625333307,-0.21959990551918743,0.07724632128775119
1772794741517164000,7.3551640625,-0.5431704731225967,-0.13438070565611124,0.07851371087506413
1772794741527208000,7.3652080078125,-0.5861357546240091,-0.11884689030721783,0.08755480320379137
1772794741537251800,7.375251953125,-0.6425912168174982,-0.07171762099415063,0.0821725256435573
1772794741547297000,7.385297119140625,-0.7432295196086168,-0.06798574098944664,0.046985476928204296
1772794741557341000,7.3953408203125,-0.8352870410591363,-0.07504238150268792,0.01668488508015871
1772794741567384800,7.405384765625,-0.917400091600418,-0.09154518801420926,0.017920125963538883
1772794741577430000,7.415429931640625,-0.9370651615351437,-0.13482757264077663,0.08838979272320865
1772794741587474000,7.425473876953125,-0.8848018903344869,-0.12567717471867798,0.13539265917763113
1772794741597518800,7.435518798828125,-0.8395277473688125,-0.08709083895385265,0.19274682377651334
1772794741607563000,7.44556298828125,-0.8422370063275099,-0.007224690556526183,0.2591375506594777
1772794741617607000,7.45560693359375,-0.9032143298596144,0.17674202991500496,0.20892858164012432
1772794741627651800,7.46565185546875,-0.9453805699378252,0.2790308763921261,0.283104117180407
1772794741637695700,7.47569580078125,-0.8509633336186408,0.3626734745882451,0.41688115785494445
1772794741647740000,7.485739990234375,-0.6544207708209753,0.42142727685198184,0.4432584387794137
1772794741657784800,7.495784912109375,-0.48472822102606294,0.4794577332772314,0.45824996394515033
1772794741667828700,7.505828857421875,-0.3513561078906059,0.5432806554988027,0.5129765565194189
1772794741677873000,7.515872802734375,-0.33188685278892516,0.6053640405766666,0.5479755353167652
1772794741687917800,7.525917724609375,-0.348836234024167,0.6881837780825794,0.569411560446769
1772794741697961700,7.535961669921875,-0.33403730882108207,0.778689393915981,0.5838556808628141
1772794741708006000,7.546005859375,-0.2670125218182802,0.8231976670756935,0.6201686648681759
1772794741718051000,7.556051025390625,-0.16486206089854238,0.8735330389536917,0.6687485713809729
1772794741728094700,7.5660947265625,-0.03985270243883133,0.8620425076462328,0.7380636612780391
1772794741738140000,7.576139892578125,0.0987573113501072,0.8976438362509012,0.7954252785310149
1772794741748184000,7.58618408203125,0.17422142539620397,0.9202224555447697,0.8254911848403513
1772794741758227700,7.596227783203125,0.23244331274032592,0.9366437212526798,0.9075770551137625
1772794741768273000,7.60627294921875,0.2743348275303841,0.9459998708799481,1.0116146449543535
1772794741778317000,7.616317138671875,0.22749591946601866,0.9355600176692008,1.0682586154572664
1772794741788361000,7.62636083984375,0.1767868919700384,0.9254447202377021,1.10891825036481
1772794741798406000,7.636406005859375,0.2435065585464239,0.8528060388758778,1.088036936508119
1772794741808450000,7.646449951171875,0.30359833141565323,0.8265238888889551,1.0561233565054833
1772794741818494000,7.656493896484375,0.4203898966282606,0.8581452079467475,1.130769139906019
1772794741828539000,7.666538818359375,0.46761049748659134,0.7675263409972191,1.2081884796731173
1772794741838583000,7.6765830078125,0.4609411027252674,0.650943888490647,1.1304748331345618
1772794741848627000,7.686626953125,0.5266051227688789,0.6186408707790076,1.070288659980148
1772794741858671900,7.696671875,0.5639174930751324,0.6024836628347635,1.146520105136931
1772794741868716000,7.706716064453125,0.5217231959462165,0.5275293980069459,1.158771830075234
1772794741878760700,7.7167607421875,0.45198505833148955,0.4702683185189962,1.1374088701814413
1772794741888804900,7.726804931640625,0.31961832284629343,0.46444195045307274,1.0835828797087073
1772794741898849000,7.73684912109375,0.13242284958660602,0.4536367710612714,1.0284906686924398
1772794741908893700,7.746893798828125,-0.002118307328224182,0.4067335655890405,1.0411085965946316
1772794741918937900,7.756937744140625,-0.14146598774194716,0.35657910323590036,1.0987054839082062
1772794741928982000,7.76698193359375,-0.21975509608089921,0.33725247147530313,1.1190332555353641
1772794741939027000,7.77702685546875,-0.284018017154932,0.2941632713332772,1.113657553846389
1772794741949070800,7.78707080078125,-0.266332138338685,0.24230039762705563,1.138128562758118
1772794741959114800,7.79711474609375,-0.24582301879525184,0.20705255863517522,1.1569795398309826
1772794741969159200,7.8071591796875,-0.20536533620059488,0.1498804726049304,1.2145824184939265
1772794741979203300,7.817203369140625,-0.19015724567472933,0.0723012661010027,1.2987857193127275
1772794741989247000,7.8272470703125,-0.22014088052809236,-0.010299714087694882,1.3556757735311984
1772794741999292200,7.837292236328125,-0.2806014867097139,-0.0733180419281125,1.3537155793741344
1772794742009336300,7.84733642578125,-0.3913315599262714,-0.1720307834841311,1.3349867673762141
1772794742019381000,7.857381103515625,-0.5391022007703781,-0.28188232030048965,1.2983832759916782
1772794742029425200,7.867425048828125,-0.6363555372983217,-0.38908421939089893,1.3620388788223265
1772794742039469300,7.87746923828125,-0.6272901873111725,-0.49023938566297287,1.391068866212666
1772794742049514000,7.887513916015625,-0.4733008180826902,-0.539001663005352,1.3347154030889272
1772794742059558100,7.89755810546875,-0.32212124557793137,-0.5942284601867198,1.2470273288942872
1772794742069602300,7.907602294921875,-0.2915074961274862,-0.6309058935903012,1.1861213170327245
1772794742079647000,7.91764697265625,-0.3581570200771093,-0.6085743809252977,1.162232638053596
1772794742089691100,7.927691162109375,-0.5154769950330257,-0.5458068129755557,1.089099451173097
1772794742099735300,7.9377353515625,-0.5832809497147798,-0.48248351083919405,1.010834308231622
1772794742109780000,7.947780029296875,-0.5947381632745266,-0.41711072882711886,0.9420712992593645
1772794742119824100,7.95782421875,-0.5299661236345767,-0.3260496710680425,0.9294393428318202
1772794742129868300,7.967868408203125,-0.4072089280158281,-0.18154241593405604,0.9539975916355847
1772794742139913000,7.977912841796875,-0.23133038306236267,-0.01518558643311262,0.9679610889278352
1772794742149957000,7.98795703125,-0.13130699729919432,0.16942951494455336,0.9615297407060861
1772794742160002300,7.998002197265625,-0.11342822625935077,0.33678982239961625,1.021500079152733
1772794742170046200,8.008046142578126,-0.10281389326453208,0.47574967253953215,1.1123986398264765
1772794742180090000,8.018090087890625,-0.06445230616629123,0.623260785664618,1.1406249096184968
1772794742190135300,8.02813525390625,-0.004237199178338051,0.746171272148937,1.1352630903244019
1772794742200179200,8.03817919921875,0.08160510101914405,0.8029160726778208,1.0975091137304902
1772794742210223000,8.04822314453125,0.1294914723098278,0.8116425460994243,1.059901559869945
1772794742220268300,8.058268310546875,0.12572539777457714,0.7788413696072995,0.9605874914199113
1772794742230312200,8.068312255859375,0.12690613199174403,0.6360111077748238,0.8908207122325896
1772794742240356000,8.078356201171875,0.17038462371230123,0.6022204818539321,0.7792828297644853
1772794742250401300,8.0884013671875,0.20718845997452734,0.43744040015041824,0.6979422249004245
1772794742260445200,8.098445068359375,0.1554372299492359,0.32280411327555775,0.5138485170483589
1772794742270489000,8.108489013671875,0.202942492967844,0.3585463116556406,0.4199693331286311
1772794742280534300,8.1185341796875,0.15149170719385147,0.19481150122135876,0.5029087514914572
1772794742290578200,8.128578125,0.06117664549648762,0.06624883419424295,0.4533526934228837
1772794742300623000,8.138623046875,0.04669394663572311,0.0038882396101951595,0.3218203629352152
1772794742310667000,8.1486669921875,0.012208324187994002,-0.00956526233330369,0.22038754876554012
1772794742320711200,8.158711181640625,0.016347323688864705,0.07462693256959319,0.17563742967396972
1772794742330756000,8.168756103515625,0.08140694809854031,0.18623378862068055,0.3982647201903164
1772794742340800000,8.178800048828125,0.22081308070123196,0.24542349808365105,0.6439049297645688
1772794742350844200,8.18884423828125,0.36622576024234293,0.2896406793422997,0.7054698439262806
1772794742360889000,8.19888916015625,0.4410036455899477,0.3150673815436661,0.6571781067050994
