time,seconds_elapsed,z,y,x
1772794734235009300,0.07300927734375,-0.8479061126708984,-0.012046996504068375,-0.18997973203659058
1772794734245053200,0.08305322265625,-0.831596314907074,-0.036149248480796814,-0.17283661663532257
1772794734255098400,0.093098388671875,-0.8154758810997009,-0.08520999550819397,-0.17343635857105255
1772794734265142300,0.103142333984375,-0.796241044998169,-0.12191762775182724,-0.18937888741493225
1772794734275186200,0.113186279296875,-0.7596390843391418,-0.12024516612291336,-0.21218405663967133
1772794734285231400,0.1232314453125,-0.7202779054641724,-0.08735005557537079,-0.2340800166130066
1772794734295275300,0.133275146484375,-0.6771669387817383,-0.07173460721969604,-0.25746390223503113
1772794734305319400,0.1433193359375,-0.6413823366165161,-0.07875880599021912,-0.28348392248153687
1772794734315364400,0.1533642578125,-0.5987661480903625,-0.07003669440746307,-0.3008727729320526
1772794734325408300,0.163408203125,-0.5542946457862854,-0.026835305616259575,-0.30614593625068665
1772794734335452400,0.173452392578125,-0.5116987228393555,0.05140463635325432,-0.3048918545246124
1772794734345497300,0.183497314453125,-0.4266345202922821,0.13569176197052002,-0.2908228635787964
1772794734355541200,0.193541259765625,-0.35080447793006897,0.1919528990983963,-0.2963521182537079
1772794734365585400,0.20358544921875,-0.27219411730766296,0.2385907620191574,-0.31612110137939453
1772794734375630300,0.21363037109375,-0.17758479714393616,0.264677494764328,-0.3383856415748596
1772794734385674200,0.22367431640625,-0.07234226912260056,0.3018178343772888,-0.35329949855804443
1772794734395718400,0.233718505859375,0.024366427212953568,0.3313291370868683,-0.36704087257385254
1772794734405763300,0.243763427734375,0.13140644133090973,0.36542779207229614,-0.3610164225101471
1772794734415807200,0.25380712890625,0.25058504939079285,0.3793385624885559,-0.3354724645614624
1772794734425851400,0.263851318359375,0.3565543293952942,0.33572232723236084,-0.3143002688884735
1772794734435896300,0.273896240234375,0.48264622688293457,0.2871837913990021,-0.27933269739151
1772794734445940200,0.283940185546875,0.636710524559021,0.25142672657966614,-0.2229323536157608
1772794734455985400,0.2939853515625,0.7797572016716003,0.19627745449543,-0.16183145344257355
1772794734466029000,0.304029052734375,0.8932135105133057,0.16208140552043915,-0.10618067532777786
1772794734476073200,0.3140732421875,0.9851828813552856,0.15466316044330597,-0.053361669182777405
1772794734486118400,0.324118408203125,1.054844617843628,0.1439521461725235,-0.013577730394899845
1772794734496162300,0.334162353515625,1.0871686935424805,0.10790812224149704,0.001426785602234304
1772794734506206200,0.344206298828125,1.076237678527832,0.047686368227005005,-0.008906368166208267
1772794734516251400,0.35425146484375,1.0224772691726685,-0.014869153499603271,-0.03887572139501572
1772794734526295300,0.36429541015625,0.9466856718063354,-0.04733281582593918,-0.07104161381721497
1772794734536339200,0.374339111328125,0.856171190738678,-0.053387779742479324,-0.08653641492128372
1772794734546384400,0.38438427734375,0.7714528441429138,0.04295196756720543,-0.08475332707166672
1772794734556428300,0.39442822265625,0.7335717678070068,0.14074884355068207,-0.0831461101770401
1772794734566472200,0.40447216796875,0.7108384966850281,0.17517971992492676,-0.07854065299034119
1772794734576517400,0.414517333984375,0.6930195689201355,0.2918538749217987,-0.05840502306818962
1772794734586561300,0.424561279296875,0.6594558358192444,0.44825705885887146,-0.04962219297885895
1772794734596605200,0.434605224609375,0.5743275880813599,0.4162730276584625,-0.09046736359596252
1772794734606650400,0.444650390625,0.49622610211372375,0.36431050300598145,-0.1445140838623047
1772794734616694300,0.4546943359375,0.4720374345779419,0.26422280073165894,-0.21134157478809357
1772794734626738400,0.464738525390625,0.45428401231765747,0.1018792986869812,-0.26188668608665466
1772794734636783400,0.474783447265625,0.4562201499938965,0.11116015166044235,-0.2638520896434784
1772794734646827300,0.4848271484375,0.45499807596206665,0.04514635354280472,-0.2743818163871765
1772794734656871400,0.494871337890625,0.41514599323272705,0.008215767331421375,-0.27919813990592957
1772794734666916400,0.504916259765625,0.4241958558559418,0.1340051293373108,-0.2551862597465515
1772794734676960300,0.514960205078125,0.4624609649181366,0.18447469174861908,-0.24900959432125092
1772794734687004400,0.52500439453125,0.5070071220397949,0.1946290135383606,-0.24919621646404266
1772794734697049300,0.53504931640625,0.5957196354866028,0.19721493124961853,-0.2389659583568573
1772794734707093200,0.54509326171875,0.6416382193565369,0.03523731976747513,-0.22664043307304382
1772794734717137400,0.555137451171875,0.6283817887306213,-0.0727810263633728,-0.19340577721595764
1772794734727182300,0.565182373046875,0.5960269570350647,-0.14136290550231934,-0.15576475858688354
1772794734737226200,0.575226318359375,0.5678033232688904,-0.197726309299469,-0.11218558996915817
1772794734747271400,0.585271484375,0.553686261177063,-0.1797901839017868,-0.052099358290433884
1772794734757315300,0.5953154296875,0.5155335068702698,-0.08980225026607513,0.029019996523857117
1772794734767359200,0.605359130859375,0.4230729341506958,-0.02468748204410076,0.1048135980963707
1772794734777404400,0.615404296875,0.35656288266181946,-0.01709853857755661,0.17568270862102509
1772794734787448000,0.625447998046875,0.2874089777469635,-0.14636774361133575,0.21761782467365265
1772794734797492200,0.6354921875,0.27609509229660034,-0.1938423067331314,0.2639743983745575
1772794734807537400,0.645537353515625,0.277028888463974,-0.18886230885982513,0.3092447519302368
1772794734817581000,0.6555810546875,0.26940640807151794,-0.16497322916984558,0.33870330452919006
1772794734827625200,0.665625244140625,0.25341159105300903,-0.1689506471157074,0.3585343062877655
1772794734837670400,0.67567041015625,0.24334512650966644,-0.19451700150966644,0.3747604191303253
1772794734847714300,0.68571435546875,0.2475321739912033,-0.19501282274723053,0.39074650406837463
1772794734857758200,0.69575830078125,0.2554148733615875,-0.17526787519454956,0.40836599469184875
1772794734867803400,0.705803466796875,0.26183831691741943,-0.12343883514404297,0.4157480299472809
1772794734877847300,0.715847412109375,0.2615078091621399,-0.05882255360484123,0.40555158257484436
1772794734887891200,0.72589111328125,0.2568807005882263,0.0010440889745950699,0.3749142289161682
1772794734897936400,0.735936279296875,0.2611374855041504,0.05567004904150963,0.33652156591415405
1772794734907980300,0.745980224609375,0.27611473202705383,0.07694061845541,0.29459235072135925
1772794734918024200,0.756024169921875,0.28514736890792847,0.0883147120475769,0.2610820531845093
1772794734928069400,0.7660693359375,0.2869919538497925,0.13364160060882568,0.24363765120506287
1772794734938113300,0.77611328125,0.28948813676834106,0.16586078703403473,0.23556160926818848
1772794734948157200,0.7861572265625,0.2973875105381012,0.16106967628002167,0.2289014458656311
1772794734958202600,0.79620263671875,0.3136431872844696,0.15406794846057892,0.23478808999061584
1772794734968246500,0.80624658203125,0.3194803297519684,0.15177644789218903,0.24994584918022156
1772794734978291500,0.81629150390625,0.3069128692150116,0.12002918124198914,0.26831045746803284
1772794734988335400,0.82633544921875,0.29316672682762146,0.08494117856025696,0.28200769424438477
1772794734998379500,0.836379638671875,0.2805396318435669,0.061166342347860336,0.2982335388660431
1772794735008424400,0.846424560546875,0.27086520195007324,0.06984946131706238,0.31352096796035767
1772794735018468400,0.85646826171875,0.25926846265792847,0.09709333628416061,0.3215338885784149
1772794735028512500,0.866512451171875,0.2502214312553406,0.11691513657569885,0.29833388328552246
1772794735038557400,0.876557373046875,0.2526707351207733,0.13044267892837524,0.23365792632102966
1772794735048601300,0.886601318359375,0.28569692373275757,0.14565697312355042,0.13587121665477753
1772794735058645500,0.8966455078125,0.3263982832431793,0.18191538751125336,0.02777724526822567
1772794735068690400,0.9066904296875,0.38328713178634644,0.25432226061820984,-0.07942195981740952
1772794735078734300,0.916734375,0.4514361023902893,0.32229357957839966,-0.16595152020454407
1772794735088778500,0.926778564453125,0.513468325138092,0.34647974371910095,-0.22225375473499298
1772794735098823400,0.936823486328125,0.5770297050476074,0.3455372750759125,-0.24875779449939728
1772794735108867300,0.946867431640625,0.6398664116859436,0.33042481541633606,-0.24683761596679688
1772794735118911500,0.956911376953125,0.7070510387420654,0.3203900158405304,-0.2225690335035324
1772794735128956700,0.966956787109375,0.7680366635322571,0.3175016939640045,-0.18586845695972443
1772794735139000300,0.977000244140625,0.8087146282196045,0.3022226095199585,-0.13495761156082153
1772794735149044500,0.98704443359375,0.8175806403160095,0.2563169300556183,-0.0871778056025505
1772794735159089700,0.997089599609375,0.786913275718689,0.18506166338920593,-0.052151113748550415
1772794735169133300,1.00713330078125,0.739279568195343,0.08925341814756393,-0.022705141454935074
1772794735179177500,1.017177490234375,0.6766456961631775,-0.00891842134296894,-0.003567666746675968
1772794735189222700,1.02722265625,0.5874947309494019,-0.10217609256505966,0.001137773972004652
1772794735199266600,1.0372666015625,0.48481523990631104,-0.19038264453411102,-0.012260322459042072
1772794735209311500,1.0473115234375,0.3705008924007416,-0.26732978224754333,-0.04340289533138275
1772794735219355600,1.057355712890625,0.26351210474967957,-0.32934921979904175,-0.07999206334352493
1772794735229399600,1.067399658203125,0.16260358691215515,-0.36626961827278137,-0.12079999595880508
1772794735239444500,1.077444580078125,0.061237022280693054,-0.3880862295627594,-0.149489164352417
1772794735249488600,1.087488525390625,-0.035712823271751404,-0.4036017656326294,-0.1640719175338745
1772794735259532500,1.097532470703125,-0.11602657288312912,-0.3914873003959656,-0.16081221401691437
1772794735269577500,1.107577392578125,-0.194358691573143,-0.3314281702041626,-0.14756062626838684
1772794735279621600,1.11762158203125,-0.26091933250427246,-0.2393674999475479,-0.1328386813402176
1772794735289665500,1.12766552734375,-0.3143681585788727,-0.12874425947666168,-0.11292175948619843
1772794735299710500,1.13771044921875,-0.35435497760772705,-0.0362582765519619,-0.09115547686815262
1772794735309754400,1.14775439453125,-0.37986499071121216,0.015656009316444397,-0.05864938348531723
1772794735319798500,1.157798583984375,-0.4045562148094177,0.03699139133095741,-0.016969049349427223
1772794735329843500,1.167843505859375,-0.4186941087245941,0.04346899315714836,0.02851933054625988
1772794735339887400,1.177887451171875,-0.42249205708503723,0.04995858296751976,0.08649847656488419
1772794735349931500,1.187931640625,-0.41879478096961975,0.05880565941333771,0.14526401460170746
1772794735359976400,1.1979765625,-0.4066648781299591,0.08008884638547897,0.19517377018928528
1772794735370020400,1.208020263671875,-0.3983141779899597,0.0950523391366005,0.23694276809692383
1772794735380064500,1.218064453125,-0.40586477518081665,0.1063406839966774,0.25899213552474976
1772794735390109400,1.228109375,-0.4162367582321167,0.11484570056200027,0.26665279269218445
1772794735400153300,1.2381533203125,-0.4214160740375519,0.13416826725006104,0.26790714263916016
1772794735410197500,1.248197509765625,-0.4288966953754425,0.1762043982744217,0.2654666304588318
1772794735420242400,1.258242431640625,-0.43499478697776794,0.212343230843544,0.259514182806015
1772794735430286300,1.268286376953125,-0.44877374172210693,0.22697192430496216,0.2464626282453537
1772794735440330500,1.27833056640625,-0.46868592500686646,0.20620113611221313,0.2182656228542328
1772794735450375700,1.288375732421875,-0.5016008615493774,0.15819646418094635,0.18213272094726562
1772794735460419300,1.29841943359375,-0.5421980619430542,0.11706075817346573,0.14551639556884766
1772794735470464500,1.308464599609375,-0.5861879587173462,0.07535656541585922,0.11491524428129196
1772794735480508700,1.3185087890625,-0.6280438303947449,0.02899332530796528,0.0935276672244072
1772794735490552300,1.32855224609375,-0.6715675592422485,-0.02812204882502556,0.08432368189096451
1772794735500597500,1.338597412109375,-0.7204099893569946,-0.10544479638338089,0.09232009202241898
1772794735510641700,1.3486416015625,-0.7655131816864014,-0.16962102055549622,0.1167166605591774
1772794735520685300,1.358685302734375,-0.8053349256515503,-0.2099042683839798,0.15436071157455444
1772794735530730500,1.36873046875,-0.8298327326774597,-0.22563612461090088,0.1934778243303299
1772794735540774700,1.378774658203125,-0.8320404887199402,-0.22303394973278046,0.22661367058753967
1772794735550818600,1.388818603515625,-0.8130743503570557,-0.19159848988056183,0.25175222754478455
1772794735560863500,1.398863525390625,-0.7966543436050415,-0.1335466355085373,0.2594258487224579
1772794735570907600,1.40890771484375,-0.7610702514648438,-0.12153828889131546,0.24355512857437134
1772794735580951600,1.41895166015625,-0.6873685717582703,-0.11732356995344162,0.2282896339893341
1772794735590996500,1.42899658203125,-0.5916258692741394,-0.13346178829669952,0.2096184939146042
1772794735601040600,1.43904052734375,-0.4862416982650757,-0.17296579480171204,0.20068785548210144
1772794735611084500,1.44908447265625,-0.4004068672657013,-0.17903588712215424,0.195328950881958
1772794735621129500,1.45912939453125,-0.34050729870796204,-0.16042891144752502,0.19308790564537048
1772794735631173400,1.46917333984375,-0.3100849986076355,-0.1301872730255127,0.18580858409404755
1772794735641217500,1.479217529296875,-0.3004635274410248,-0.11741980910301208,0.18257418274879456
1772794735651262500,1.489262451171875,-0.31439802050590515,-0.14950375258922577,0.16466447710990906
1772794735661306400,1.499306396484375,-0.36305394768714905,-0.21268193423748016,0.13477475941181183
1772794735671350500,1.5093505859375,-0.44002944231033325,-0.29476431012153625,0.0926041379570961
1772794735681395500,1.5193955078125,-0.529483437538147,-0.4054732322692871,0.033187951892614365
1772794735691439400,1.529439453125,-0.6121954321861267,-0.5137502551078796,-0.03331984207034111
1772794735701483500,1.5394833984375,-0.6693754196166992,-0.5920062065124512,-0.10758049041032791
1772794735711528400,1.549528564453125,-0.6941105127334595,-0.629492998123169,-0.1738877147436142
1772794735721572400,1.559572265625,-0.6767794489860535,-0.6205141544342041,-0.22623321413993835
1772794735731617500,1.569617431640625,-0.6190442442893982,-0.5502797961235046,-0.2582930028438568
1772794735741661400,1.579661376953125,-0.5427345633506775,-0.4332035481929779,-0.268924355506897
1772794735751705300,1.589705322265625,-0.45208144187927246,-0.301130473613739,-0.26845109462738037
1772794735761750500,1.59975048828125,-0.36795300245285034,-0.17404203116893768,-0.25831085443496704
1772794735771794400,1.60979443359375,-0.29051586985588074,-0.08864127099514008,-0.22991126775741577
1772794735781838300,1.61983837890625,-0.18678230047225952,-0.014087135903537273,-0.17935222387313843
1772794735791883500,1.629883544921875,-0.08191698789596558,0.0796847864985466,-0.10346190631389618
1772794735801927700,1.639927734375,0.0042437296360731125,0.1538626104593277,-0.020200567319989204
1772794735811971300,1.649971435546875,0.05891399830579758,0.2017085999250412,0.05290067940950394
1772794735822016500,1.6600166015625,0.09244825690984726,0.21921327710151672,0.11136345565319061
1772794735832060700,1.670060791015625,0.12088924646377563,0.21954277157783508,0.14003658294677734
1772794735842104300,1.680104248046875,0.1518748551607132,0.2213401347398758,0.14461375772953033
1772794735852149500,1.6901494140625,0.1711113303899765,0.22015109658241272,0.11832618713378906
1772794735862193700,1.700193603515625,0.18147581815719604,0.21693933010101318,0.07433689385652542
1772794735872237600,1.710237548828125,0.18700522184371948,0.20182949304580688,0.02801421843469143
1772794735882282500,1.720282470703125,0.18293644487857819,0.16542088985443115,-0.02239835448563099
1772794735892326700,1.73032666015625,0.16827042400836945,0.12093757092952728,-0.05659227818250656
1772794735902370600,1.74037060546875,0.14047980308532715,0.07592242956161499,-0.07777239382266998
1772794735912415500,1.75041552734375,0.10328201949596405,0.017156537622213364,-0.096524178981781
1772794735922459600,1.760459716796875,0.059913236647844315,-0.043982718139886856,-0.10613393038511276
1772794735932503600,1.770503662109375,0.017013555392622948,-0.11147137731313705,-0.11866982281208038
1772794735942548500,1.780548583984375,-0.028381090611219406,-0.18393653631210327,-0.13913275301456451
1772794735952592400,1.79059228515625,-0.06477302312850952,-0.267045259475708,-0.17231199145317078
1772794735962637000,1.800636962890625,-0.0932542011141777,-0.33081865310668945,-0.2147960662841797
1772794735972681700,1.810681640625,-0.1104116141796112,-0.3723583519458771,-0.2692526578903198
1772794735982726000,1.820725830078125,-0.1198730319738388,-0.37697362899780273,-0.32693564891815186
1772794735992770800,1.830770751953125,-0.12234493345022202,-0.3542950451374054,-0.38415199518203735
1772794736002814700,1.840814697265625,-0.1299346685409546,-0.3027690052986145,-0.4350958466529846
1772794736012859000,1.85085888671875,-0.13610820472240448,-0.2436669021844864,-0.47934362292289734
1772794736022903800,1.86090380859375,-0.1429179161787033,-0.17171308398246765,-0.5171711444854736
1772794736032947700,1.87094775390625,-0.14788185060024261,-0.12686902284622192,-0.5616838932037354
1772794736042991900,1.880991943359375,-0.1407267302274704,-0.11300833523273468,-0.5912657976150513
1772794736053037000,1.891037109375,-0.15729153156280518,-0.09374143183231354,-0.584189236164093
1772794736063080700,1.901080810546875,-0.17822878062725067,-0.09974073618650436,-0.5402984619140625
1772794736073124900,1.911124755859375,-0.1808529794216156,-0.11536289006471634,-0.4680607318878174
1772794736083170000,1.921170166015625,-0.16619786620140076,-0.09268953651189804,-0.38378632068634033
1772794736093213700,1.931213623046875,-0.14845554530620575,-0.044359225779771805,-0.29396191239356995
1772794736103257900,1.9412578125,-0.13664601743221283,0.007692256476730108,-0.21101351082324982
1772794736113303000,1.951302978515625,-0.12345106154680252,0.019553812220692635,-0.1359950304031372
1772794736123346700,1.9613466796875,-0.08859188109636307,0.03902018442749977,-0.06248753145337105
1772794736133390800,1.971390869140625,-0.041794631630182266,0.07461806386709213,0.011832792311906815
1772794736143436000,1.98143603515625,0.0025121113285422325,0.15487854182720184,0.07578115165233612
1772794736153480000,1.99147998046875,0.026269329711794853,0.23610800504684448,0.11818256974220276
1772794736163523800,2.00152392578125,0.035420749336481094,0.29085037112236023,0.1211962029337883
1772794736173569000,2.011569091796875,0.043702106922864914,0.3187345862388611,0.09083281457424164
1772794736183613000,2.021613037109375,0.051347777247428894,0.32293227314949036,0.03758983314037323
1772794736193656800,2.03165673828125,0.05347416177392006,0.3140949606895447,-0.028177544474601746
1772794736203702000,2.041701904296875,0.04076129570603371,0.27886584401130676,-0.08891332894563675
1772794736213746000,2.051745849609375,0.016564782708883286,0.20934706926345825,-0.1259300708770752
1772794736223790800,2.061790771484375,-0.005106691736727953,0.1538608968257904,-0.14687156677246094
1772794736233834800,2.071834716796875,-0.007379166781902313,0.13125093281269073,-0.15029959380626678
1772794736243879000,2.08187890625,0.005838367622345686,0.10270583629608154,-0.15196193754673004
1772794736253923800,2.091923828125,0.016573281958699226,0.09705173969268799,-0.16400960087776184
1772794736263967700,2.1019677734375,0.05615611374378204,0.10836884379386902,-0.17366169393062592
1772794736274012000,2.112011962890625,0.1058303639292717,0.13068623840808868,-0.1886037141084671
1772794736284056800,2.122056884765625,0.1565776914358139,0.1544962376356125,-0.19664166867733002
1772794736294100700,2.132100830078125,0.20189166069030762,0.15566706657409668,-0.2057710886001587
1772794736304145000,2.142144775390625,0.2475728541612625,0.16352924704551697,-0.21727220714092255
1772794736314189800,2.15218994140625,0.28926223516464233,0.17022937536239624,-0.2278667390346527
1772794736324233700,2.162233642578125,0.3261387348175049,0.15600277483463287,-0.23170702159404755
1772794736334278000,2.17227783203125,0.3589658737182617,0.11435221880674362,-0.2358527034521103
1772794736344322800,2.18232275390625,0.39573508501052856,0.05121319368481636,-0.24496044218540192
1772794736354366700,2.19236669921875,0.4295247793197632,-0.010036997497081757,-0.2643009126186371
1772794736364411000,2.202410888671875,0.4519515335559845,-0.05929615721106529,-0.28282612562179565
1772794736374455800,2.212455810546875,0.4587346315383911,-0.09688369184732437,-0.3084670901298523
1772794736384499700,2.222499755859375,0.44994407892227173,-0.1567249298095703,-0.3224675953388214
1772794736394543900,2.2325439453125,0.43004822731018066,-0.23278412222862244,-0.30451542139053345
1772794736404589000,2.242589111328125,0.39817285537719727,-0.29068708419799805,-0.2596089243888855
1772794736414632700,2.2526328125,0.3552035689353943,-0.34077173471450806,-0.217642679810524
1772794736424676900,2.2626767578125,0.31616854667663574,-0.37032827734947205,-0.19539755582809448
1772794736434722000,2.27272216796875,0.29235154390335083,-0.3563482463359833,-0.1979188174009323
1772794736444765700,2.282765625,0.27315786480903625,-0.30052438378334045,-0.216342031955719
1772794736454809900,2.292809814453125,0.2619399428367615,-0.23563045263290405,-0.2409202605485916
1772794736464855000,2.30285498046875,0.25300395488739014,-0.19409286975860596,-0.254133015871048
1772794736474898700,2.312898681640625,0.24197274446487427,-0.18184874951839447,-0.24645422399044037
1772794736484944000,2.32294384765625,0.23698970675468445,-0.1742081493139267,-0.20880432426929474
1772794736494988000,2.332988037109375,0.2429582178592682,-0.15239404141902924,-0.15338252484798431
1772794736505032000,2.343031982421875,0.2676931321620941,-0.11081304401159286,-0.09228427708148956
1772794736515076900,2.353076904296875,0.2968484163284302,-0.0630982518196106,-0.03379594534635544
1772794736525121000,2.36312109375,0.3268750309944153,-0.0047111110761761665,0.024127008393406868
1772794736535165000,2.3731650390625,0.3625343441963196,0.034951403737068176,0.08410083502531052
1772794736545209900,2.3832099609375,0.43826237320899963,0.0811212956905365,0.1628161519765854
1772794736555253800,2.393253662109375,0.4871801733970642,0.11473827064037323,0.2370217740535736
1772794736565298000,2.4032978515625,0.4801537096500397,0.12499942630529404,0.293743371963501
1772794736575342800,2.4133427734375,0.438930869102478,0.12224060297012329,0.32478684186935425
1772794736585386800,2.42338671875,0.3764246106147766,0.08116881549358368,0.31460559368133545
1772794736595431000,2.433430908203125,0.27339354157447815,-0.020666316151618958,0.2805366516113281
1772794736605475800,2.443475830078125,0.13792839646339417,-0.14014877378940582,0.24878457188606262
1772794736615519700,2.453519775390625,-0.0034629220608621836,-0.23596157133579254,0.21418455243110657
1772794736625564000,2.46356396484375,-0.09498458355665207,-0.26464539766311646,0.1934097707271576
1772794736635608800,2.47360888671875,-0.1279195100069046,-0.2273242175579071,0.19157540798187256
1772794736645652700,2.48365283203125,-0.11860856413841248,-0.10993392765522003,0.20301741361618042
1772794736655697000,2.49369677734375,-0.11417004466056824,0.045824289321899414,0.2096206694841385
1772794736665741800,2.503741943359375,-0.10298317670822144,0.15792179107666016,0.22376684844493866
1772794736675785700,2.51378564453125,-0.030049143359065056,0.26152580976486206,0.23805460333824158
1772794736685830000,2.523829833984375,0.05559811741113663,0.31911587715148926,0.2557353377342224
1772794736695874800,2.533874755859375,0.15495242178440094,0.3587990403175354,0.270852267742157
1772794736705918700,2.543918701171875,0.29300588369369507,0.3842085301876068,0.2797810435295105
1772794736715963000,2.553962890625,0.48728564381599426,0.37126800417900085,0.2869749963283539
1772794736726008000,2.564008056640625,0.6029898524284363,0.3803994357585907,0.2943974733352661
1772794736736051700,2.5740517578125,0.6141690015792847,0.3485492765903473,0.2782207727432251
1772794736746097000,2.584096923828125,0.5809434056282043,0.23991601169109344,0.2358410805463791
1772794736756141000,2.59414111328125,0.5394940972328186,0.11704680323600769,0.18588203191757202
1772794736766184700,2.604184814453125,0.47699636220932007,0.03233351185917854,0.13896964490413666
1772794736776230000,2.61422998046875,0.3898110091686249,-0.015355070121586323,0.10977358371019363
1772794736786274000,2.624274169921875,0.29164770245552063,-0.01145194098353386,0.09699307382106781
1772794736796317700,2.634317626953125,0.20868250727653503,0.028570204973220825,0.10018578171730042
1772794736806363000,2.64436279296875,0.15461741387844086,0.07464182376861572,0.09928643703460693
1772794736816407000,2.654406982421875,0.12279285490512848,0.1029411107301712,0.0900852233171463
1772794736826451000,2.664450927734375,0.12283839285373688,0.11428511142730713,0.08741354197263718
1772794736836496000,2.674495849609375,0.14230932295322418,0.09523440152406693,0.10627276450395584
1772794736846540000,2.6845400390625,0.1801389902830124,0.07576669752597809,0.13567060232162476
1772794736856584000,2.694583984375,0.23260946571826935,0.06320450454950333,0.16932368278503418
1772794736866628900,2.70462890625,0.294143944978714,0.057846758514642715,0.1917983591556549
1772794736876672800,2.7146728515625,0.34723541140556335,0.05220154672861099,0.19459344446659088
1772794736886717000,2.724717041015625,0.3861519396305084,0.031452327966690063,0.17038024961948395
1772794736896761900,2.734761962890625,0.40474843978881836,0.005356654524803162,0.12478017807006836
1772794736906805800,2.7448056640625,0.39714935421943665,-0.03959830477833748,0.060927968472242355
1772794736916850000,2.754849853515625,0.37130820751190186,-0.11749491095542908,0.003051827196031809
1772794736926894800,2.764894775390625,0.3321019411087036,-0.23311738669872284,-0.03552113100886345
1772794736936938800,2.774938720703125,0.2786498963832855,-0.3372648358345032,-0.05118664354085922
1772794736946983000,2.78498291015625,0.23099930584430695,-0.4024560749530792,-0.045543137937784195
1772794736957027600,2.795027587890625,0.1903029978275299,-0.42633822560310364,-0.04618549346923828
1772794736967071500,2.805071533203125,0.15298305451869965,-0.4274525046348572,-0.052047643810510635
1772794736977116700,2.81511669921875,0.12690435349941254,-0.4043390452861786,-0.07501890510320663
1772794736987160600,2.82516064453125,0.11201009899377823,-0.35764265060424805,-0.10018125176429749
1772794736997204500,2.83520458984375,0.10896501690149307,-0.2759818136692047,-0.12323682010173798
1772794737007249700,2.845249755859375,0.10177421569824219,-0.17483575642108917,-0.13121351599693298
1772794737017293600,2.85529345703125,0.09088335186243057,-0.08205793052911758,-0.13977843523025513
1772794737027337500,2.86533740234375,0.0769563540816307,-0.016358809545636177,-0.14124265313148499
1772794737037382700,2.875382568359375,0.06413637101650238,0.023612577468156815,-0.13347764313220978
1772794737047426800,2.8854267578125,0.04685857892036438,0.04537193849682808,-0.10803727060556412
1772794737057470500,2.895470458984375,0.03134481608867645,0.07484486699104309,-0.06153132766485214
1772794737067515600,2.905515625,0.019907336682081223,0.12285605818033218,-0.01404503546655178
1772794737077559800,2.915559814453125,0.014373192563652992,0.17114754021167755,0.024637555703520775
1772794737087603500,2.925603515625,0.007061484269797802,0.20144551992416382,0.04146473854780197
1772794737097648600,2.935648681640625,-0.004223075695335865,0.20111529529094696,0.038034312427043915
1772794737107692800,2.94569287109375,-0.02299276925623417,0.1832342892885208,0.014751093462109566
1772794737117736700,2.95573681640625,-0.042743273079395294,0.14565208554267883,-0.023531373590230942
1772794737127781600,2.96578173828125,-0.05202305689454079,0.12672366201877594,-0.05474788323044777
1772794737137825800,2.97582568359375,-0.05986817553639412,0.1277284175157547,-0.07879218459129333
1772794737147869700,2.98586962890625,-0.06929443776607513,0.12904775142669678,-0.09798052161931992
1772794737157914600,2.99591455078125,-0.08119698613882065,0.12499996274709702,-0.1179155483841896
1772794737167958500,3.00595849609375,-0.09447364509105682,0.12013597041368484,-0.13917289674282074
1772794737178002700,3.016002685546875,-0.12396522611379623,0.11603512614965439,-0.17583546042442322
1772794737188047600,3.026047607421875,-0.16037863492965698,0.12015769630670547,-0.21637596189975739
1772794737198091500,3.036091552734375,-0.19829127192497253,0.12257754802703857,-0.2641438841819763
1772794737208135700,3.0461357421875,-0.22388264536857605,0.09680694341659546,-0.30443111062049866
1772794737218180600,3.0561806640625,-0.23599450290203094,0.05079204589128494,-0.323453813791275
1772794737228224500,3.066224609375,-0.2419746369123459,0.010881645604968071,-0.3199775815010071
1772794737238268700,3.0762685546875,-0.23668904602527618,-0.02200748771429062,-0.3037044405937195
1772794737248313600,3.086313720703125,-0.22297403216362,-0.03728604316711426,-0.2813035249710083
1772794737258357500,3.096357421875,-0.19834257662296295,-0.03442638739943504,-0.26776233315467834
1772794737268402700,3.106402587890625,-0.16358833014965057,-0.015292907133698463,-0.2630373537540436
1772794737278446600,3.116446533203125,-0.12182292342185974,-0.0017214976251125336,-0.27663010358810425
1772794737288490500,3.126490478515625,-0.07849302887916565,0.006914601195603609,-0.2960149943828583
1772794737298535700,3.13653564453125,-0.03562765568494797,0.01782855950295925,-0.31571388244628906
1772794737308579600,3.14657958984375,-0.007532105781137943,0.01678859442472458,-0.3252016603946686
1772794737318623500,3.15662353515625,0.0008058588718995452,-0.002961347810924053,-0.3190593719482422
1772794737328668700,3.166668701171875,-0.009147439152002335,-0.043388932943344116,-0.29269540309906006
1772794737338712600,3.176712646484375,-0.0367182195186615,-0.10260091722011566,-0.2583472728729248
1772794737348756500,3.186756591796875,-0.0808638483285904,-0.16560305655002594,-0.2226790189743042
1772794737358801700,3.1968017578125,-0.13509011268615723,-0.20720551908016205,-0.19288793206214905
1772794737368845800,3.206845703125,-0.19125404953956604,-0.24537687003612518,-0.1637476235628128
1772794737378889500,3.216889404296875,-0.2460075467824936,-0.2780781388282776,-0.14775477349758148
1772794737388934700,3.2269345703125,-0.2841259241104126,-0.30677369236946106,-0.1288449913263321
1772794737398978800,3.236978759765625,-0.30553483963012695,-0.3176175057888031,-0.10805698484182358
1772794737409022500,3.2470224609375,-0.30785179138183594,-0.3059432804584503,-0.07819336652755737
1772794737419067600,3.257067626953125,-0.2897471785545349,-0.2975139319896698,-0.04849419742822647
1772794737429111800,3.26711181640625,-0.2616060674190521,-0.31525832414627075,-0.01871233433485031
1772794737439155500,3.277155517578125,-0.24186068773269653,-0.3521495461463928,0.016509106382727623
1772794737449200600,3.28720068359375,-0.2357194423675537,-0.3810536563396454,0.05192861706018448
1772794737459244800,3.297244873046875,-0.25084632635116577,-0.37447723746299744,0.08079299330711365
1772794737469288700,3.307288818359375,-0.288718581199646,-0.3390553295612335,0.09161501377820969
1772794737479333600,3.317333740234375,-0.35127177834510803,-0.29402095079421997,0.08874648064374924
1772794737489377500,3.32737744140625,-0.43389102816581726,-0.2546682059764862,0.053960539400577545
1772794737499422500,3.33742236328125,-0.5339080095291138,-0.2201182246208191,-0.004105417989194393
1772794737509466600,3.347466552734375,-0.6300947070121765,-0.17592599987983704,-0.05603865534067154
1772794737519510500,3.357510498046875,-0.705589234828949,-0.11629073321819305,-0.10204065591096878
1772794737529555500,3.367555419921875,-0.7335700392723083,-0.040311817079782486,-0.12252116203308105
1772794737539599600,3.377599609375,-0.7153233289718628,0.052093587815761566,-0.11987542361021042
1772794737549643500,3.3876435546875,-0.6590129137039185,0.16166801750659943,-0.07657615095376968
1772794737559688400,3.3976884765625,-0.5628365874290466,0.2624100148677826,-0.008015145547688007
1772794737569732600,3.407732666015625,-0.4458511173725128,0.34068217873573303,0.07059284299612045
1772794737579776500,3.417776611328125,-0.315920352935791,0.3682037889957428,0.1520097404718399
1772794737589821700,3.42782177734375,-0.1988304853439331,0.3443889915943146,0.2212418019771576
1772794737599865600,3.437865478515625,-0.0946597009897232,0.288149356842041,0.28032779693603516
1772794737609909500,3.447909423828125,-0.0049900030717253685,0.18551619350910187,0.31880009174346924
1772794737619954700,3.45795458984375,0.05172509327530861,0.08837196975946426,0.35103538632392883
1772794737629998600,3.46799853515625,0.08634378761053085,0.02594427578151226,0.37775087356567383
1772794737640042500,3.47804248046875,0.0984874740242958,-0.01240481436252594,0.3990781307220459
1772794737650087700,3.488087646484375,0.09654603153467178,-0.04864644259214401,0.4111446440219879
1772794737660131600,3.498131591796875,0.07572473585605621,-0.07226533442735672,0.4116959869861603
1772794737670175500,3.508175537109375,0.040347568690776825,-0.09431684017181396,0.4023307263851166
1772794737680220700,3.518220703125,-0.008744323626160622,-0.11630740761756897,0.3714138865470886
1772794737690264600,3.5282646484375,-0.06646008789539337,-0.15699411928653717,0.33163532614707947
1772794737700309500,3.5383095703125,-0.1351044476032257,-0.2113763988018036,0.2752724289894104
1772794737710353700,3.548353759765625,-0.21476784348487854,-0.2812572121620178,0.21377286314964294
1772794737720397800,3.558397705078125,-0.29514190554618835,-0.34486958384513855,0.1499795764684677
1772794737730442500,3.5684423828125,-0.36533910036087036,-0.4151746332645416,0.09521859884262085
1772794737740486700,3.578486572265625,-0.429120272397995,-0.45758920907974243,0.04852007329463959
1772794737750530800,3.58853076171875,-0.46979445219039917,-0.4585101306438446,0.011990026570856571
1772794737760575500,3.598575439453125,-0.4868912100791931,-0.42549848556518555,-0.016551217064261436
1772794737770619600,3.60861962890625,-0.483493834733963,-0.3831859230995178,-0.027076030150055885
1772794737780663800,3.618663818359375,-0.4708852469921112,-0.32228901982307434,-0.02553674392402172
1772794737790708500,3.62870849609375,-0.45297175645828247,-0.24623526632785797,-0.014390882104635239
1772794737800752600,3.638752685546875,-0.4294382929801941,-0.1712251454591751,-0.004173703491687775
1772794737810796500,3.648796630859375,-0.39935067296028137,-0.10410763323307037,0.0002631228417158127
1772794737820841500,3.658841552734375,-0.3625294864177704,-0.06267587840557098,-0.004509695805609226
1772794737830885600,3.6688857421875,-0.32374003529548645,-0.03063778206706047,-0.022266056388616562
1772794737840929500,3.678929443359375,-0.2831956744194031,-0.005805077962577343,-0.03785916045308113
1772794737850974500,3.688974365234375,-0.23689740896224976,0.014500459656119347,-0.0462273471057415
1772794737861018600,3.6990185546875,-0.18033206462860107,0.021178439259529114,-0.037187360227108
1772794737871062500,3.7090625,-0.11574242264032364,0.0248221755027771,-0.011260424740612507
1772794737881107500,3.719107421875,-0.05515420064330101,0.03633321076631546,0.029518380761146545
1772794737891151600,3.729151611328125,-0.0009215862955898046,0.05347837507724762,0.07606057822704315
1772794737901195500,3.739195556640625,0.045264266431331635,0.08435911685228348,0.11968205124139786
1772794737911240700,3.74924072265625,0.09145598858594894,0.12630656361579895,0.1524762213230133
1772794737921284600,3.75928466796875,0.1273454874753952,0.1783752590417862,0.16672077775001526
1772794737931329800,3.769329833984375,0.15422050654888153,0.23771315813064575,0.16950590908527374
1772794737941373700,3.779373779296875,0.17327424883842468,0.28782716393470764,0.14802801609039307
1772794737951417600,3.78941748046875,0.18831124901771545,0.32289594411849976,0.12562283873558044
1772794737961463000,3.799463134765625,0.1989845633506775,0.3390393853187561,0.09792158007621765
1772794737971507200,3.809507080078125,0.19474321603775024,0.3348505198955536,0.07607513666152954
1772794737981550800,3.81955078125,0.18184073269367218,0.29469722509384155,0.05386250093579292
1772794737991596000,3.829595947265625,0.16274720430374146,0.2417498528957367,0.03105252794921398
1772794738001640200,3.83964013671875,0.14724504947662354,0.1839376837015152,0.005642225034534931
1772794738011683800,3.849683837890625,0.13226743042469025,0.13516561686992645,-0.026576431468129158
1772794738021729000,3.85972900390625,0.11393691599369049,0.09545660763978958,-0.05942205339670181
1772794738031773200,3.869773193359375,0.09166649729013443,0.05620533972978592,-0.08686433732509613
1772794738041816800,3.87981689453125,0.07273198664188385,0.007682866882532835,-0.1058090552687645
1772794738051862000,3.889862060546875,0.05172790214419365,-0.03285444155335426,-0.11168398708105087
1772794738061906200,3.89990625,0.03322339802980423,-0.0463370643556118,-0.1087498664855957
1772794738071950000,3.9099501953125,0.02751358039677143,-0.03320448100566864,-0.09901920706033707
1772794738081995000,3.9199951171875,0.032403334975242615,0.0021474394015967846,-0.09413474053144455
1772794738092039000,3.930038818359375,0.048419054597616196,0.03367340937256813,-0.09779205918312073
1772794738102083000,3.9400830078125,0.07885561883449554,0.041546400636434555,-0.102932408452034
1772794738112128000,3.9501279296875,0.11116588115692139,0.02376234158873558,-0.10059601813554764
1772794738122172000,3.960171875,0.14709891378879547,-0.011726572178304195,-0.0921962559223175
1772794738132216000,3.970216064453125,0.1794738918542862,-0.04608507826924324,-0.0695524662733078
1772794738142261000,3.980260986328125,0.21334709227085114,-0.07234565168619156,-0.04191315174102783
1772794738152305000,3.990304931640625,0.2468683123588562,-0.08734191209077835,-0.007112827152013779
1772794738162349800,4.000349853515625,0.2844967842102051,-0.0799572765827179,0.03013714961707592
1772794738172394000,4.01039404296875,0.3192102909088135,-0.054805852472782135,0.06161704659461975
1772794738182438000,4.02043798828125,0.33848458528518677,-0.03206460177898407,0.07419592142105103
1772794738192483000,4.030483154296875,0.3461872637271881,-0.02580643817782402,0.06316989660263062
1772794738202527000,4.04052685546875,0.3351667821407318,-0.05468958988785744,0.03344887122511864
1772794738212571000,4.05057080078125,0.33938121795654297,-0.09493740648031235,0.012033062055706978
1772794738222616000,4.060615966796875,0.32200950384140015,-0.13705022633075714,0.0008179870201274753
1772794738232660000,4.070659912109375,0.28329965472221375,-0.18493759632110596,-0.0067829410545527935
1772794738242704000,4.080703857421875,0.2265082746744156,-0.22053760290145874,0.005431598052382469
1772794738252749000,4.0907490234375,0.16268056631088257,-0.2549169063568115,0.02624553255736828
1772794738262793000,4.10079296875,0.0961865559220314,-0.28240299224853516,0.053419243544340134
1772794738272836900,4.1108369140625,0.04216114059090614,-0.29670363664627075,0.08230894804000854
1772794738282882000,4.120882080078125,0.006343517452478409,-0.2969385087490082,0.11521624028682709
1772794738292926000,4.130926025390625,-0.0049184588715434074,-0.26165083050727844,0.15506644546985626
1772794738302969900,4.140969970703125,0.014261423610150814,-0.20299112796783447,0.202860489487648
1772794738313015000,4.15101513671875,0.06358370184898376,-0.13263599574565887,0.24887245893478394
1772794738323059200,4.16105908203125,0.14201407134532928,-0.06743787974119186,0.2996184825897217
1772794738333103900,4.171103759765625,0.24596764147281647,-0.024633951485157013,0.3338009715080261
1772794738343148000,4.18114794921875,0.35180357098579407,0.004523292649537325,0.3518437147140503
1772794738353192200,4.191192138671875,0.459923654794693,0.0362737663090229,0.3484993278980255
1772794738363236900,4.20123681640625,0.5627222657203674,0.06417922675609589,0.3320479094982147
1772794738373281000,4.211281005859375,0.6481562256813049,0.08154037594795227,0.30900248885154724
1772794738383325200,4.2213251953125,0.7005981206893921,0.09248638153076172,0.28193843364715576
1772794738393369900,4.231369873046875,0.7311461567878723,0.09440625458955765,0.25889837741851807
1772794738403414000,4.2414140625,0.736367404460907,0.09238050132989883,0.23538924753665924
1772794738413458000,4.2514580078125,0.7187170386314392,0.09582929313182831,0.20681512355804443
1772794738423502800,4.2615029296875,0.6862903237342834,0.1043582335114479,0.18081001937389374
1772794738433547000,4.271547119140625,0.6394367814064026,0.11274692416191101,0.14692768454551697
1772794738443591000,4.2815908203125,0.5895495414733887,0.11827851831912994,0.1181943267583847
1772794738453635800,4.2916357421875,0.5539372563362122,0.11461932957172394,0.08465580642223358
1772794738463680000,4.301679931640625,0.5405640602111816,0.10653313249349594,0.060207266360521317
1772794738473724000,4.311723876953125,0.564822256565094,0.1108756810426712,0.04723075032234192
1772794738483768800,4.321768798828125,0.620718777179718,0.14329493045806885,0.051035284996032715
1772794738493813000,4.33181298828125,0.6987038850784302,0.1774052232503891,0.06746166199445724
1772794738503858200,4.341858154296875,0.7807625532150269,0.191265270113945,0.08886319398880005
1772794738513901800,4.35190185546875,0.8698479533195496,0.17675717175006866,0.12023256719112396
1772794738523946000,4.361946044921875,0.9462695717811584,0.13652223348617554,0.1465442031621933
1772794738533991200,4.3719912109375,1.0026847124099731,0.07640323787927628,0.16998349130153656
1772794738544035000,4.38203515625,1.0486724376678467,-0.0022330395877361298,0.18379709124565125
1772794738554079000,4.392078857421875,1.0831291675567627,-0.07116763293743134,0.19789773225784302
1772794738564124000,4.4021240234375,1.0975652933120728,-0.12178659439086914,0.20335082709789276
1772794738574168000,4.41216796875,1.0929923057556152,-0.1500086486339569,0.20212922990322113
1772794738584212000,4.4222119140625,1.0674384832382202,-0.15930984914302826,0.1965755969285965
1772794738594257000,4.4322568359375,1.0254050493240356,-0.15176483988761902,0.16632342338562012
1772794738604301000,4.442301025390625,0.9731483459472656,-0.1358470767736435,0.11885996162891388
1772794738614345000,4.452344970703125,0.9075744152069092,-0.1156560629606247,0.05430386960506439
1772794738624390000,4.462389892578125,0.8439161777496338,-0.07920046895742416,-0.014535205438733101
1772794738634434000,4.47243408203125,0.7821031808853149,-0.03134825825691223,-0.07552319020032883
1772794738644478200,4.482478271484375,0.7296764850616455,0.022590551525354385,-0.12516847252845764
1772794738654523000,4.49252294921875,0.6942804455757141,0.07118232548236847,-0.1459866613149643
1772794738664567000,4.502567138671875,0.6785330772399902,0.1205303743481636,-0.14559857547283173
1772794738674611200,4.512611083984375,0.6805480718612671,0.17413076758384705,-0.11584840714931488
1772794738684655900,4.52265576171875,0.6927919387817383,0.21593046188354492,-0.06472428888082504
1772794738694700000,4.532699951171875,0.7089293599128723,0.22572769224643707,-0.004045496694743633
1772794738704744200,4.542744140625,0.7129203081130981,0.2103666365146637,0.0456133596599102
1772794738714788900,4.552788818359375,0.7028125524520874,0.1937495768070221,0.08667051792144775
1772794738724833000,4.5628330078125,0.6877239346504211,0.18610107898712158,0.11287856847047806
1772794738734878000,4.5728779296875,0.6656625866889954,0.19083325564861298,0.12433335930109024
1772794738744921900,4.582921875,0.6364691853523254,0.19560089707374573,0.12168267369270325
1772794738754966000,4.592966064453125,0.6055347323417664,0.1912841796875,0.11411609500646591
1772794738765011200,4.60301123046875,0.5763238072395325,0.17918123304843903,0.10755529999732971
1772794738775054800,4.613054931640625,0.5443456768989563,0.16165363788604736,0.11438630521297455
1772794738785099000,4.62309912109375,0.5099926590919495,0.14324629306793213,0.1196267306804657
1772794738795144200,4.633144287109375,0.47142505645751953,0.1291581690311432,0.12193143367767334
1772794738805187800,4.643187744140625,0.42661309242248535,0.12993964552879333,0.11484251916408539
1772794738815232000,4.65323193359375,0.3843812346458435,0.14402776956558228,0.09456281363964081
1772794738825277200,4.663277099609375,0.3416145443916321,0.16877491772174835,0.06541186571121216
1772794738835320800,4.67332080078125,0.2998415529727936,0.2036713808774948,0.020849723368883133
1772794738845365000,4.683364990234375,0.25631821155548096,0.2213379591703415,-0.02227157913148403
1772794738855410200,4.69341015625,0.21623390913009644,0.2180257886648178,-0.07583068311214447
1772794738865454000,4.7034541015625,0.18424883484840393,0.21282638609409332,-0.12293204665184021
1772794738875498000,4.713498046875,0.1657145619392395,0.20183071494102478,-0.1623460352420807
1772794738885543000,4.72354296875,0.16091275215148926,0.17542940378189087,-0.19208765029907227
1772794738895587000,4.733587158203125,0.16932621598243713,0.13683274388313293,-0.20104652643203735
1772794738905632000,4.743632080078125,0.19264070689678192,0.08300852030515671,-0.19859063625335693
1772794738915676000,4.753676025390625,0.2239493578672409,0.02747761458158493,-0.1830766499042511
1772794738925720000,4.763719970703125,0.2628641128540039,-0.024269206449389458,-0.15802910923957825
1772794738935765000,4.773764892578125,0.31108731031417847,-0.06716980040073395,-0.12532523274421692
1772794738945809000,4.783808837890625,0.36198487877845764,-0.0936528667807579,-0.07589665055274963
1772794738955853000,4.79385302734375,0.4018033742904663,-0.09961807727813721,-0.019515927881002426
1772794738965897700,4.803897705078125,0.4260365664958954,-0.08670243620872498,0.04270605742931366
1772794738975942000,4.81394189453125,0.4396058917045593,-0.07661864161491394,0.0926927924156189
1772794738985985800,4.82398583984375,0.44360795617103577,-0.06642229855060577,0.1321263462305069
1772794738996030700,4.83403076171875,0.4297451376914978,-0.049595121294260025,0.15540529787540436
1772794739006075000,4.844074951171875,0.4004651606082916,-0.018712617456912994,0.15707306563854218
1772794739016118800,4.854118896484375,0.35711291432380676,-0.0012159151956439018,0.13882668316364288
1772794739026163700,4.864163818359375,0.3016343116760254,-0.013472269289195538,0.09709059447050095
1772794739036207900,4.874207763671875,0.2277236133813858,-0.06514930725097656,0.0459752157330513
1772794739046251800,4.884251708984375,0.1439378708600998,-0.14144518971443176,-0.00712842121720314
1772794739056296700,4.894296630859375,0.07321204245090485,-0.22115813195705414,-0.04655652120709419
1772794739066340900,4.9043408203125,0.022886818274855614,-0.2855547070503235,-0.06737897545099258
1772794739076386000,4.914385986328125,-0.019061164930462837,-0.3322431147098541,-0.0701792910695076
1772794739086430000,4.924429931640625,-0.06069726124405861,-0.36637812852859497,-0.051770251244306564
1772794739096473900,4.934473876953125,-0.10152218490839005,-0.38165825605392456,-0.020967863500118256
1772794739106518800,4.944518798828125,-0.12013120949268341,-0.37928375601768494,0.011710917577147484
1772794739116563000,4.95456298828125,-0.12718725204467773,-0.3506651520729065,0.046245988458395004
1772794739126606800,4.96460693359375,-0.14872217178344727,-0.3092975616455078,0.06700757890939713
1772794739136651800,4.97465185546875,-0.1936081498861313,-0.2625873386859894,0.07530838996171951
1772794739146696000,4.984696044921875,-0.24000240862369537,-0.19783546030521393,0.06544768810272217
1772794739156739800,4.99473974609375,-0.2663978040218353,-0.11007604748010635,0.044666241854429245
1772794739166784800,5.00478466796875,-0.2728268802165985,0.000400033313781023,0.03019290789961815
1772794739176829000,5.014828857421875,-0.25196608901023865,0.1329418271780014,0.029997698962688446
1772794739186872800,5.024872802734375,-0.19142085313796997,0.2656208276748657,0.0558856762945652
1772794739196917800,5.034917724609375,-0.09406792372465134,0.3979695439338684,0.11236067116260529
1772794739206962000,5.0449619140625,0.031192626804113388,0.49612778425216675,0.18982507288455963
1772794739217006000,5.055006103515625,0.16536401212215424,0.5516006350517273,0.27483636140823364
1772794739227050800,5.06505078125,0.2986047565937042,0.559901773929596,0.36927205324172974
1772794739237095000,5.075094970703125,0.42285454273223877,0.515588104724884,0.4631836414337158
1772794739247139800,5.085139892578125,0.5250757336616516,0.4308176040649414,0.5497410893440247
1772794739257183700,5.095183837890625,0.5968301296234131,0.3190114498138428,0.6243484616279602
1772794739267228000,5.105227783203125,0.6415296196937561,0.19639122486114502,0.6804301738739014
1772794739277272800,5.11527294921875,0.6543404459953308,0.07693485170602798,0.714303195476532
1772794739287316700,5.125316650390625,0.6266508102416992,-0.038430988788604736,0.7175377011299133
1772794739297361000,5.13536083984375,0.5675267577171326,-0.15800826251506805,0.693422257900238
1772794739307405800,5.14540576171875,0.4969542324542999,-0.24338136613368988,0.6502787470817566
1772794739317449700,5.15544970703125,0.40984809398651123,-0.26862919330596924,0.5861657857894897
1772794739327494000,5.165493896484375,0.32395264506340027,-0.24835656583309174,0.5048923492431641
1772794739337539000,5.1755390625,0.24820995330810547,-0.226890429854393,0.3972143828868866
1772794739347582700,5.185582763671875,0.19773516058921814,-0.18289688229560852,0.2898074686527252
1772794739357627000,5.195626953125,0.17631669342517853,-0.15031284093856812,0.18753409385681152
1772794739367672000,5.205672119140625,0.1684267371892929,-0.10964753478765488,0.10403399169445038
1772794739377715700,5.2157158203125,0.17623752355575562,-0.06081182137131691,0.045346975326538086
1772794739387759900,5.225759765625,0.1996215283870697,-0.01567992754280567,0.005090772174298763
1772794739397805000,5.23580517578125,0.21728280186653137,0.02905105985701084,-0.018264884129166603
1772794739407849000,5.245848876953125,0.25781166553497314,0.01628536358475685,-0.024805203080177307
1772794739417894000,5.255893798828125,0.29949280619621277,0.014020344242453575,-0.024548741057515144
1772794739427937800,5.265937744140625,0.33181384205818176,0.013069696724414825,-0.02689404785633087
1772794739437982000,5.27598193359375,0.37264731526374817,0.011505888774991035,-0.027030402794480324
1772794739448027000,5.28602685546875,0.4124370217323303,0.022657077759504318,-0.037490759044885635
1772794739458070800,5.29607080078125,0.4399759769439697,0.020764369517564774,-0.05851481482386589
1772794739468115000,5.306114990234375,0.4531785845756531,0.015658078715205193,-0.08429212868213654
1772794739478160000,5.316159912109375,0.45547688007354736,0.010334152728319168,-0.10576972365379333
1772794739488203800,5.326203857421875,0.4586831033229828,0.00800138246268034,-0.12652577459812164
1772794739498248000,5.336248046875,0.46025460958480835,0.017080098390579224,-0.1390993595123291
1772794739508292900,5.34629296875,0.4665749967098236,0.019433315843343735,-0.1484822928905487
1772794739518336800,5.356336669921875,0.4817531406879425,0.02392367273569107,-0.1548539102077484
1772794739528381000,5.366380859375,0.5053675770759583,0.03105093352496624,-0.15570540726184845
1772794739538425900,5.37642578125,0.5342194437980652,0.03407415375113487,-0.14480987191200256
1772794739548469800,5.3864697265625,0.5688697695732117,0.03843306005001068,-0.12496941536664963
1772794739558514000,5.396513916015625,0.5955607891082764,0.04492957144975662,-0.103300079703331
1772794739568558800,5.406558837890625,0.6194093823432922,0.07176917791366577,-0.07880565524101257
1772794739578602800,5.416602783203125,0.6380488276481628,0.12066721171140671,-0.060222119092941284
1772794739588648000,5.42664794921875,0.6512755751609802,0.18047301471233368,-0.048382751643657684
1772794739598691800,5.43669189453125,0.6603133082389832,0.24312815070152283,-0.0520469956099987
1772794739608735700,5.44673583984375,0.6553037166595459,0.2869475781917572,-0.06476924568414688
1772794739618781000,5.456781005859375,0.6474878787994385,0.3128446936607361,-0.07775801420211792
1772794739628824800,5.466824951171875,0.6417654752731323,0.3415605425834656,-0.08673989027738571
1772794739638868700,5.47686865234375,0.6341419219970703,0.3645726442337036,-0.08223222196102142
1772794739648914000,5.486913818359375,0.6317192316055298,0.3747554123401642,-0.0758117213845253
1772794739658958000,5.4969580078125,0.6275729537010193,0.358485609292984,-0.06290604174137115
1772794739669001700,5.507001708984375,0.6238845586776733,0.3105301260948181,-0.04732634499669075
1772794739679047000,5.517046875,0.6256741881370544,0.2389257252216339,-0.03173726424574852
1772794739689091000,5.527091064453125,0.6304314732551575,0.16498258709907532,-0.008338266983628273
1772794739699134700,5.537134765625,0.6404332518577576,0.1001868024468422,0.022705135866999626
1772794739709180000,5.547179931640625,0.6437078714370728,0.04888862743973732,0.05616014078259468
1772794739719224000,5.55722412109375,0.6507588624954224,0.010306879878044128,0.0819733664393425
1772794739729267700,5.567267822265625,0.664277970790863,-0.008723157458007336,0.09689763933420181
1772794739739313000,5.57731298828125,0.6885218024253845,-0.01401219516992569,0.11446251720190048
1772794739749356800,5.587356689453125,0.7107299566268921,-0.0015009366907179356,0.13058660924434662
1772794739759401700,5.597401611328125,0.7231637239456177,-0.001878572627902031,0.1483200639486313
1772794739769446000,5.60744580078125,0.7245621085166931,-0.009489307180047035,0.17192409932613373
1772794739779489800,5.61748974609375,0.7238171696662903,-0.014520019292831421,0.19726301729679108
1772794739789534700,5.62753466796875,0.7187061309814453,-0.018236665055155754,0.22187115252017975
1772794739799579000,5.637578857421875,0.7110194563865662,-0.011988089419901371,0.23615901172161102
1772794739809622800,5.647622802734375,0.6977366805076599,0.015044217929244041,0.2542496621608734
1772794739819667700,5.657667724609375,0.690998911857605,0.03265250846743584,0.2575661242008209
1772794739829712000,5.6677119140625,0.6875156164169312,0.03830399736762047,0.25637805461883545
1772794739839755800,5.677755859375,0.6916703581809998,0.04768418148159981,0.2529953122138977
1772794739849800700,5.68780078125,0.7134279012680054,0.07206686586141586,0.25148704648017883
1772794739859844900,5.697844970703125,0.7479336857795715,0.0893704816699028,0.2728096544742584
1772794739869888800,5.707888671875,0.7858154773712158,0.11165214329957962,0.30349963903427124
1772794739879934000,5.717933837890625,0.8187915086746216,0.13327008485794067,0.34032395482063293
1772794739889977900,5.727977783203125,0.866154670715332,0.15150752663612366,0.3659283220767975
1772794739900022800,5.738022705078125,0.9241311550140381,0.18001213669776917,0.389692485332489
1772794739910067000,5.74806689453125,0.9785714745521545,0.21182496845722198,0.3932671546936035
1772794739920110800,5.75811083984375,1.0147817134857178,0.24060948193073273,0.381200909614563
1772794739930155800,5.76815576171875,1.0240179300308228,0.2542720139026642,0.35242629051208496
1772794739940200000,5.778199951171875,0.999658465385437,0.23338939249515533,0.30216097831726074
1772794739950243800,5.788243896484375,0.9399880766868591,0.1948254406452179,0.227328360080719
1772794739960289000,5.7982890625,0.8570817708969116,0.1705307513475418,0.1458904892206192
1772794739970333200,5.808333251953125,0.7804576754570007,0.14482979476451874,0.06271472573280334
1772794739980376800,5.818376953125,0.7137068510055542,0.09778373688459396,-0.010601302608847618
1772794739990422000,5.828422119140625,0.6644023060798645,0.05014286935329437,-0.052912451326847076
1772794740000466000,5.8384658203125,0.6357352137565613,0.04170836880803108,-0.053144678473472595
1772794740010510000,5.848510009765625,0.6324406862258911,0.06258472055196762,-0.013373151421546936
1772794740020555000,5.858554931640625,0.6583114266395569,0.09000622481107712,0.04642893001437187
1772794740030599000,5.868598876953125,0.7204196453094482,0.12419717758893967,0.1157636046409607
1772794740040643000,5.87864306640625,0.7969508767127991,0.14538955688476562,0.18623192608356476
1772794740050688000,5.88868798828125,0.8815035820007324,0.15560266375541687,0.24479760229587555
1772794740060732000,5.89873193359375,0.9595057368278503,0.14646002650260925,0.2832701504230499
1772794740070776800,5.90877685546875,1.0204511880874634,0.14162425696849823,0.29695504903793335
1772794740080821000,5.918821044921875,1.0588706731796265,0.13516050577163696,0.29622748494148254
1772794740090865000,5.928864990234375,1.0659483671188354,0.12119483202695847,0.27684637904167175
1772794740100909800,5.938909912109375,1.0451745986938477,0.10767795890569687,0.24373291432857513
1772794740110954000,5.9489541015625,0.9934441447257996,0.08228978514671326,0.20048347115516663
1772794740120998000,5.958997802734375,0.9281461238861084,0.07471069693565369,0.15802974998950958
1772794740131043000,5.96904296875,0.8569962978363037,0.07808522880077362,0.10887861251831055
1772794740141087000,5.9790869140625,0.8016712665557861,0.06920704990625381,0.06424190104007721
1772794740151131000,5.989130859375,0.7574064135551453,0.05475280433893204,0.01902780495584011
1772794740161176000,5.999176025390625,0.748690128326416,0.05013648048043251,-0.016859356313943863
1772794740171220000,6.009219970703125,0.7693449258804321,0.0694868415594101,-0.04165378212928772
1772794740181264000,6.019263916015625,0.814937174320221,0.11817128956317902,-0.048179857432842255
1772794740191309000,6.02930908203125,0.8933022618293762,0.17935407161712646,-0.04197847098112106
1772794740201353000,6.03935302734375,0.9935010671615601,0.26319918036460876,-0.037409815937280655
1772794740211396900,6.04939697265625,1.1071044206619263,0.35143935680389404,-0.037503648549318314
1772794740221442000,6.059442138671875,1.2249263525009155,0.4171736240386963,-0.033425550907850266
1772794740231486200,6.069486328125,1.3420573472976685,0.44882696866989136,-0.03672425076365471
1772794740241531000,6.07953076171875,1.4408856630325317,0.43317824602127075,-0.04544450342655182
1772794740251575000,6.089574951171875,1.5020127296447754,0.3673209249973297,-0.04542507231235504
1772794740261619200,6.099619140625,1.5336750745773315,0.2902596890926361,-0.05071784183382988
1772794740271663900,6.109663818359375,1.535094141960144,0.19868674874305725,-0.054934773594141006
1772794740281708000,6.1197080078125,1.5118745565414429,0.08938396722078323,-0.06224062666296959
1772794740291752200,6.129752197265625,1.4649078845977783,-0.029185825958848,-0.06960319727659225
1772794740301796900,6.139796875,1.404872179031372,-0.14684540033340454,-0.08280177414417267
1772794740311841000,6.149841064453125,1.3402389287948608,-0.25003886222839355,-0.10556652396917343
1772794740321885000,6.159885009765625,1.2780495882034302,-0.326406329870224,-0.12368641048669815
1772794740331929900,6.169929931640625,1.2312153577804565,-0.3581728935241699,-0.1379997432231903
1772794740341974000,6.17997412109375,1.1985447406768799,-0.35541704297065735,-0.14187490940093994
1772794740352018000,6.190017822265625,1.17437744140625,-0.32557350397109985,-0.13119421899318695
1772794740362062800,6.200062744140625,1.1553195714950562,-0.2685035467147827,-0.10650645196437836
1772794740372107000,6.21010693359375,1.1396774053573608,-0.1927647888660431,-0.07911400496959686
1772794740382152200,6.220152099609375,1.1238813400268555,-0.13233552873134613,-0.05187199264764786
1772794740392195800,6.23019580078125,1.1062766313552856,-0.08953934162855148,-0.02179107815027237
1772794740402240000,6.240239990234375,1.083586573600769,-0.04494178667664528,0.010367924347519875
1772794740412285200,6.25028515625,1.0513228178024292,0.005293860565871,0.025748902931809425
1772794740422328800,6.260328857421875,1.0119359493255615,0.060219425708055496,0.03431309759616852
1772794740432373000,6.270373046875,0.9712384939193726,0.1034475788474083,0.03251272439956665
1772794740442418200,6.280418212890625,0.9238758087158203,0.12314644455909729,0.02470274083316326
1772794740452462000,6.290462158203125,0.8692997097969055,0.12067088484764099,0.008395064622163773
1772794740462506000,6.300506103515625,0.8121240139007568,0.11224330961704254,0.0006649733986705542
1772794740472551000,6.310551025390625,0.7463172078132629,0.10882307589054108,-0.009420712478458881
1772794740482595000,6.320594970703125,0.6847113966941833,0.10681585222482681,-0.022163938730955124
1772794740492639000,6.330638916015625,0.6260061860084534,0.1044730693101883,-0.034068524837493896
1772794740502684000,6.340683837890625,0.5755712389945984,0.09212478995323181,-0.03867952153086662
1772794740512728000,6.35072802734375,0.5283471941947937,0.0848550945520401,-0.049539607018232346
1772794740522772000,6.36077197265625,0.49243128299713135,0.08516082167625427,-0.051825132220983505
1772794740532817000,6.37081689453125,0.47291111946105957,0.08572392910718918,-0.0416029617190361
1772794740542861000,6.380861083984375,0.4589580297470093,0.08450499922037125,-0.023465504869818687
1772794740552905000,6.390905029296875,0.4499173164367676,0.07588812708854675,-0.0035171357449144125
1772794740562950000,6.400949951171875,0.443868488073349,0.07111174613237381,0.012426943518221378
1772794740572994000,6.410994140625,0.43989747762680054,0.06031987443566322,0.0286809541285038
1772794740583039000,6.4210390625,0.43393227458000183,0.057369086891412735,0.03956635668873787
1772794740593083000,6.431082763671875,0.4299369752407074,0.07266745716333389,0.0432741679251194
1772794740603127000,6.441126953125,0.42300158739089966,0.09207551181316376,0.043615054339170456
1772794740613172000,6.451171875,0.4258280396461487,0.08968659490346909,0.04768121615052223
1772794740623215900,6.4612158203125,0.4294366240501404,0.07678171992301941,0.05890857055783272
1772794740633260000,6.471260009765625,0.42658939957618713,0.035709865391254425,0.07484365254640579
1772794740643305000,6.481304931640625,0.42461493611335754,-0.021335043013095856,0.08385845273733139
1772794740653348900,6.491348876953125,0.4243563115596771,-0.08291180431842804,0.10044191032648087
1772794740663393000,6.50139306640625,0.4302799701690674,-0.1504034847021103,0.10677410662174225
1772794740673438000,6.51143798828125,0.4348296523094177,-0.2135062962770462,0.11334306746721268
1772794740683481900,6.52148193359375,0.43900710344314575,-0.25902342796325684,0.12474699318408966
1772794740693526000,6.531526123046875,0.408525675535202,-0.28336456418037415,0.1382828801870346
1772794740703571200,6.5415712890625,0.33067747950553894,-0.29136550426483154,0.14788410067558289
1772794740713614800,6.55161474609375,0.23970794677734375,-0.27257201075553894,0.15781064331531525
1772794740723660000,6.561659912109375,0.14004287123680115,-0.24709674715995789,0.15715603530406952
1772794740733704200,6.5717041015625,0.03052668087184429,-0.19854551553726196,0.12495876103639603
1772794740743747800,6.581747802734375,-0.07326655834913254,-0.1198730617761612,0.07896251231431961
1772794740753793000,6.59179296875,-0.15137577056884766,-0.02627168782055378,0.01378372497856617
1772794740763837200,6.601837158203125,-0.19182945787906647,0.06640871614217758,-0.057504571974277496
1772794740773880800,6.611880859375,-0.18418776988983154,0.1571722775697708,-0.11476077139377594
1772794740783926000,6.621926025390625,-0.14625956118106842,0.2597399353981018,-0.153720423579216
1772794740793970000,6.631969970703125,-0.09069441258907318,0.35107213258743286,-0.15769372880458832
1772794740804014000,6.64201416015625,-0.02823369950056076,0.39552855491638184,-0.13552264869213104
1772794740814059000,6.65205908203125,0.04900406301021576,0.39996612071990967,-0.09386175125837326
1772794740824103000,6.66210302734375,0.12346658110618591,0.37813830375671387,-0.03079276904463768
1772794740834147000,6.67214697265625,0.19667142629623413,0.34558603167533875,0.0365726575255394
1772794740844192000,6.68219189453125,0.256643146276474,0.3128856122493744,0.09719312936067581
1772794740854236000,6.69223583984375,0.31099623441696167,0.2769670784473419,0.15061260759830475
1772794740864280800,6.70228076171875,0.35511893033981323,0.26252394914627075,0.18461106717586517
1772794740874325000,6.712324951171875,0.3864218294620514,0.2574935257434845,0.21604347229003906
1772794740884369000,6.722368896484375,0.40252941846847534,0.26380816102027893,0.2340743988752365
1772794740894413800,6.732413818359375,0.40872079133987427,0.2864477038383484,0.24419733881950378
1772794740904458000,6.7424580078125,0.4074976146221161,0.29527315497398376,0.2457030862569809
1772794740914502000,6.752501953125,0.38984251022338867,0.28821519017219543,0.249460369348526
1772794740924547000,6.762547119140625,0.36273205280303955,0.23380441963672638,0.23448674380779266
1772794740934591000,6.772591064453125,0.3300803303718567,0.16251543164253235,0.221058189868927
1772794740944635000,6.782634765625,0.30580776929855347,0.10456211864948273,0.21498404443264008
1772794740954680000,6.79268017578125,0.2877964973449707,0.06612610071897507,0.21649108827114105
1772794740964723700,6.8027236328125,0.2598460912704468,0.04873672500252724,0.2229737490415573
1772794740974767900,6.812767822265625,0.23543612658977509,0.027249861508607864,0.22536388039588928
1772794740984813000,6.82281298828125,0.20311440527439117,-0.004389558453112841,0.22515030205249786
1772794740994857000,6.83285693359375,0.16748042404651642,-0.04689473658800125,0.22861827909946442
1772794741004900900,6.84290087890625,0.12208525091409683,-0.06981975585222244,0.23115867376327515
1772794741014946000,6.852946044921875,0.07653290778398514,-0.08957700431346893,0.21810577809810638
1772794741024990000,6.862989990234375,0.03192896023392677,-0.13472983241081238,0.1888967603445053
1772794741035035000,6.873034912109375,0.0004279839340597391,-0.17812354862689972,0.14902354776859283
1772794741045079000,6.8830791015625,-0.030021535232663155,-0.21375717222690582,0.09588736295700073
1772794741055123000,6.893123046875,-0.07552853971719742,-0.2411196082830429,0.028274545446038246
1772794741065168000,6.90316796875,-0.1254098117351532,-0.26952168345451355,-0.0428699366748333
1772794741075212000,6.9132119140625,-0.16815678775310516,-0.28809764981269836,-0.10995319485664368
1772794741085256000,6.923255859375,-0.19528667628765106,-0.2883266806602478,-0.16715922951698303
1772794741095300900,6.93330078125,-0.20542292296886444,-0.2842055857181549,-0.2114812582731247
1772794741105345000,6.943344970703125,-0.20632706582546234,-0.2746136784553528,-0.22925333678722382
1772794741115389000,6.953388916015625,-0.2507915496826172,-0.2415529042482376,-0.22511455416679382
1772794741125433900,6.963433837890625,-0.275128036737442,-0.2608802318572998,-0.20383936166763306
1772794741135478000,6.97347802734375,-0.26035287976264954,-0.2596889138221741,-0.17574283480644226
1772794741145522000,6.98352197265625,-0.22180573642253876,-0.25740739703178406,-0.14632156491279602
1772794741155566800,6.99356689453125,-0.15674547851085663,-0.22706007957458496,-0.11770090460777283
1772794741165610800,7.00361083984375,-0.05753527954220772,-0.16180437803268433,-0.08943038433790207
1772794741175656000,7.013656005859375,0.0321696475148201,-0.11704042553901672,-0.06454603374004364
1772794741185699800,7.023699951171875,0.1270226538181305,-0.10398613661527634,-0.04354621469974518
1772794741195743700,7.03374365234375,0.22301842272281647,-0.24925652146339417,-0.026537135243415833
1772794741205789000,7.043788818359375,0.3015182912349701,-0.14856639504432678,0.01969933696091175
1772794741215832800,7.053832763671875,0.3471142053604126,-0.05646735429763794,0.07088290899991989
1772794741225876700,7.063876708984375,0.349623441696167,-0.045134805142879486,0.08527063578367233
1772794741235922000,7.073921875,0.3377745747566223,-0.07803869247436523,0.08655879646539688
1772794741245966000,7.083966064453125,0.3214113116264343,-0.11500976234674454,0.09177859127521515
1772794741256009700,7.094009765625,0.3063662648200989,-0.18291860818862915,0.08914297819137573
1772794741266055000,7.104054931640625,0.297955185174942,-0.29176145792007446,0.08845587819814682
1772794741276099000,7.11409912109375,0.2835419178009033,-0.3866986036300659,0.0977928638458252
1772794741286142700,7.124142822265625,0.26141825318336487,-0.4423309564590454,0.12149233371019363
1772794741296188000,7.13418798828125,0.24179239571094513,-0.44191187620162964,0.1454925835132599
1772794741306232000,7.144232177734375,0.23304258286952972,-0.381407231092453,0.1635722517967224
1772794741316276700,7.15427685546875,0.2409406155347824,-0.29750463366508484,0.18366341292858124
1772794741326321000,7.16432080078125,0.2661442458629608,-0.20120711624622345,0.19973106682300568
1772794741336365000,7.174364990234375,0.2950097918510437,-0.10542291402816772,0.22164711356163025
1772794741346409700,7.18440966796875,0.2821275591850281,-0.03331223875284195,0.25877636671066284
1772794741356454000,7.194453857421875,0.25042954087257385,0.04953699931502342,0.28165385127067566
1772794741366498000,7.204498046875,0.253633588552475,0.08553441613912582,0.29655900597572327
1772794741376542700,7.214542724609375,0.3154447078704834,0.1024746298789978,0.3140721023082733
1772794741386587000,7.2245869140625,0.422208696603775,0.1476263850927353,0.33789169788360596
1772794741396631000,7.234631103515625,0.5300083756446838,0.2127479612827301,0.37641075253486633
1772794741406675700,7.24467578125,0.581987738609314,0.2846831679344177,0.3907015323638916
1772794741416720000,7.254719970703125,0.6209871768951416,0.29395490884780884,0.37903159856796265
1772794741426764000,7.264763916015625,0.657339870929718,0.282025545835495,0.34249624609947205
1772794741436808700,7.27480859375,0.6885820627212524,0.24963714182376862,0.29679039120674133
1772794741446852900,7.284852783203125,0.7009921073913574,0.19847886264324188,0.25263118743896484
1772794741456898000,7.29489794921875,0.7029165029525757,0.1272893100976944,0.2188117653131485
1772794741466942000,7.30494189453125,0.6961382627487183,0.039151739329099655,0.1963096559047699
1772794741476985900,7.31498583984375,0.6985451579093933,-0.029559314250946045,0.18834878504276276
1772794741487031000,7.325031005859375,0.715390682220459,-0.04771780967712402,0.19737157225608826
1772794741497075000,7.335074951171875,0.7426924109458923,-0.02611946314573288,0.2174149751663208
1772794741507118800,7.345118896484375,0.7649721503257751,-0.023457633331418037,0.24317947030067444
1772794741517164000,7.3551640625,0.7853118777275085,-0.05811425670981407,0.2769622802734375
1772794741527208000,7.3652080078125,0.802467405796051,-0.11875443160533905,0.3062538802623749
1772794741537251800,7.375251953125,0.815017819404602,-0.1558661162853241,0.3330170512199402
1772794741547297000,7.385297119140625,0.8238112926483154,-0.15232756733894348,0.3469800055027008
1772794741557341000,7.3953408203125,0.8376314640045166,-0.11751078814268112,0.34976571798324585
1772794741567384800,7.405384765625,0.8566285967826843,-0.05230994522571564,0.3361353874206543
1772794741577430000,7.415429931640625,0.8758699297904968,0.006014558486640453,0.3108716607093811
1772794741587474000,7.425473876953125,0.8906376957893372,0.04701072722673416,0.2763664126396179
1772794741597518800,7.435518798828125,0.908140242099762,0.0811021700501442,0.24989983439445496
1772794741607563000,7.44556298828125,0.9196709394454956,0.14830490946769714,0.23782853782176971
1772794741617607000,7.45560693359375,0.9396616816520691,0.23101550340652466,0.23989754915237427
1772794741627651800,7.46565185546875,0.9739693403244019,0.2854108214378357,0.23449932038784027
1772794741637695700,7.47569580078125,1.0059072971343994,0.3031995892524719,0.21736650168895721
1772794741647740000,7.485739990234375,1.0258262157440186,0.2893913686275482,0.19820347428321838
1772794741657784800,7.495784912109375,1.045937180519104,0.2520386576652527,0.18495213985443115
1772794741667828700,7.505828857421875,1.06162428855896,0.20249614119529724,0.1930132508277893
1772794741677873000,7.515872802734375,1.0770080089569092,0.17088648676872253,0.21994717419147491
1772794741687917800,7.525917724609375,1.093510627746582,0.1739286184310913,0.2497199922800064
1772794741697961700,7.535961669921875,1.116377353668213,0.1989622265100479,0.26810920238494873
1772794741708006000,7.546005859375,1.1371676921844482,0.22517038881778717,0.2806495130062103
1772794741718051000,7.556051025390625,1.1598598957061768,0.24499022960662842,0.27435559034347534
1772794741728094700,7.5660947265625,1.1817641258239746,0.24538010358810425,0.25989145040512085
1772794741738140000,7.576139892578125,1.1984100341796875,0.24243539571762085,0.2510271370410919
1772794741748184000,7.58618408203125,1.221606969833374,0.23247464001178741,0.24449440836906433
1772794741758227700,7.596227783203125,1.2421503067016602,0.21444638073444366,0.2461618185043335
1772794741768273000,7.60627294921875,1.2643405199050903,0.18437927961349487,0.2568615972995758
1772794741778317000,7.616317138671875,1.2881563901901245,0.15453654527664185,0.27450254559516907
1772794741788361000,7.62636083984375,1.3062711954116821,0.10660737007856369,0.2963319420814514
1772794741798406000,7.636406005859375,1.3000149726867676,0.07498206943273544,0.2969447374343872
1772794741808450000,7.646449951171875,1.309830904006958,0.04006456583738327,0.2699589133262634
1772794741818494000,7.656493896484375,1.3228023052215576,0.02694104053080082,0.24174381792545319
1772794741828539000,7.666538818359375,1.3234636783599854,0.027630796656012535,0.20532242953777313
1772794741838583000,7.6765830078125,1.3091472387313843,0.03236670047044754,0.15602225065231323
1772794741848627000,7.686626953125,1.30107581615448,0.01677548699080944,0.11050323396921158
1772794741858671900,7.696671875,1.2887996435165405,-0.010284359566867352,0.06577784568071365
1772794741868716000,7.706716064453125,1.2736375331878662,-0.042101144790649414,0.031040901318192482
1772794741878760700,7.7167607421875,1.2489550113677979,-0.08723027259111404,0.010481839999556541
1772794741888804900,7.726804931640625,1.2200584411621094,-0.11505071818828583,0.006821591407060623
1772794741898849000,7.73684912109375,1.1953870058059692,-0.11654624342918396,0.02351522073149681
1772794741908893700,7.746893798828125,1.1818195581436157,-0.11424500495195389,0.04624583199620247
1772794741918937900,7.756937744140625,1.1723122596740723,-0.09428498893976212,0.06705614179372787
1772794741928982000,7.76698193359375,1.160730004310608,-0.05687503516674042,0.07774127274751663
1772794741939027000,7.77702685546875,1.150507926940918,-0.022577673196792603,0.08040673285722733
1772794741949070800,7.78707080078125,1.1439549922943115,0.02334347926080227,0.07530704140663147
1772794741959114800,7.79711474609375,1.1370095014572144,0.07113997638225555,0.0590817965567112
1772794741969159200,7.8071591796875,1.1399834156036377,0.09583227336406708,0.0596889965236187
1772794741979203300,7.817203369140625,1.1432324647903442,0.09540116041898727,0.07185903936624527
1772794741989247000,7.8272470703125,1.137583613395691,0.06345627456903458,0.10058975219726562
1772794741999292200,7.837292236328125,1.1250808238983154,0.029341982677578926,0.1489674150943756
1772794742009336300,7.84733642578125,1.106790542602539,0.01842169091105461,0.2083369940519333
1772794742019381000,7.857381103515625,1.0973188877105713,0.049550481140613556,0.26471754908561707
1772794742029425200,7.867425048828125,1.0896223783493042,0.09537309408187866,0.3104781210422516
1772794742039469300,7.87746923828125,1.074630856513977,0.13462798297405243,0.33337658643722534
1772794742049514000,7.887513916015625,1.0420374870300293,0.13758781552314758,0.33586159348487854
1772794742059558100,7.89755810546875,1.0042270421981812,0.10927218198776245,0.3312576413154602
1772794742069602300,7.907602294921875,0.9661057591438293,0.07545642554759979,0.3413930833339691
1772794742079647000,7.91764697265625,0.9308887124061584,0.07078125327825546,0.3587542474269867
1772794742089691100,7.927691162109375,0.8932875394821167,0.09337444603443146,0.3749087154865265
1772794742099735300,7.9377353515625,0.8540379405021667,0.13228082656860352,0.38511207699775696
1772794742109780000,7.947780029296875,0.8170871138572693,0.18084223568439484,0.3769891858100891
1772794742119824100,7.95782421875,0.7934456467628479,0.23402860760688782,0.3582654595375061
1772794742129868300,7.967868408203125,0.7694665193557739,0.263933002948761,0.32914087176322937
1772794742139913000,7.977912841796875,0.7523022294044495,0.2622127830982208,0.2989113926887512
1772794742149957000,7.98795703125,0.7463109493255615,0.24255944788455963,0.29118475317955017
1772794742160002300,7.998002197265625,0.7579598426818848,0.22390517592430115,0.29708248376846313
1772794742170046200,8.008046142578126,0.7788049578666687,0.21493618190288544,0.3000423014163971
1772794742180090000,8.018090087890625,0.8118413686752319,0.21992835402488708,0.3105974793434143
1772794742190135300,8.02813525390625,0.8559123873710632,0.23530331254005432,0.3186229169368744
1772794742200179200,8.03817919921875,0.9033292531967163,0.2570748031139374,0.32335221767425537
1772794742210223000,8.04822314453125,0.9444974660873413,0.278920441865921,0.33702144026756287
1772794742220268300,8.058268310546875,0.9680154323577881,0.2727164924144745,0.3564210534095764
1772794742230312200,8.068312255859375,0.9841347336769104,0.24510164558887482,0.3665138781070709
1772794742240356000,8.078356201171875,0.9900622367858887,0.2718583047389984,0.39697447419166565
1772794742250401300,8.0884013671875,0.9544086456298828,0.25455549359321594,0.4664110541343689
1772794742260445200,8.098445068359375,0.906154453754425,0.12159451097249985,0.49871814250946045
1772794742270489000,8.108489013671875,0.8723893165588379,-0.025879621505737305,0.5261348485946655
1772794742280534300,8.1185341796875,0.8285741806030273,-0.12347845733165741,0.540425717830658
1772794742290578200,8.128578125,0.7681779265403748,-0.1687367558479309,0.5201846361160278
1772794742300623000,8.138623046875,0.6870795488357544,-0.16906607151031494,0.4730883836746216
1772794742310667000,8.1486669921875,0.610291600227356,-0.11741459369659424,0.41567888855934143
1772794742320711200,8.158711181640625,0.5844409465789795,-0.018018240109086037,0.3551707863807678
1772794742330756000,8.168756103515625,0.6092424392700195,0.10237021744251251,0.2735576629638672
1772794742340800000,8.178800048828125,0.6416105031967163,0.18421582877635956,0.19459101557731628
1772794742350844200,8.18884423828125,0.6407564282417297,0.22525914013385773,0.13443472981452942
1772794742360889000,8.19888916015625,0.6317548155784607,0.18725043535232544,0.10323822498321533
