time,seconds_elapsed,z,y,x
1772794702028682800,0.073682861328125,-0.17745032431483268,-0.7338800919830799,-0.3597448007252067
1772794702038727400,0.0837275390625,-0.28966449860930443,-0.6753276575103402,-0.3211399063903838
1772794702048771600,0.093771484375,-0.21616320906877518,-0.6771176096670329,-0.33520500089358535
1772794702058815700,0.103815673828125,0.031008886247873305,-0.6099729956768453,-0.2544901997776702
1772794702068860400,0.1138603515625,0.31605858453810215,-0.5747225994016975,-0.050004422890581185
1772794702078904600,0.123904541015625,0.6172042621046304,-0.523604516180791,0.07779814648423343
1772794702088949800,0.13394970703125,0.7323854695111512,-0.38998975339587777,0.04645995521675795
1772794702098993700,0.14399365234375,0.5895815111637115,-0.41202575371302663,0.04530884895287454
1772794702109038600,0.15403857421875,0.5239981551408768,-0.4057344350164756,0.25386136382222174
1772794702119082800,0.164082763671875,0.5917728837281465,-0.345569085454382,0.31924042944461106
1772794702129126700,0.174126708984375,0.6281406666606665,-0.3403233668206259,0.2636749018281698
1772794702139171600,0.184171630859375,0.6303951675891876,-0.2770150795903057,0.1010499523319304
1772794702149215700,0.1942158203125,0.49713937430977817,-0.11027071207650005,-0.3009817191764712
1772794702159260400,0.204260498046875,0.2938771478682756,-0.022283289609104393,-0.2743039940007031
1772794702169304600,0.2143046875,0.15407354038059712,0.4154693182956427,-0.12230009950101375
1772794702179349800,0.224349853515625,0.1022901616513729,0.654378758310154,-0.30051863170936705
1772794702189393400,0.234393310546875,-0.054850949606299396,0.48118682209216057,-0.561776608588919
1772794702199437600,0.2444375,-0.02104804872572422,0.22843444242514668,-0.4368289902538061
1772794702209482800,0.254482666015625,0.18019640815258026,-0.006081438805535435,-0.5639747762203217
1772794702219526700,0.264526611328125,0.1942506524682045,-0.1973837993947789,-0.5558712570026516
1772794702229571600,0.274571533203125,0.20991174745857713,-0.34282771432437,-0.5753345572875812
1772794702239615700,0.28461572265625,0.2617103237569332,-0.4550042965548113,-0.6576453588906676
1772794702249659600,0.29465966796875,0.31539456767141816,-0.5565533940479159,-0.8191776908446103
1772794702259704600,0.30470458984375,0.31057693825662136,-0.6007592501949519,-0.938952655782178
1772794702269748700,0.314748779296875,0.2992582563847303,-0.5226091484678909,-0.7487504019219428
1772794702279793400,0.32479345703125,0.3254536048710346,-0.4395257915897295,-0.4782125555217266
1772794702289837600,0.334837646484375,0.4897054249167442,-0.34794155020676554,-0.0501219483230263
1772794702299882800,0.3448828125,0.6564993306607008,-0.28124650661498307,0.3896283362049609
1772794702309926400,0.354926513671875,0.6999234618455171,-0.29870606586206705,0.6390607046037912
1772794702319970600,0.364970458984375,0.6983429146558046,-0.41184973955899473,0.9109335990000516
1772794702330015700,0.375015625,0.48099721780419347,-0.6152402685552835,0.8914340948905796
1772794702340059400,0.385059326171875,0.17471885352432726,-0.6893561828628182,1.0181177432380617
1772794702350104600,0.3951044921875,-0.19403847102224825,-0.599231236910075,0.8143070891335606
1772794702360148700,0.405148681640625,-0.677097882053256,-0.5601196351621299,0.7651422223396599
1772794702370193700,0.415193603515625,-0.9465379232794046,-0.7395946702376007,1.064956943563372
1772794702380237600,0.425237548828125,-0.8590449332654476,-0.6717777830090373,1.1791404451694338
1772794702390281700,0.43528173828125,-0.8927847057819366,-0.6542241522703319,1.0463612564258278
1772794702400326400,0.445326416015625,-0.8648509891957044,-0.7461477451428771,0.9537442744616419
1772794702410370600,0.45537060546875,-1.0369067609906195,-0.9084753191277384,0.8606904354501516
1772794702420415700,0.465415771484375,-1.3554571623444556,-1.2518839751452207,0.982666052237153
1772794702430459400,0.47545947265625,-1.4525100078642368,-1.42405343644768,0.9066340751752257
1772794702440503600,0.485503662109375,-1.5400444989323616,-1.495414937480539,0.6934814460992813
1772794702450548700,0.495548828125,-1.4603215583980083,-1.4478671504944562,0.6281175780460239
1772794702460592400,0.50559228515625,-1.2908967196285723,-1.7244396739490329,0.7084286937318742
1772794702470637600,0.515637451171875,-1.2362293098956345,-1.9174641456231474,0.7542112246111035
1772794702480681700,0.525681640625,-1.2613234191417693,-1.8043460082262754,0.812949683175236
1772794702490726700,0.5357265625,-1.42079852630496,-1.8279829044014215,1.026151412089914
1772794702500770600,0.5457705078125,-1.523655674189329,-2.187844536439329,1.0134428832948208
1772794702510814700,0.555814697265625,-1.256894496783614,-2.144212169331312,0.8191284448754041
1772794702520859600,0.565859619140625,-1.0404296744197608,-2.3592321997143326,0.5937520017813891
1772794702530903600,0.575903564453125,-0.7839841393232345,-2.39319029115662,0.18653837932413442
1772794702540948700,0.58594873046875,-0.4939993227183819,-2.2176398091137406,-0.28326646813526746
1772794702550992400,0.595992431640625,-0.2516898650020361,-2.067659383265674,-0.5293094132915139
1772794702561037600,0.60603759765625,-0.2557248196065426,-1.8111098032727837,-0.45677028331402686
1772794702571081700,0.616081787109375,-0.5093669877201319,-1.5211207488842307,-0.32188692536540325
1772794702581125400,0.62612548828125,-0.8444026599287986,-1.2880521438524126,-0.5150807622570545
1772794702591170600,0.636170654296875,-1.086466618451476,-1.235007805276662,-0.4646620594771579
1772794702601214700,0.646214599609375,-1.0910387486726045,-1.0729757801722735,-0.6770853148326277
1772794702611259600,0.656259765625,-0.9626724810004234,-0.8992197072654962,-0.8707986455537379
1772794702621303600,0.666303466796875,-0.7550333546489477,-0.7341970489777624,-0.8905734594732523
1772794702631348700,0.6763486328125,-0.573241201737523,-0.4742531503714621,-0.8218729212779551
1772794702641392600,0.686392578125,-0.36786651318669317,-0.17397152402205393,-0.769993900154531
1772794702651436500,0.6964365234375,-0.12067395960390567,0.09038237304622307,-0.6163232414864003
1772794702661481700,0.706481689453125,0.09427402845621108,0.31012934061959385,-0.38039351140242067
1772794702671525600,0.716525634765625,0.2997954320013523,0.598310432270728,-0.1461168822877109
1772794702681570600,0.726570556640625,0.5102373408138752,0.9236519185367971,0.08040774446073919
1772794702691614700,0.73661474609375,0.64141282068789,1.2008425738897175,0.3318353052647784
1772794702701659600,0.74665966796875,0.6083569387823343,1.414198397387564,0.6225394856527448
1772794702711703600,0.75670361328125,0.7450128958940505,1.6978757844112813,0.6065795538462698
1772794702721747700,0.766747802734375,0.810673408806324,1.7244342671215533,0.8434562459241598
1772794702731792600,0.776792724609375,0.8401602000534534,1.557777724021673,1.0549924527794121
1772794702741836500,0.78683642578125,0.8342623741865157,1.5923463485777378,0.8588586169131099
1772794702751881500,0.796881591796875,0.7492448343753815,1.386816177204251,0.8332065815232693
1772794702761925600,0.806925537109375,0.6584335135936736,1.1517978994093834,0.6962628935113548
1772794702771969500,0.816969482421875,0.625545389470458,0.9964891912106424,0.5041510066375136
1772794702782014700,0.8270146484375,0.6320476109713316,0.9092070674683899,0.3737825322974473
1772794702792058600,0.83705859375,0.6913175460636616,0.9017567514624446,0.31445217225477096
1772794702802103600,0.847103515625,0.7043056224524974,0.9358006945572793,0.3299550810087472
1772794702812147700,0.857147705078125,0.7209183190792798,0.9482825019244104,0.33672837453596294
1772794702822192600,0.867192626953125,0.7643903810590505,0.8988239859461784,0.2588411249961704
1772794702832236500,0.877236572265625,0.8194085039258002,0.8555402861453593,0.1473078456379473
1772794702842280700,0.88728076171875,0.8039291952431201,0.8133082873545586,0.030408801462873815
1772794702852325600,0.89732568359375,0.7674135282725095,0.7199195173002779,-0.0030156214941293
1772794702862369500,0.90736962890625,0.6656248864024877,0.5866393202319741,-0.023565146113187073
1772794702872414500,0.91741455078125,0.6168816060215234,0.37154688219986853,-0.06368811686076223
1772794702882458600,0.927458740234375,0.593361029702425,0.13071548854629508,-0.12983283309340476
1772794702892503600,0.937503662109375,0.5427542935371399,-0.03184519550811965,-0.16651925352104008
1772794702902547700,0.947547607421875,0.45128304754197596,-0.11893154551652259,-0.22558818614855408
1772794702912591600,0.957591552734375,0.3386035938233137,-0.10848893409310839,-0.2679787365019321
1772794702922636800,0.96763671875,0.21424130109548567,-0.007186623568460345,-0.25239187579154965
1772794702932680700,0.9776806640625,0.055336102774739264,0.10263775124633684,-0.18102204532176255
1772794702942725600,0.9877255859375,-0.06416998209357261,0.1921380259620957,-0.09929076063968241
1772794702952769800,0.997769775390625,-0.12871347367465497,0.29094988051103426,-0.10332257343903184
1772794702962814500,1.007814453125,-0.12432079167366027,0.3778643217183649,-0.18812011382393537
1772794702972858600,1.017858642578125,-0.1459089386254549,0.3812292315742001,-0.24850648572556672
1772794702982902800,1.02790283203125,-0.22015140192210672,0.36223643487785007,-0.28644122571386393
1772794702992947500,1.037947509765625,-0.2952852611005306,0.3190542226901278,-0.2998554916255176
1772794703002991600,1.04799169921875,-0.33309564405679704,0.2061302926911041,-0.3070905574455857
1772794703013036800,1.058036865234375,-0.379804788261652,0.10309833622910082,-0.30730690361000595
1772794703023080700,1.068080810546875,-0.3862491420954466,-0.020890921935252844,-0.29473551826328037
1772794703033124600,1.07812451171875,-0.35775954519212244,-0.10220756140183657,-0.25231946814246475
1772794703043169800,1.088169677734375,-0.28815993926525113,-0.1623359764870256,-0.19524295144118367
1772794703053213700,1.098213623046875,-0.15681202543377876,-0.21069763713926076,-0.10529723451286553
1772794703063258600,1.108258544921875,0.006052724167704582,-0.2716540640138089,-0.08473609252125024
1772794703073302800,1.118302734375,0.20759704077541827,-0.3589736702222377,-0.09943272639364004
1772794703083347700,1.12834765625,0.361551923212409,-0.47021498089656233,-0.1746665388152003
1772794703093391600,1.1383916015625,0.4492658625006675,-0.5920090305715799,-0.2201915878020227
1772794703103435800,1.148435791015625,0.5085357975929975,-0.7475980900816619,-0.2140037660125643
1772794703113480400,1.15848046875,0.5647621272057295,-0.8785621922273188,-0.21267215208262205
1772794703123524600,1.168524658203125,0.5882388643831015,-0.9939200713749975,-0.2991135872170329
1772794703133569800,1.17856982421875,0.6331856750905513,-1.0504825741395354,-0.3726335083927959
1772794703143613700,1.18861376953125,0.6797422590821981,-1.120869019595161,-0.44140309323631227
1772794703153658600,1.19865869140625,0.6672773297846317,-1.204459230016917,-0.4419002291034907
1772794703163702800,1.208702880859375,0.6188391698300838,-1.2291077874526382,-0.4165506837915629
1772794703173746700,1.21874658203125,0.5177519542276859,-1.207714943877235,-0.39630248020663855
1772794703183791600,1.22879150390625,0.4401268627554178,-1.1196253031443804,-0.45963520775847133
1772794703193835800,1.238835693359375,0.3839724293351173,-0.987896865562722,-0.5277319348417222
1772794703203880700,1.248880615234375,0.3145142777055502,-0.8970810147363693,-0.4927852707535028
1772794703213924600,1.258924560546875,0.15335282489061355,-0.7760573649119585,-0.3460053945124149
1772794703223969800,1.2689697265625,-0.031951720055937764,-0.6598054595340043,-0.18976722344383595
1772794703234013700,1.279013671875,-0.1963058314323425,-0.5386727233119308,-0.13476897432133556
1772794703244057600,1.2890576171875,-0.3056406508982181,-0.4255488137613982,-0.18272585356496274
1772794703254102800,1.299102783203125,-0.40663083586692805,-0.3331988121703267,-0.21449622570462523
1772794703264146700,1.309146728515625,-0.48968672021627424,-0.3179789581414312,-0.20661285204365848
1772794703274191600,1.319191650390625,-0.5527566321134567,-0.3439883556015789,-0.19056838375888763
1772794703284235800,1.32923583984375,-0.5522486825913191,-0.3740767660036683,-0.1954875738520175
1772794703294279700,1.33927978515625,-0.5292296260535717,-0.44513891876377165,-0.22770101358406244
1772794703304324600,1.34932470703125,-0.4621218369424343,-0.5180409272368997,-0.31190212244577703
1772794703314368800,1.35936865234375,-0.41335985186100005,-0.5808143404055387,-0.4519429727554321
1772794703324413700,1.36941357421875,-0.39327158807814117,-0.6704900812860578,-0.5408293898891657
1772794703334457600,1.37945751953125,-0.41054830157160754,-0.8004317815814167,-0.5435167292769998
1772794703344502800,1.389502685546875,-0.43658582914769645,-0.9301477102968841,-0.549222393572703
1772794703354546700,1.399546630859375,-0.4510960005372762,-0.9777073338512331,-0.5562736272584646
1772794703364590600,1.409590576171875,-0.3944768722146749,-1.0275650052148848,-0.5980424655169249
1772794703374635800,1.4196357421875,-0.3282289148032665,-1.1158262031223625,-0.6227789204318076
1772794703384679700,1.4296796875,-0.31294717451930043,-1.2511002774216233,-0.6231644856832921
1772794703394724600,1.439724609375,-0.38159108715653417,-1.366111242827773,-0.6980910587865858
1772794703404768800,1.449768798828125,-0.5465858345240354,-1.467473329848796,-0.8182438440605998
1772794703414813700,1.459813720703125,-0.7332739427834749,-1.5445874030590057,-0.8645879543453454
1772794703424857600,1.469857666015625,-0.8856453554213046,-1.5513219720110296,-0.8275865496844053
1772794703434901800,1.47990185546875,-0.9919751478523016,-1.4030619402147828,-0.7859504709601401
1772794703444946700,1.48994677734375,-1.1399860271930693,-0.9769231246709823,-0.7047426986955105
1772794703454990600,1.499990478515625,-1.4631740252196788,-0.5581904206652194,-0.5411700200203806
1772794703465035800,1.510035888671875,-1.789484539180994,-0.2956003914643079,-0.42033743578866123
1772794703475079700,1.52007958984375,-1.923451695600152,0.03998867684341967,-0.2721775764312595
1772794703485123600,1.53012353515625,-1.8822171834141015,0.40525194872915743,-0.22101948999352752
1772794703495168800,1.540168701171875,-1.6526666695058345,0.6989219566527753,-0.15130319888442753
1772794703505212700,1.550212646484375,-1.2973971875637769,0.7884840080257505,-0.10493293124511838
1772794703515257600,1.560257568359375,-0.865237942686677,0.7211399259407073,-0.07693046027161181
1772794703525301800,1.5703017578125,-0.42081133691072464,0.624586408245191,-0.10062295909151435
1772794703535346700,1.5803466796875,0.036901451417803766,0.5552722681961954,-0.13385423409659414
1772794703545390600,1.590390625,0.3900076178461313,0.46482810022644694,-0.1436474599668756
1772794703555434800,1.600434814453125,0.6682640027344227,0.4560298402102664,-0.10635689963363111
1772794703565479700,1.610479736328125,0.8268050439178943,0.4965332616427913,-0.017562727360613643
1772794703575523600,1.620523681640625,0.8234592406213284,0.5130367622740566,0.03943305225465447
1772794703585568800,1.63056884765625,0.7497597981601953,0.4884250297173857,0.03230309077687561
1772794703595612700,1.64061279296875,0.6954816800057888,0.42813082961123433,0.05165631828345358
1772794703605657600,1.65065771484375,0.6470949579775332,0.38233562191352244,0.225891406878829
1772794703615701800,1.66070166015625,0.57373161560297,0.3775034890493378,0.4050675320729613
1772794703625745700,1.67074560546875,0.4617150097072124,0.439122215757519,0.5855518172562122
1772794703635790600,1.68079052734375,0.34893910987675186,0.6052103478522971,0.75173482456021
1772794703645834800,1.690834716796875,0.2489396895110607,0.8214942972239107,0.8948080283030867
1772794703655879700,1.700879638671875,0.14209376425147055,1.0418963859714567,1.0836598904676735
1772794703665923600,1.710923583984375,0.08089899857640266,1.2740218649342656,1.2300187648177145
1772794703675967700,1.7209677734375,0.16532207962572573,1.4794346935383975,1.315821609787643
1772794703686012700,1.7310126953125,0.3067483198791742,1.6017112660333512,1.4256892209559677
1772794703696056600,1.741056640625,0.4795259762078523,1.6009589863613247,1.5253332520127296
1772794703706101800,1.751101806640625,0.6678109982699155,1.5337639573581516,1.5272536986812948
1772794703716145700,1.761145751953125,0.8423229310452938,1.413937408363819,1.4089172421142457
1772794703726190600,1.771190673828125,0.9905874928861856,1.2038012044996023,1.257137073367834
1772794703736234800,1.78123486328125,1.0888175654917955,0.9553890459939837,1.1368509440377355
1772794703746278700,1.791278564453125,1.1312784046024082,0.6974901702839881,1.0704865206398069
1772794703756323600,1.801323486328125,1.1015741712123155,0.46283246942982076,0.9552884351637214
1772794703766367700,1.81136767578125,1.1129267553538083,0.2768932433089241,0.7434099907420575
1772794703776412700,1.82141259765625,1.1547878750056029,0.14996382177313788,0.5915301244808361
1772794703786456600,1.83145654296875,1.1443149963080883,0.04376626828652806,0.5067399636847898
1772794703796501800,1.841501708984375,1.0804998190015553,-0.06698703054198994,0.45915001805741334
1772794703806545700,1.851545654296875,0.9530325459957122,-0.1311065976225771,0.3673440236825496
1772794703816589600,1.861589599609375,0.7792541881918906,-0.15614967080121858,0.28501075451932845
1772794703826634800,1.871634765625,0.6315542744964361,-0.17350290186330675,0.19532637367462738
1772794703836678700,1.8816787109375,0.4697966093540191,-0.19720155642936005,0.13705765151409433
1772794703846723800,1.891723876953125,0.34948388427793975,-0.22174550271313637,0.05818625890831463
1772794703856767700,1.901767822265625,0.19922434922754764,-0.2286856772398576,-0.00011601846194826066
1772794703866811600,1.911811767578125,0.1349731185913086,-0.23338950754925608,-0.0664837206623517
1772794703876856800,1.92185693359375,0.08174071009755134,-0.26108647450385614,-0.08900732183335348
1772794703886900700,1.931900634765625,-0.006888005948066711,-0.27798734042225404,-0.08465906349597498
1772794703896945700,1.941945556640625,-0.15783084708750247,-0.2757388308431022,-0.06245185306407511
1772794703906989600,1.951989501953125,-0.3009586305618286,-0.23936154942987486,-0.03908736235583201
1772794703917034800,1.96203466796875,-0.3746411218881607,-0.16685913473358377,-0.05332125582098961
1772794703927079000,1.972078857421875,-0.3922124344140291,-0.11838482575342059,-0.07393235616786405
1772794703937122800,1.982122802734375,-0.3841331728547811,-0.09821695739571004,-0.06829820447210222
1772794703947168000,1.99216796875,-0.31102059037089347,-0.11852017910350113,-0.038985052758827805
1772794703957212000,2.0022119140625,-0.1956529204815626,-0.1771318329501897,-0.005053429198358207
1772794703967257000,2.012257080078125,-0.025537176838517188,-0.2231998662399128,-0.01293267467347905
1772794703977301000,2.022301025390625,0.14850713842511176,-0.2882090756366029,-0.06846939632054418
1772794703987345000,2.032344970703125,0.3003361147493124,-0.3682141575805843,-0.10123862503813578
1772794703997390000,2.04239013671875,0.33506840543448924,-0.4531050388047471,-0.06685491032861172
1772794704007434000,2.05243408203125,0.33187457782924173,-0.5449225409543141,-0.06940200099553913
1772794704017479000,2.06247900390625,0.3390571828097105,-0.6435960099458694,-0.07730899299411102
1772794704027523000,2.072523193359375,0.3602805881023407,-0.7590539884671569,-0.035625677594635634
1772794704037567700,2.082567626953125,0.3691507077783346,-0.8278713579751551,-0.002512019353546202
1772794704047612000,2.09261181640625,0.30207097571790215,-0.8259514227632433,0.08643677722560242
1772794704057656000,2.102656005859375,0.13120119883716105,-0.8011772661864757,0.11937071325192228
1772794704067700700,2.11270068359375,-0.03631634500622749,-0.7283287414662539,0.17095798488715663
1772794704077745000,2.122744873046875,-0.14517536365389824,-0.6676428020961582,0.1843668257050216
1772794704087790000,2.1327900390625,-0.10627192476391792,-0.6611658611670136,0.1948664828116074
1772794704097834000,2.142833984375,-0.03799392282962799,-0.6857881151176989,0.2463744421329349
1772794704107879000,2.15287890625,0.06031564475297928,-0.7322014181811362,0.25826043903138485
1772794704117923000,2.162923095703125,0.06515840860903263,-0.7679252771869302,0.22373543442133811
1772794704127967000,2.172967041015625,-0.0019160627543926237,-0.7707419420428574,0.15619301675260067
1772794704138012000,2.183011962890625,-0.05507365244626999,-0.7875121673189103,0.01676489151380956
1772794704148056000,2.19305615234375,-0.058036009383201595,-0.7930477357447147,-0.048315118096768854
1772794704158100700,2.203100830078125,-0.1297270346313715,-0.8221715388983487,-0.0069830638203769915
1772794704168145000,2.213144775390625,-0.2722363939464092,-0.8210305521696806,0.05306596588566899
1772794704178189000,2.22318896484375,-0.34726153205335136,-0.7680660738971083,0.055525560932233924
1772794704188233700,2.233233642578125,-0.45682782218754286,-0.6791188664868474,0.07510266032256185
1772794704198278000,2.24327783203125,-0.580341389131546,-0.5798438148729503,0.0769115363754332
1772794704208323000,2.253322998046875,-0.4915449153035879,-0.5061065611520782,0.028343320300430058
1772794704218367000,2.263366943359375,-0.4404331522256136,-0.5356019010318442,0.18830087721832095
1772794704228412000,2.273411865234375,-0.43840427674651145,-0.5652055966569111,0.36443544275946915
1772794704238456000,2.2834560546875,-0.42511867871582504,-0.5700095994051545,0.4397562028121203
1772794704248500000,2.2935,-0.4807476269572973,-0.5863665677051991,0.5326770630937069
1772794704258545000,2.303544921875,-0.5840519340872764,-0.6600448943130671,0.5472638068508356
1772794704268589000,2.313589111328125,-0.7262158409655094,-0.6780426155574619,0.46792044021859763
1772794704278633700,2.3236337890625,-0.8826631247401237,-0.6803748578973114,0.41032223773077126
1772794704288678000,2.333677978515625,-1.0402496416777371,-0.6176784554876387,0.35354338880181313
1772794704298722000,2.34372216796875,-1.1707342166781425,-0.5324796773580834,0.3107273065127432
1772794704308766700,2.3537666015625,-1.256198915734887,-0.48133342748861757,0.25861001965403557
1772794704318811000,2.363810791015625,-1.3077531618833542,-0.3908730390364304,0.18067586223259569
1772794704328856000,2.37385595703125,-1.3921838417172432,-0.2537267045918852,0.10682488247156142
1772794704338900000,2.38389990234375,-1.4490204121828079,-0.056915042529255146,0.07921601392552256
1772794704348945000,2.39394482421875,-1.4680606282174586,0.16658303947225211,0.023585750509798525
1772794704358989000,2.403989013671875,-1.3358902920871971,0.4130141802284866,-0.0573670240804553
1772794704369033000,2.414032958984375,-1.0554109704524277,0.5668299464557319,-0.2649528128094971
1772794704379078000,2.424077880859375,-0.7098848838895558,0.6912251916050911,-0.22810016896948218
1772794704389122000,2.4341220703125,-0.46499534655213354,0.693869860894978,-0.046238311822712416
1772794704399166700,2.444166748046875,-0.1897492493957281,0.7244318801581859,-0.03589972702935338
1772794704409211000,2.4542109375,0.15198387462496757,0.7539062503151596,-0.09178148098811506
1772794704419256000,2.464256103515625,0.524434208470583,0.7122243596877902,-0.21970321976318954
1772794704429299700,2.4742998046875,0.9065127868831158,0.6370598131101578,-0.3060037851221859
1772794704439343900,2.48434375,1.1274579695314169,0.5576842612413689,-0.19526625925153493
1772794704449389000,2.49438916015625,1.185159047871828,0.5620611246187239,-0.05795753731951117
1772794704459433000,2.504432861328125,1.1184668538242577,0.6732004362232983,0.023402941288799047
1772794704469478000,2.514477783203125,1.01359310542047,0.7640257855303585,0.12836919028162955
1772794704479522000,2.52452197265625,0.9084545686006545,0.8038476544395089,0.23045126214027403
1772794704489566000,2.53456591796875,0.8843424561291933,0.7944492731057107,0.26149799618050457
1772794704499611000,2.54461083984375,0.8746540058076381,0.7340316292829812,0.2907549241945147
1772794704509655000,2.554655029296875,0.8601666307717561,0.6831717951394617,0.30568332099616524
1772794704519700000,2.564699951171875,0.8596253635019063,0.6085171708453446,0.31315716400817034
1772794704529744000,2.574743896484375,0.7668594015210867,0.4908288759887218,0.29812910622432826
1772794704539789000,2.5847890625,0.6338514455229044,0.3294555339887738,0.23787176752984523
1772794704549832700,2.594832763671875,0.48870121631026264,0.1967463234751485,0.21670053081586957
1772794704559876900,2.604876953125,0.32333529754281043,0.08182491778228432,0.21756226221174
1772794704569922000,2.614922119140625,0.18608838880062104,-0.0549384269603528,0.21442674066498874
1772794704579966000,2.624966064453125,0.03150631437599659,-0.12469830148285255,0.1762333497405052
1772794704590011000,2.635010986328125,-0.09215513660609721,-0.1527103622686118,0.1965649207599461
1772794704600055000,2.645054931640625,-0.1440863993734121,-0.1940528648737818,0.21976532521396874
1772794704610099000,2.655098876953125,-0.09062252021133899,-0.2535804279889911,0.23007059225961565
1772794704620143900,2.665143798828125,-0.006660042411088943,-0.3182928098635748,0.22773279696181414
1772794704630188000,2.67518798828125,0.050530163797736165,-0.3854818109847605,0.20862579930126665
1772794704640233000,2.68523291015625,0.05723346082866192,-0.35133627067897466,0.15274755247384308
1772794704650276900,2.69527685546875,0.03345978653132915,-0.2758418710924685,0.15029650605991482
1772794704660322000,2.705322021484375,-0.01786474251449108,-0.1527233678806573,0.23907982814535497
1772794704670366000,2.715365966796875,-0.07378478265702725,-0.013677191164158284,0.3267572348155081
1772794704680409900,2.725409912109375,-0.10620412022471427,0.13271613344475627,0.3325811186634004
1772794704690455000,2.735455078125,-0.19941548788547514,0.20523199214451013,0.27341610525026916
1772794704700499000,2.7454990234375,-0.28629823704659935,0.24261691623032092,0.2233395304389298
1772794704710544000,2.7555439453125,-0.3462064700424671,0.2614755651529878,0.11709770855233073
1772794704720588000,2.765588134765625,-0.29041619375944133,0.2108863646443933,0.009119856653362512
1772794704730633000,2.775633056640625,-0.17256781297028065,0.10825652270987629,-0.08701368206441402
1772794704740676900,2.7856767578125,-0.01643967814743519,-0.05156301397681236,-0.15582695991918444
1772794704750721000,2.795720947265625,0.1282096158057451,-0.1541727629713714,-0.23614625891149044
1772794704760766000,2.805765869140625,0.2348486203163862,-0.26380627312287686,-0.29106501305699345
1772794704770809900,2.815809814453125,0.30782793180942536,-0.36036801065746693,-0.3190310244776308
1772794704780855000,2.82585498046875,0.3539917170912027,-0.458696575201489,-0.3356305693618953
1772794704790899000,2.83589892578125,0.40358138516843317,-0.5481761724554002,-0.3973863299205899
1772794704800942800,2.84594287109375,0.4312877227395773,-0.6142256846852601,-0.5107619492098688
1772794704810988000,2.855988037109375,0.4574585213065147,-0.6425660823762417,-0.6265957753062248
1772794704821032000,2.866031982421875,0.47680678037703034,-0.6800557820107788,-0.7143855563096702
1772794704831076900,2.876076904296875,0.45963586534559725,-0.7457944016605615,-0.7363985045447945
1772794704841121000,2.88612109375,0.41574820830225945,-0.8169795232132077,-0.7583192444518208
1772794704851166000,2.896166015625,0.3500602228611707,-0.852024240848422,-0.7866752781033516
1772794704861209900,2.9062099609375,0.2996563157916069,-0.849897311822325,-0.8471114804960787
1772794704871254000,2.91625390625,0.2431231121867895,-0.8070590907666831,-0.815881352712959
1772794704881299000,2.926298828125,0.19169921441972254,-0.741473542786762,-0.7403827518753707
1772794704891342800,2.9363427734375,0.16156535744071004,-0.6282647314317524,-0.6225336404338478
1772794704901388000,2.946387939453125,0.18879472514986992,-0.5353166178170591,-0.49611836069896814
1772794704911432000,2.956431884765625,0.24041385322809217,-0.47807731176950036,-0.40586774253994223
1772794704921476400,2.966476318359375,0.26493746910989285,-0.4676259142514318,-0.3067157327838242
1772794704931520300,2.976520263671875,0.22279928608238694,-0.4642855908475816,-0.22134558014273642
1772794704941564400,2.986564453125,0.18128712599873542,-0.4445481132637709,-0.21159005593433974
1772794704951609300,2.996609375,0.15487667345702646,-0.42925972404330964,-0.25694047900661826
1772794704961653200,3.0066533203125,0.1409410870850086,-0.470999847663939,-0.28471681307405233
1772794704971698200,3.0166982421875,0.1332990478992462,-0.5547979286827147,-0.3890735518664121
1772794704981742300,3.026742431640625,0.11957564297318458,-0.6513111143678426,-0.4901731885589659
1772794704991786200,3.0367861328125,0.11021335586607456,-0.7543298825547099,-0.6185676594123244
1772794705001831200,3.0468310546875,0.13254676822721959,-0.8016063052535056,-0.7557927216488868
1772794705011875300,3.056875244140625,0.15985212378203867,-0.8500780752167105,-0.912539426761493
1772794705021920300,3.066920166015625,0.11725450654923915,-0.9434514285061508,-1.0615253616794944
1772794705031964400,3.07696435546875,0.14417349313497543,-0.9928109410893171,-1.2629495590388775
1772794705042009300,3.08700927734375,0.23757950658500193,-0.9664023882437497,-1.4338298573136328
1772794705052053200,3.09705322265625,0.32175299678742886,-0.9142047296252102,-1.4582086578972637
1772794705062097400,3.107097412109375,0.3161702282190323,-0.8572815037894993,-1.2574733195848762
1772794705072142300,3.117142333984375,0.24066753572821617,-0.9078300069615244,-1.1408126142103225
1772794705082186200,3.127186279296875,0.07827391076982021,-0.8839994148451834,-1.1024326146725565
1772794705092231200,3.137231201171875,-0.24838906989097595,-0.699146778384596,-0.9440813969727605
1772794705102275300,3.147275390625,-0.7308300567626953,-0.6119105396106839,-0.7368019707791507
1772794705112319200,3.1573193359375,-1.2671733142137527,-0.5890144518654793,-0.6873937236834317
1772794705122364200,3.1673642578125,-1.6806547466278074,-0.5426948184348642,-0.7557278397191316
1772794705132408300,3.177408203125,-1.932327075973153,-0.4768157674010843,-0.7588998938839883
1772794705142453200,3.187453369140625,-2.03966399962008,-0.3348359849181026,-0.6733966894477605
1772794705152497400,3.197497314453125,-2.0212042138218878,-0.16032485586032272,-0.46939431216344235
1772794705162542300,3.207542236328125,-1.874604954844713,0.04767221708334982,-0.2699909531071782
1772794705172586200,3.217586181640625,-1.6933166598021983,0.2932863058356568,-0.08824673099070787
1772794705182630400,3.22763037109375,-1.5938947470635174,0.5432334188235923,0.15894173093885183
1772794705192675300,3.23767529296875,-1.5423498532652855,0.7941450294621288,0.41261239449456333
1772794705202719200,3.24771923828125,-1.4386048166304826,1.038495929878205,0.6317065424486994
1772794705212764200,3.25776416015625,-1.2505045034855604,1.2314194253958761,0.7998987706832588
1772794705222808300,3.267808349609375,-0.9079431119471788,1.312018710373342,0.9010726416558027
1772794705232852200,3.277852294921875,-0.4940975223958492,1.3021408749595285,0.9760619777970015
1772794705242897200,3.287897216796875,-0.1523749197691679,1.274645549790561,1.020298156017065
1772794705252941300,3.29794140625,0.11219546959400176,1.2446426257148384,1.01864746620059
1772794705262986500,3.307986572265625,0.32030630511045455,1.2736140147857367,0.9420813091967254
1772794705273030400,3.318030517578125,0.4922270523488521,1.295155253855884,0.807649238679558
1772794705283075300,3.328075439453125,0.6573451338350772,1.1418740328967572,0.6045479018881916
1772794705293119200,3.338119140625,0.8902098868578672,1.2134057759299874,0.7285877577286213
1772794705303163400,3.348163330078125,1.131363160276413,1.1905539657179265,0.7328050100974738
1772794705313208300,3.358208251953125,1.2048194416314362,0.8838745463564991,0.7081032611697912
1772794705323252200,3.368252197265625,1.3376339208841324,0.7573208079989999,0.7627313618056476
1772794705333297200,3.378297119140625,1.4694874461501837,0.6961096026457846,0.6739637487459927
1772794705343341300,3.38834130859375,1.516721491011977,0.5430418052416295,0.6263013224042951
1772794705353386500,3.398386474609375,1.5378981345534324,0.3172568178793415,0.6205301185917109
1772794705363430100,3.40843017578125,1.4765636681467293,0.061712113213213154,0.6357921312619
1772794705373474300,3.418474365234375,1.438171685910225,-0.13829834489072673,0.6383562095962464
1772794705383519500,3.42851953125,1.3844699063390493,-0.2840709346522577,0.5913303275924175
1772794705393563400,3.4385634765625,1.2790811941504479,-0.3136787036642432,0.5323162669572978
1772794705403608300,3.4486083984375,1.0702782847166061,-0.264369496496208,0.4907146750245243
1772794705413652500,3.458652587890625,0.843491974824667,-0.14646426182012073,0.47734826684258874
1772794705423696400,3.4686962890625,0.594162993735075,-0.006652169631887227,0.45430334521122273
1772794705433741300,3.4787412109375,0.446316365045309,0.12592913105259648,0.409103947982192
1772794705443785500,3.488785400390625,0.35439912884831426,0.20874155290173366,0.3730477152168751
1772794705453830100,3.498830078125,0.2530617378771305,0.2548685681033879,0.33204270093776284
1772794705463874300,3.508874267578125,0.09756137956380843,0.2779306235326454,0.38778161235973235
1772794705473919500,3.51891943359375,-0.10846680445969104,0.4346783515585586,0.4820269992433488
1772794705483963100,3.528963134765625,-0.2505260819196701,0.6275482537254691,0.5442831836048513
1772794705494007300,3.53900732421875,-0.31675475010871884,0.8328476850830018,0.6313683234702795
1772794705504052500,3.549052490234375,-0.3497100942492485,0.9386632443815469,0.7830274961855263
1772794705514096400,3.559096435546875,-0.3637596623897552,1.0299909171875565,0.8598612911496311
1772794705524141300,3.569141357421875,-0.2823486226379871,1.0753856908582151,0.9212378431323915
1772794705534185500,3.579185546875,-0.17156360436379908,1.0487683906327931,0.9001116146039218
1772794705544229400,3.5892294921875,-0.01629237863123417,0.8837865027468651,0.7663632885672151
1772794705554274300,3.5992744140625,0.15436755489110945,0.5837590520879253,0.6225587018098682
1772794705564318500,3.609318359375,0.2809194666177034,0.24739693531477822,0.5082632642619311
1772794705574363100,3.619363037109375,0.33915830509662626,-0.045523368486389514,0.3876563054796308
1772794705584407300,3.6294072265625,0.3867144215196371,-0.2830416829360649,0.2743331470299512
1772794705594452500,3.639452392578125,0.39589959849417206,-0.424060913291201,0.1844794922992587
1772794705604496100,3.64949609375,0.35408173346221444,-0.5634445052685215,0.04774148292727768
1772794705614540300,3.659540283203125,0.29413141489028927,-0.6781152424022555,-0.053777840482071036
1772794705624585500,3.66958544921875,0.2344873857885599,-0.770364048641175,-0.11770276177339255
1772794705634629400,3.67962939453125,0.16472294468879697,-0.8555361944921315,-0.16647234563939273
1772794705644674300,3.68967431640625,0.1130699143409729,-0.9108823802694678,-0.22012794798128305
1772794705654718500,3.699718505859375,0.08455518299639224,-0.9630487669669091,-0.2653950766842812
1772794705664763100,3.70976318359375,0.0918991160184145,-1.018676838425547,-0.3200372789107263
1772794705674807300,3.719807373046875,0.11643500685989856,-1.0101881192825735,-0.3239292448479682
1772794705684851500,3.7298515625,0.1280097093194723,-0.9443665705896913,-0.31709574556611475
1772794705694896000,3.739896240234375,0.06944003145098686,-0.8350826045282185,-0.25326434777714313
1772794705704940300,3.749940185546875,-0.04147241259515285,-0.6655730831500143,-0.14487521166354417
1772794705714985500,3.7599853515625,-0.1458650994837284,-0.5396859920077025,-0.05187091088220477
1772794705725029000,3.770029052734375,-0.2421557284593582,-0.4377763906391337,0.07863806790709495
1772794705735073300,3.7800732421875,-0.2665086639493704,-0.4044170688075945,0.20689291109405455
1772794705745118500,3.790118408203125,-0.2883124994784593,-0.39255759458988904,0.3208722684301436
1772794705755162000,3.800162109375,-0.30913550727665423,-0.3624002836700529,0.3768351978663355
1772794705765207300,3.810207275390625,-0.29613749401569367,-0.32690340182054783,0.38727161701098084
1772794705775251500,3.82025146484375,-0.23823300205767153,-0.3216926083697006,0.3899305340219289
1772794705785296100,3.830296142578125,-0.21189912188351154,-0.38194052164871245,0.4001949576005339
1772794705795340300,3.84034033203125,-0.2136263840675354,-0.49199773710500444,0.3739074738513678
1772794705805384400,3.850384521484375,-0.2664823604643345,-0.5673535684710368,0.3934653570845723
1772794705815429000,3.86042919921875,-0.2703933964282274,-0.5721814270189032,0.3745188106827438
1772794705825473300,3.870473388671875,-0.24424071803987024,-0.5539110263129696,0.3640752311449498
1772794705835518500,3.8805185546875,-0.2124187618434429,-0.5535932290680706,0.3956053647879511
1772794705845562000,3.89056201171875,-0.2584936997979879,-0.6062657386567444,0.42174248028099537
1772794705855606300,3.900606201171875,-0.3893056070566177,-0.6570265694051981,0.3958740987267345
1772794705865651500,3.9106513671875,-0.5351321280956268,-0.7393785432688892,0.33645511055253446
1772794705875695000,3.920695068359375,-0.6379688177138566,-0.8520714409910142,0.23922084405124186
1772794705885740300,3.930740234375,-0.7476087576061486,-0.9780838390134274,0.0684283701904118
1772794705895784400,3.940784423828125,-0.860329127857089,-1.1653599762938915,-0.20641557590588927
1772794705905829400,3.950829345703125,-0.9890782573670148,-1.3303781045369802,-0.487827283019945
1772794705915873300,3.960873291015625,-1.095213404008746,-1.4375712357990442,-0.69252100356929
1772794705925918500,3.97091845703125,-1.2499433624714613,-1.4578665664613246,-0.8003236450318246
1772794705935963400,3.98096337890625,-1.4065209946274757,-1.2357932565659284,-0.7566765918113291
1772794705946007300,3.99100732421875,-1.550675783061981,-0.8484881026115269,-0.6888426803827286
1772794705956051500,4.001051513671875,-1.6779408114939927,-0.324592165736109,-0.4940029029149562
1772794705966095000,4.01109521484375,-1.7370312983661889,0.14040866070874033,-0.2294808827381581
1772794705976139300,4.02113916015625,-1.6746458616018294,0.5340991683186963,-0.013170812544599175
1772794705986184400,4.031184326171875,-1.5316940192162989,0.8925492895908653,0.19350969790779052
1772794705996228000,4.04122802734375,-1.302363285538554,1.150343170556426,0.39882191568166014
1772794706006273300,4.051273193359375,-0.995786230573058,1.3111473343662916,0.6087385585110634
1772794706016317400,4.0613173828125,-0.691663583022356,1.362243169222772,0.7810254356481134
1772794706026361300,4.071361328125,-0.42104514566659923,1.345781717634946,0.8768170290604234
1772794706036406300,4.08140625,-0.07935118461251259,1.3053154133424163,0.8925855299480259
1772794706046450400,4.091450439453125,0.26735446712374683,1.2106187755599618,0.7975715698447078
1772794706056495400,4.101495361328125,0.5453647682964802,1.0952257520336657,0.647477819815278
1772794706066539300,4.111539306640625,0.7140127774745225,0.9687837304223328,0.5595205002252012
1772794706076584400,4.12158447265625,0.7832453036546707,0.8626534791514276,0.5341982082463801
1772794706086628000,4.131628173828125,0.8289233512461185,0.7842810764431953,0.44494668412730093
1772794706096672300,4.14167236328125,0.9029138856083154,0.6718114660829305,0.2054904238849878
1772794706106717400,4.151717529296875,0.9359048855841159,0.5410887714777142,0.04659633148014545
1772794706116761000,4.161760986328125,0.9387895011097193,0.4302785091644153,-0.026194837029650805
1772794706126806300,4.17180615234375,0.9307406346887349,0.3683365783838555,-0.040162791301310063
1772794706136850400,4.181850341796875,0.9884802914738654,0.32649514981321986,-0.02697173968628049
1772794706146895400,4.191895263671875,1.0148065728634594,0.2924153316874057,-0.009668795773014426
1772794706156939300,4.201939208984375,1.0065776737004517,0.24161815098393707,0.022888269764930008
1772794706166983400,4.2119833984375,0.9734586634308099,0.2136481575079262,0.025540757035091517
1772794706177028400,4.2220283203125,0.9359007939308881,0.2222871353091672,0.059220762188360095
1772794706187072300,4.232072265625,0.9008867636948823,0.23020945274103433,0.14367080430984497
1772794706197117400,4.242117431640625,0.9041548255801201,0.25851591162979604,0.2487115067783743
1772794706207161300,4.252161376953125,0.9391022203207016,0.28623602199796583,0.33836284386999904
1772794706217205200,4.262205322265625,0.9708820909410715,0.3262474951950833,0.373150298808515
1772794706227250400,4.27225048828125,0.90693364264369,0.37642584988046435,0.4259242229450494
1772794706237294000,4.282294189453125,0.770215726211667,0.375529156769067,0.4424621738351881
1772794706247339300,4.29233935546875,0.5854711532354354,0.3501815111532807,0.3988878205247223
1772794706257383400,4.302383544921875,0.4122638733178377,0.3197835233453661,0.3449447795435786
1772794706267428400,4.312428466796875,0.2654360662817955,0.22898730880124493,0.28148177667558194
1772794706277472300,4.32247216796875,0.16201368573009967,0.11527189963096753,0.23964761809594928
1772794706287516400,4.332516357421875,0.12091712071001529,-0.010117617252748458,0.16368366476893423
1772794706297561300,4.342561279296875,0.10607435636520385,-0.14968246581479905,0.10896613228395581
1772794706307605200,4.352605224609375,0.13575462435781954,-0.27351196684017776,0.07908917267546058
1772794706317650400,4.362650390625,0.13396364928781984,-0.39324725735448296,0.05668941707983613
1772794706327694300,4.3726943359375,0.09810206231176853,-0.500751281196624,0.04989508076459169
1772794706337738200,4.38273828125,0.023171032229065892,-0.6063042440362274,0.01895560649111867
1772794706347783400,4.392783447265625,-0.03285129924416542,-0.7000437272243202,0.005028495686501265
1772794706357827300,4.402827392578125,-0.08255553361177444,-0.7887760497748851,-0.020869915679842234
1772794706367872300,4.412872314453125,-0.14195932421684265,-0.8599615366537123,0.00648132484331727
1772794706377916400,4.42291650390625,-0.12083236503601073,-0.9213190186098218,0.031083558919280767
1772794706387961300,4.43296142578125,-0.05287000492215156,-0.9451187041312455,0.04948576931133866
1772794706398005200,4.443005126953125,0.08189268578886985,-0.9405750693522393,0.09613485389202833
1772794706408049400,4.45304931640625,0.21778467279076574,-0.9298677973769605,0.17077837227024137
1772794706418094300,4.46309423828125,0.22965046715140341,-0.9081815968781709,0.16918518479466438
1772794706428138200,4.47313818359375,0.22778233519196509,-0.8681553645033389,0.13165339958406985
1772794706438183400,4.483183349609375,0.21889526438117027,-0.7945259185384959,0.0816850343875587
1772794706448227300,4.493227294921875,0.1715630198419094,-0.757971380862221,-0.035088849037885665
1772794706458271200,4.503271240234375,0.1482388428777456,-0.6854094910636543,-0.1013815223738551
1772794706468316400,4.51331640625,0.09919570276737212,-0.6601455051433295,-0.10781360124796628
1772794706478360300,4.5233603515625,0.028723990181088444,-0.5930925149593502,-0.08595978909730911
1772794706488405200,4.5334052734375,-0.048996962881088256,-0.4950071115214377,-0.0684695059183985
1772794706498449400,4.543449462890625,-0.12763152365684508,-0.41676019835639744,-0.04685571306869387
1772794706508494300,4.553494384765625,-0.18300211322307586,-0.39211470966059714,-0.07971607240214944
1772794706518538200,4.563538330078125,-0.23426643651425838,-0.4216589667160064,-0.13639789069741964
1772794706528582400,4.57358251953125,-0.23400983140468595,-0.4696181840471923,-0.14568996211253105
1772794706538627300,4.58362744140625,-0.17073124519288538,-0.5069204713508486,-0.1305291447944939
1772794706548671200,4.593671142578125,-0.1277437518596649,-0.5563294856315478,-0.11861476205177604
1772794706558716400,4.60371630859375,-0.16654548394083976,-0.619214579013735,-0.10175422814376651
1772794706568760300,4.61376025390625,-0.21010697776973247,-0.6683619101509451,-0.09848784675896168
1772794706578805200,4.62380517578125,-0.2510299397885799,-0.6732851918973028,-0.09527363395281135
1772794706588849400,4.633849365234375,-0.3044610857248306,-0.6767470958542078,-0.06466653343886136
1772794706598893300,4.643893310546875,-0.311877499461174,-0.6874602130483836,0.009109116063639521
1772794706608938200,4.653938232421875,-0.3567500758886337,-0.6703413935303688,0.08245470358580351
1772794706618982400,4.663982421875,-0.414719449776411,-0.6157870157178491,0.1705018934164196
1772794706629027300,4.67402734375,-0.4514034590512514,-0.5375641775481402,0.23823840888515113
1772794706639071200,4.6840712890625,-0.4347323102355003,-0.4697937232771888,0.3141919869486242
1772794706649116200,4.6941162109375,-0.40605215919613835,-0.43227782975547013,0.41404242729768154
1772794706659160300,4.704160400390625,-0.3878939866930246,-0.3704840752739459,0.3982637703422457
1772794706669204200,4.714204345703125,-0.43534138204455375,-0.26256074830750004,0.34360761265568435
1772794706679249400,4.72424951171875,-0.5307224949598313,-0.16525495093995704,0.32107977370098234
1772794706689293300,4.734293212890625,-0.6205208393067121,-0.09580163988228886,0.40903592424727975
1772794706699338200,4.744338134765625,-0.6723007109045982,-0.18217605592878533,0.4275757164791226
1772794706709382400,4.75438232421875,-0.6432289301991463,-0.24653832745775578,0.2195821506667882
1772794706719426300,4.76442626953125,-0.5373474660575389,-0.30472364565115423,-0.05618650905899703
1772794706729471200,4.77447119140625,-0.4680284306377172,-0.4582336703974753,-0.23320041471794245
1772794706739515400,4.784515380859375,-0.37044191663265225,-0.5213950965030119,-0.26382388184480365
1772794706749560300,4.794560302734375,-0.34711423253715035,-0.4796929302725941,-0.19145510346554218
1772794706759604200,4.804604248046875,-0.430633642745018,-0.32971568276230245,-0.06308415961824357
1772794706769649200,4.814649169921875,-0.5073427884161472,0.027499343756958842,0.21076463796086609
1772794706779693300,4.824693359375,-0.5455389558196068,0.3867839796245098,0.5055523978680372
1772794706789737200,4.8347373046875,-0.4967483291655779,0.7579287838295101,0.792706813352555
1772794706799782400,4.844782470703125,-0.3884779240608215,1.0564866368599235,1.107172137349844
1772794706809826300,4.854826416015625,-0.32077275357842444,1.2919878758661447,1.4529451844111083
1772794706819871500,4.86487158203125,-0.2608610134512186,1.332890964140743,1.6345318778783082
1772794706829915400,4.874915283203125,-0.17280395981371402,1.3345911921873688,1.7458417968094349
1772794706839960300,4.884960205078125,-0.152270290350914,1.3390715524718164,1.8270836174741387
1772794706850004200,4.895004150390625,-0.156222242847085,1.3465636617928742,1.913484720598161
1772794706860048400,4.90504833984375,-0.17230594716370104,1.346545541614294,1.9152613748818634
1772794706870093300,4.91509326171875,-0.1297170977592468,1.3183321313038467,1.8953098892211913
1772794706880137200,4.92513720703125,-0.02283259405493736,1.2319830506280063,1.8556947949305176
1772794706890182100,4.93518212890625,0.0389648136883974,1.1516756612692027,1.7977805122308432
1772794706900226300,4.945226318359375,0.028627544069290158,1.066993856218457,1.6929997028075157
1772794706910270200,4.955270263671875,0.017177344772219657,0.9728648622561246,1.4768486225679516
1772794706920315400,4.9653154296875,0.029084055665135382,0.8907476469963789,1.2606518034905194
1772794706930358500,4.975358642578125,0.06826689601838588,0.7488694982569665,1.1196880661822854
1772794706940403500,4.985403564453125,0.19500234761834143,0.5646536253299563,1.0043165969006718
1772794706950447400,4.995447265625,0.3148392718762159,0.49460569111369546,0.9298040844909846
1772794706960492300,5.0054921875,0.417957116523385,0.41614407575204965,0.8852718459337949
1772794706970536400,5.015536376953125,0.5271387912541627,0.3161961663778871,0.8617822492748498
1772794706980580400,5.025580322265625,0.595748217099905,0.3563572771787643,0.9789068458341061
1772794706990625300,5.035625244140625,0.5682558145403862,0.300762961859256,1.0478830591656267
1772794707000669200,5.045669189453125,0.5016320095539093,0.1677974567633122,1.0360986594781278
1772794707010714400,5.05571435546875,0.5381003302514553,0.3251208657853305,1.1224718516819179
1772794707020758300,5.06575830078125,0.525993128350377,0.541091840217635,1.2595597704701125
1772794707030803500,5.075803466796875,0.5133212783038615,0.7340634126607328,1.4535314598664641
1772794707040847400,5.085847412109375,0.48700902543962,0.8282965245846658,1.5094890555404126
1772794707050891500,5.0958916015625,0.37606793982088565,0.8454895053174346,1.5274968597874043
1772794707060936400,5.1059365234375,0.2068675574570894,0.85723386525549,1.5198663649089634
1772794707070980400,5.11598046875,0.07235095046162605,0.8813804645184427,1.4971084435254334
1772794707081025300,5.126025390625,0.009563947159051895,0.89425185572505,1.5103976948179303
1772794707091069400,5.1360693359375,-0.01787175677716732,0.8954091360013932,1.543004079390317
1772794707101113300,5.14611328125,0.002358545824885368,0.9019281625065952,1.6021959808103738
1772794707111158300,5.156158203125,0.057231707262992856,0.9540076746381819,1.6389537859737873
1772794707121202400,5.166202392578125,0.014960837766528129,0.9539249647907913,1.6913048815883696
1772794707131247400,5.176247314453125,-0.08069558495879173,0.9545957767244427,1.6781031624488532
1772794707141291300,5.186291259765625,-0.19586568644940852,0.9596753450110554,1.576352514501661
1772794707151336400,5.19633642578125,-0.2883329577445984,0.9437366021230816,1.4487676064655184
1772794707161380400,5.20638037109375,-0.2962883006632328,0.8926040885180234,1.3331063604570925
1772794707171424500,5.216424560546875,-0.25752982320189477,0.7973520088098943,1.2366568876579402
1772794707181469400,5.226469482421875,-0.22780688511133193,0.710652215000242,1.152649986194074
1772794707191513300,5.236513427734375,-0.2923661587834358,0.6290863500129431,1.0750227027647197
1772794707201558300,5.246558349609375,-0.41279169658422465,0.5894466327376663,0.9907074660040438
1772794707211602400,5.2566025390625,-0.5786936219245195,0.6332176045987755,0.9356732687853276
1772794707221647400,5.2666474609375,-0.7209767712682486,0.6681045743890106,0.9540629119567573
1772794707231691300,5.276691162109375,-0.8139806336581706,0.7234373161628842,1.0214379737019539
1772794707241735400,5.2867353515625,-0.9031430181890726,0.7856286916598677,1.1255439526036382
1772794707251780400,5.2967802734375,-0.9556763385027647,0.860170430164039,1.2960970647506416
1772794707261824300,5.30682421875,-1.00846451036036,0.9327183645024895,1.4178219947122037
1772794707271869400,5.316869384765625,-1.0397603968560696,0.99163079139404,1.519204978390783
1772794707281913300,5.326913330078125,-1.0021300466418266,1.0217683747000992,1.5659430564291774
1772794707291957500,5.33695751953125,-0.8834621661633253,0.9610146307907999,1.6016368856228886
1772794707302002400,5.34700244140625,-0.7070891156911849,0.8623464590288699,1.6511629869446158
1772794707312046300,5.35704638671875,-0.5217646970003843,0.7701455105196684,1.6512512497499585
1772794707322091300,5.36709130859375,-0.3653314417511225,0.6725835464339703,1.6421246710948645
1772794707332135400,5.377135498046875,-0.23864625903367995,0.6213500566724688,1.6423939895555375
1772794707342180400,5.387180419921875,-0.15918401526212692,0.5803904159050435,1.5965777025371788
1772794707352224300,5.397224365234375,-0.1415215173214674,0.5900085044041276,1.5140056561820208
1772794707362268400,5.407268310546875,-0.14523966106176375,0.5729113121960312,1.374902744309604
1772794707372313300,5.417313232421875,-0.23150398606359956,0.5180108243595808,1.2339156261257826
1772794707382357200,5.427357177734375,-0.3209270673573017,0.4443387813620269,1.0939385617673396
1772794707392402400,5.43740234375,-0.36850714917778965,0.3996718105092644,0.9690032914571464
1772794707402446300,5.4474462890625,-0.36567630966603754,0.3975728654686361,0.9407349360890686
1772794707412490200,5.457490234375,-0.4247837476730346,0.5089105491895228,0.9605402912773191
1772794707422535400,5.467535400390625,-0.4771422959417104,0.6664997695408761,1.0099335599996149
1772794707432579300,5.477579345703125,-0.45745793678462504,0.7687759757321327,1.036730819901824
1772794707442624300,5.487624267578125,-0.3931184433430433,0.8438218643661588,1.0328352737680078
1772794707452668400,5.49766845703125,-0.2638958511024713,0.9041251610942185,1.0791786534003913
1772794707462713300,5.50771337890625,-0.0812801068484783,0.9015056993108242,1.1512510791815818
1772794707472757200,5.51775732421875,0.10490355902016162,0.9201710906837135,1.2584582389689982
1772794707482801400,5.527801513671875,0.19586977810263634,0.9550077915914356,1.370323453695327
1772794707492846300,5.537846435546875,0.20715514222681522,1.0590401938002556,1.4382023733094333
1772794707502890200,5.54789013671875,0.22857377783060073,1.257143356978148,1.4346288987368345
1772794707512935400,5.557935302734375,0.2358078207373619,1.4269623096317052,1.410519855005294
1772794707522979300,5.567979248046875,0.22238544458448886,1.541751595111191,1.355389357805252
1772794707533024300,5.578024169921875,0.19331950909793374,1.6202178135827183,1.2690562053509056
1772794707543068400,5.588068359375,0.14130641326606272,1.6790914428338408,1.1957307107686996
1772794707553112300,5.5981123046875,0.12001754152178763,1.737566135895252,1.1036401638314128
1772794707563157200,5.6081572265625,0.09097147977948188,1.7505227942325174,1.014476756387204
1772794707573201400,5.618201416015625,0.061545478808879846,1.7726742741554975,0.8889153170026838
1772794707583246600,5.62824658203125,0.11383914514780044,1.650283135370165,0.7726667726255952
1772794707593290200,5.638290283203125,0.18406652758419512,1.4799769837215542,0.5662659558974206
1772794707603334400,5.64833447265625,0.2291501164138317,1.2196448164500295,0.405664913444221
1772794707613379300,5.65837939453125,0.29919980419576164,0.9646918579988181,0.22799729311689734
1772794707623423200,5.66842333984375,0.34491876831948753,0.7656617161691188,0.07343713826313615
1772794707633468400,5.678468505859375,0.3860778771817684,0.6293146788761019,-0.06528598051145672
1772794707643512300,5.68851220703125,0.39216099648773667,0.5104834245294332,-0.12085216571502387
1772794707653557200,5.69855712890625,0.3673983111530542,0.441236650628224,-0.13605631071813404
1772794707663601400,5.708601318359375,0.28597148931026456,0.41058490725494917,-0.11875300147868692
1772794707673645300,5.718645263671875,0.14975976883471012,0.33710137256681916,-0.170222345822677
1772794707683690200,5.728690185546875,-0.05246551577448844,0.13204787879437208,-0.09826302502714097
1772794707693734400,5.738734375,-0.17961188626289368,-0.021278715676441788,-0.4256820847522467
1772794707703779600,5.748779541015625,-0.129155372223258,-0.12001162323765456,-0.7245218234639614
1772794707713823200,5.7588232421875,-0.14358838672339916,-0.38203283957466483,-0.6943481459312141
1772794707723868400,5.768868408203125,-0.11995558220148086,-0.4368398039087653,-0.6099234574466943
1772794707733912600,5.77891259765625,-0.2010954037964344,-0.292101443432644,-0.4837069882195443
1772794707743956200,5.788956298828125,-0.3724579326301813,-0.15753694217484443,-0.34525209192708134
1772794707754001400,5.79900146484375,-0.5069353766590357,-0.01051876366585493,-0.24620792645961045
1772794707764045300,5.80904541015625,-0.551062687677145,0.17414532795269042,-0.11463153763450681
1772794707774090200,5.81909033203125,-0.46510114501416683,0.3493678201502189,0.1042910531450063
1772794707784134400,5.829134521484375,-0.3069353668838739,0.43425643635205924,0.39436164833717047
1772794707794178300,5.83917822265625,-0.10684183360636233,0.4717222801869735,0.6515821133289486
1772794707804223200,5.84922314453125,0.09019406566619873,0.554436219230853,0.8071131590414792
1772794707814267400,5.859267333984375,0.2556190211445093,0.6232147545658051,0.8642030466809868
1772794707824312600,5.8693125,0.4045084368854761,0.6326749490894377,0.8486413204118609
1772794707834356200,5.879356201171875,0.4936877725511789,0.5578010560214519,0.7560833751585334
1772794707844401400,5.8894013671875,0.5397913520783185,0.4377836971627548,0.6217220317900181
1772794707854445600,5.899445556640625,0.5361363367021084,0.2867556254252791,0.5050526316523551
1772794707864489200,5.9094892578125,0.4993722479283809,0.1656655958337709,0.353517012251541
1772794707874534400,5.919534423828125,0.43529988099038597,0.0633281244419515,0.18504487109705806
1772794707884578600,5.92957861328125,0.30359599332809445,-0.04417184427957981,-0.007343129304423928
1772794707894623200,5.939623291015625,0.12651157971620558,-0.1511160422818735,-0.18444741666056214
1772794707904667400,5.94966748046875,-0.11555004071891307,-0.2903700165301561,-0.3877909647099674
1772794707914711300,5.959711181640625,-0.39889001248180866,-0.3747028620127588,-0.5627214151583612
1772794707924756200,5.969756103515625,-0.6724006641477346,-0.4007912429932505,-0.687711630526185
1772794707934801200,5.97980126953125,-0.876362563291192,-0.41289873715527353,-0.7790164339132607
1772794707944846000,5.98984619140625,-0.9730845694214105,-0.3883882730159908,-0.8579683170098811
1772794707954890000,5.999889892578125,-0.9649304890602827,-0.4014137588057667,-0.9873160700000821
1772794707964935200,6.00993505859375,-0.9080506639748811,-0.40854879831746216,-1.0204830110646783
1772794707974979000,6.01997900390625,-0.8721084129780531,-0.42787111922912296,-0.988564024234563
1772794707985023000,6.03002294921875,-0.8314175061494111,-0.46452619467042383,-0.8949770281944424
1772794707995068200,6.040068115234375,-0.7380711139321326,-0.4456161078214645,-0.7546428209614008
1772794708005112000,6.050112060546875,-0.5563672238260507,-0.40397418387830253,-0.5657211084309965
1772794708015157000,6.060156982421875,-0.27991525801122186,-0.3170835436716676,-0.3964036755587905
1772794708025201200,6.070201171875,0.002381342178583145,-0.22906526940828187,-0.23489961985126137
1772794708035245000,6.0802451171875,0.24542554391026494,-0.18417112046983092,-0.14090762320682407
1772794708045290000,6.0902900390625,0.3807826933830976,-0.2011882879779674,-0.02047711696997285
1772794708055334100,6.100334228515625,0.5065682969123125,-0.23282365382742135,0.025299641755595802
1772794708065379000,6.110379150390625,0.6145458565503359,-0.30358503354266286,0.00020867431461811065
1772794708075423000,6.120423095703125,0.6734726772934198,-0.35772841940149663,-0.026553441208973527
1772794708085468200,6.13046826171875,0.6755939072310924,-0.45182183059379455,-0.12986571244969963
1772794708095512000,6.140511962890625,0.601880436244607,-0.5366000817563384,-0.22132819061651823
1772794708105556000,6.150555908203125,0.5604384187877178,-0.5815313295684754,-0.35748686573058364
1772794708115601200,6.16060107421875,0.5803600938320159,-0.61715143593885,-0.4600269835550338
1772794708125645000,6.17064501953125,0.59053545088768,-0.6324580184031278,-0.5226461560100316
1772794708135690200,6.180690185546875,0.5440647916138172,-0.6521744531989098,-0.5692046396978199
1772794708145734100,6.190734130859375,0.4466138866871595,-0.6241450942184775,-0.6115514970399439
1772794708155779000,6.200779052734375,0.376440280264616,-0.5749389455661177,-0.6859227743480354
1772794708165823200,6.2108232421875,0.3735632635235786,-0.5113336116179824,-0.7385008105862886
1772794708175867100,6.2208671875,0.38520752408802506,-0.4926423186188563,-0.7324694214675576
1772794708185912000,6.230912109375,0.3964221610635519,-0.5082773293199018,-0.6787691762663424
1772794708195956000,6.2409560546875,0.3763356508463621,-0.5077525017281994,-0.6323322731316089
1772794708206001200,6.251001220703125,0.3587327741384506,-0.49015539717394857,-0.6130049837838858
1772794708216045000,6.261045166015625,0.3363081763625145,-0.5256470183264463,-0.6275961845204234
1772794708226089000,6.2710888671875,0.30302725352942944,-0.5770958678716793,-0.5560828539267182
1772794708236134100,6.281134033203125,0.2904886744737625,-0.6718309014357626,-0.4719379322316497
1772794708246178000,6.291177978515625,0.18684008395075796,-0.7004108069710433,-0.4065357779946178
1772794708256223200,6.30122314453125,-0.014096914413571356,-0.6847818606846034,-0.2808439171634614
1772794708266267100,6.31126708984375,-0.1197790565907955,-0.6990427334882319,-0.17496895582787692
1772794708276312000,6.32131201171875,-0.0663619391798973,-0.7650098281316459,-0.08012889098674059
1772794708286356200,6.331356201171875,0.11605565215349196,-0.7069590595707297,-0.19690021712891756
1772794708296400100,6.341400146484375,0.39184009397029873,-0.6896869491871446,-0.29338907209038734
1772794708306445000,6.351445068359375,0.6667512600839137,-0.7907013918142766,-0.2637712748747319
1772794708316489200,6.3614892578125,0.9004542174965142,-0.8606157627787441,-0.1081803156685084
1772794708326534100,6.3715341796875,1.0970382813483477,-0.8299552515771239,0.06560227991901338
1772794708336578000,6.381578125,0.9103314683884381,-0.9564799099706113,0.21790932208374142
1772794708346622000,6.3916220703125,0.7461638194948434,-0.9455164712771773,0.18553002426549792
1772794708356667100,6.401667236328125,0.5954314062356949,-0.8373701309435069,0.0346435164231807
1772794708366711000,6.4117109375,0.44202305176556106,-0.710782563381642,-0.09264321238398551
1772794708376756200,6.421756103515625,0.3086263887107372,-0.60179900503885,-0.1665842085160315
1772794708386800000,6.431800048828125,0.1461918472200632,-0.5617847918953747,-0.15594466801472007
1772794708396845000,6.441844970703125,-0.0949836380302906,-0.6651579995431005,-0.0478138175111264
1772794708406889200,6.45188916015625,-0.26247897004187104,-0.5906184529960156,0.00882854555658996
1772794708416933000,6.46193310546875,-0.33432314002513885,-0.30687198279146105,-0.19549071565717457
1772794708426978000,6.47197802734375,-0.4129986173331737,-0.056820888839242974,-0.4474757642135024
1772794708437022200,6.482022216796875,-0.4714227492511272,0.15840320361535995,-0.5935726266264915
1772794708447067100,6.492067138671875,-0.4868471128761768,0.2917314776090905,-0.6767856012336909
1772794708457111000,6.502111083984375,-0.5778548330128193,0.36758670986462383,-0.629237083595246
1772794708467155200,6.5121552734375,-0.7015975325375795,0.2016147149628028,-0.4042601612128317
1772794708477200100,6.5222001953125,-0.8293541438788176,-0.03110137542047305,-0.19744243424683808
1772794708487244000,6.532244140625,-0.9795184018611908,-0.14996634252378716,-0.26552579039186236
1772794708497289200,6.542289306640625,-1.0698889931380748,-0.2077760140715167,-0.4732049564927816
1772794708507333000,6.5523330078125,-1.1481038671970367,-0.2557368936368264,-0.7237609951592981
1772794708517378000,6.5623779296875,-1.2236767023146151,-0.3546897092927247,-0.9104663468144834
1772794708527422200,6.572422119140625,-1.2905810778081417,-0.40129144760034974,-0.969133493708074
1772794708537466000,6.582466064453125,-1.3172317688465118,-0.37600645542461425,-0.8262984095700084
1772794708547511000,6.592510986328125,-1.355353701969981,-0.25391956028286367,-0.6727680361554026
1772794708557555200,6.60255517578125,-1.3612573730558155,-0.1601392701603472,-0.4508708134792745
1772794708567600000,6.61260009765625,-1.246679976761341,-0.047129890367574985,-0.3087678430080414
1772794708577644000,6.62264404296875,-0.9851976165413856,0.2703586904410273,-0.3598958265684545
1772794708587688200,6.632688232421875,-0.781405813267827,0.386445797178708,-0.22398951878026127
1772794708597733000,6.642733154296875,-0.6305208397954702,0.43870066587720064,-0.000558656796067953
1772794708607777000,6.652777099609375,-0.3607347616106272,0.49100006783716377,0.24721973385065793
1772794708617822200,6.662822265625,-0.08377776888310909,0.5519392513159662,0.42499914398938415
1772794708627866000,6.6728662109375,0.043435237100720406,0.5594657012980431,0.600924596824497
1772794708637911000,6.6829111328125,0.16746435235142706,0.6432363828532397,0.647489948644489
1772794708647955200,6.692955078125,0.25806582977473735,0.6951900766480714,0.630020342927426
1772794708657999000,6.7029990234375,0.31283377727270123,0.6929601987041533,0.594173368998617
1772794708668044000,6.7130439453125,0.2859615524381399,0.651661608305946,0.5981451952390372
1772794708678088200,6.723088134765625,0.15529226852059363,0.5412183892067521,0.6520502422973513
1772794708688133000,6.733133056640625,-0.025946926683187484,0.41413777743093666,0.7258173431672156
1772794708698177000,6.743177001953125,-0.17976912265121936,0.34985841667875645,0.7750482609346508
1772794708708221200,6.75322119140625,-0.2614361829906702,0.3675730101328343,0.7437232944749296
1772794708718266000,6.76326611328125,-0.2813894222170114,0.4042309351183474,0.7188635785065591
1772794708728310000,6.77331005859375,-0.26687866630554197,0.4774073035534471,0.6828039847403764
1772794708738355200,6.783355224609375,-0.25876257986724377,0.5326234332103282,0.6955646821141243
1772794708748399000,6.793399169921875,-0.22139292641580102,0.6136711926076561,0.749698715622723
1772794708758444000,6.803444091796875,-0.09603694647550583,0.7527836760260165,0.8849326771073043
1772794708768488200,6.81348828125,-0.014732874229550361,1.0546016998961567,0.7209820319652557
1772794708778532000,6.823531982421875,0.014366379004716873,1.0916840608388185,0.7327256612509488
1772794708788577000,6.833576904296875,0.05589139856994152,1.040655445999652,0.8361609012842178
1772794708798621200,6.84362109375,0.16073825896680355,1.0054149865966289,0.884076206408441
1772794708808666000,6.853666015625,0.2937099746078253,0.8995560265477747,0.8566879948757589
1772794708818710000,6.8637099609375,0.37707039486169813,0.7152478722274302,0.8206152493670582
1772794708828754200,6.873754150390625,0.44144028344154357,0.5507729840155691,0.7464413212619722
1772794708838799000,6.883799072265625,0.47805590365529055,0.4863286419600248,0.6397765977881849
1772794708848843000,6.893843017578125,0.5177390947461128,0.3973621453274041,0.47934170568212864
1772794708858888200,6.90388818359375,0.536280713608861,0.30475246988683935,0.3952180459707975
1772794708868932000,6.91393212890625,0.49863984200060363,0.22184607701078057,0.2925646039649844
1772794708878977000,6.92397705078125,0.37230244980752464,0.20694054962806402,0.21355536465793848
1772794708889021200,6.934021240234375,0.20651392171382904,0.23439736941754816,0.15913433090150356
1772794708899065000,6.944065185546875,0.019493220499157905,0.3409695192370564,0.14668752178251743
1772794708909110000,6.954110107421875,-0.03496668396294117,0.4460856980945915,0.16489041021019218
1772794708919154200,6.964154296875,0.01886076781451702,0.5538709500309079,0.23437778793424366
1772794708929199400,6.974199462890625,0.13736732025146484,0.6171967363853007,0.31497122769281266
1772794708939243300,6.9842431640625,0.30001112057864665,0.6683883597664535,0.3610807985693216
1772794708949287400,6.994287353515625,0.4625573057502508,0.738330787781626,0.40631402500271796
1772794708959332400,7.004332275390625,0.5759896236628294,0.7823658904716372,0.4358467012181878
1772794708969376300,7.014376220703125,0.5861293248832226,0.771154906757921,0.46628027179613707
1772794708979421400,7.02442138671875,0.5500421124577521,0.7782677344378084,0.49525414508506654
1772794708989465600,7.034465576171875,0.5284218168020248,0.808016245361045,0.5112815891698003
1772794708999510500,7.044510498046875,0.6247931097984314,0.75343439501971,0.5783712581023573
1772794709009554400,7.054554443359375,0.8061129690229892,0.8309117485843598,0.47254415449649095
1772794709019598600,7.0645986328125,0.8589970024704933,0.7402220814209431,0.43396614816859364
1772794709029643500,7.0746435546875,0.8249217143893242,0.5110362361066043,0.5763549498438835
1772794709039687400,7.0846875,0.8363678220331668,0.45967217876799404,0.516372628698498
1772794709049732400,7.094732421875,0.7823971623927355,0.36082989254817366,0.3963553794376552
1772794709059776500,7.104776611328125,0.730782125967741,0.21938962376937268,0.39175650734007356
1772794709069820400,7.1148203125,0.7047422603040934,0.07904036509767175,0.3811050572052598
1772794709079865300,7.124865234375,0.6173860484123229,-0.04787723813615739,0.25061712120398877
1772794709089909500,7.134909423828125,0.49472354533970353,-0.13463402283005416,0.1378416597649455
1772794709099954400,7.144954345703125,0.4114396974533796,-0.20358429800271988,0.10845789050087332
1772794709109998600,7.15499853515625,0.3242769623070955,-0.28244017337895927,0.10799757951274513
1772794709120043500,7.16504345703125,0.26626082666814327,-0.38522294085286557,0.0967544470950961
1772794709130087400,7.17508740234375,0.15896598859727382,-0.44542058524936434,0.07631736987456679
1772794709140131600,7.185131591796875,0.0384814140856266,-0.5040075065135956,0.0952564636223018
1772794709150176500,7.195176513671875,-0.03898994812965393,-0.5428447482995689,0.09442322766855359
1772794709160220400,7.205220458984375,-0.07656535328626632,-0.5672743292223662,0.10849296181425451
1772794709170265300,7.215265380859375,-0.11052607507705688,-0.6457289303213357,0.14295418047308922
1772794709180309500,7.2253095703125,-0.14838205074071883,-0.6551174478482454,0.1708117630831897
1772794709190353400,7.235353515625,-0.24749942757487295,-0.6125956723306327,0.213812700419873
1772794709200398300,7.2453984375,-0.32037703225910663,-0.5710934491191059,0.3093399438075721
1772794709210442500,7.2554423828125,-0.33279227719604965,-0.5179281875774264,0.35625805458799004
1772794709220487400,7.2654873046875,-0.2752472662001848,-0.45512821519542485,0.3492025831185281
1772794709230531300,7.27553125,-0.17696283305883406,-0.42598669372200965,0.3481926754236221
1772794709240576500,7.285576416015625,-0.04629588722884655,-0.48755741657000035,0.4750121520452201
1772794709250620400,7.295620361328125,0.04763502687811851,-0.5299169141979888,0.5241952851481735
1772794709260664600,7.30566455078125,-0.022169746232032776,-0.5269246370468288,0.4675280799001455
1772794709270709500,7.31570947265625,-0.20300445228815078,-0.47535468187257646,0.40890184953883285
1772794709280753400,7.32575341796875,-0.2310416292488575,-0.5342045283893123,0.4247780485846102
1772794709290798300,7.33579833984375,-0.26427345224320886,-0.6331329219900071,0.4291613782353699
1772794709300842500,7.345842529296875,-0.2563146021932363,-0.688882354805991,0.32409444534704085
1772794709310886400,7.355886474609375,-0.27524551263451574,-0.590060271123983,0.23583456261381505
1772794709320931300,7.365931396484375,-0.3622627018302679,-0.44241793283466246,0.3012197657160461
1772794709330975500,7.3759755859375,-0.5142956762939691,-0.26864096327032894,0.4507730521932244
1772794709341020400,7.3860205078125,-0.6146376264870166,-0.08642634716313331,0.5123249607428908
1772794709351064300,7.396064208984375,-0.5923123974323272,-0.005660911838524043,0.5139543155103922
1772794709361109500,7.406109619140625,-0.5611211403548717,0.008122004722431301,0.5701809373840689
