time,seconds_elapsed,z,y,x
1772794702028682800,0.073682861328125,-0.019071033224463463,-0.32112810015678406,-0.08714961260557175
1772794702038727400,0.0837275390625,-0.09035158157348633,-0.30495476722717285,0.044698212295770645
1772794702048771600,0.093771484375,-0.1466449499130249,-0.290867418050766,0.14032459259033203
1772794702058815700,0.103815673828125,-0.1773347556591034,-0.2795327305793762,0.18528512120246887
1772794702068860400,0.1138603515625,-0.18728619813919067,-0.2764357328414917,0.18432211875915527
1772794702078904600,0.123904541015625,-0.20880405604839325,-0.2098371982574463,0.1615840345621109
1772794702088949800,0.13394970703125,-0.21754588186740875,-0.1771887093782425,0.1419573277235031
1772794702098993700,0.14399365234375,-0.19001564383506775,-0.21024690568447113,0.11652315407991409
1772794702109038600,0.15403857421875,-0.13676227629184723,-0.22915907204151154,0.08933307975530624
1772794702119082800,0.164082763671875,-0.08017963916063309,-0.22095254063606262,0.05093932896852493
1772794702129126700,0.174126708984375,-0.009078032337129116,-0.19902408123016357,0.010045159608125687
1772794702139171600,0.184171630859375,-0.0025584292598068714,-0.1637209951877594,-0.013127191923558712
1772794702149215700,0.1942158203125,0.028286036103963852,-0.05251618102192879,-0.019667915999889374
1772794702159260400,0.204260498046875,0.04325065389275551,0.1503029763698578,-0.019532909616827965
1772794702169304600,0.2143046875,0.09267333149909973,0.264453262090683,0.013731837272644043
1772794702179349800,0.224349853515625,0.14754903316497803,0.3407210111618042,0.08321329951286316
1772794702189393400,0.234393310546875,0.18435952067375183,0.5103691816329956,0.17232108116149902
1772794702199437600,0.2444375,0.18435433506965637,0.5694413185119629,0.2252366989850998
1772794702209482800,0.254482666015625,0.1732763946056366,0.44658565521240234,0.233234703540802
1772794702219526700,0.264526611328125,0.17236335575580597,0.18662428855895996,0.23313072323799133
1772794702229571600,0.274571533203125,0.18885311484336853,-0.1843322217464447,0.2144893854856491
1772794702239615700,0.28461572265625,0.21879521012306213,-0.5458426475524902,0.18680790066719055
1772794702249659600,0.29465966796875,0.1858505755662918,-0.7218301892280579,0.14897289872169495
1772794702259704600,0.30470458984375,0.09567467868328094,-0.6858493685722351,0.08860305696725845
1772794702269748700,0.314748779296875,0.021401507779955864,-0.6252754926681519,0.005095378495752811
1772794702279793400,0.32479345703125,-0.007910769432783127,-0.5197330713272095,-0.12889595329761505
1772794702289837600,0.334837646484375,-0.010614676401019096,-0.3670460879802704,-0.3176751732826233
1772794702299882800,0.3448828125,0.019450487568974495,-0.1979599893093109,-0.5493215918540955
1772794702309926400,0.354926513671875,0.07674280554056168,-0.02468753233551979,-0.7858496904373169
1772794702319970600,0.364970458984375,0.12341615557670593,0.04490241780877113,-1.0131396055221558
1772794702330015700,0.375015625,0.15441587567329407,0.11546873301267624,-1.1838327646255493
1772794702340059400,0.385059326171875,0.14227746427059174,0.13788801431655884,-1.3161418437957764
1772794702350104600,0.3951044921875,0.10235907137393951,0.17705245316028595,-1.3749548196792603
1772794702360148700,0.405148681640625,0.1203087568283081,0.3172077536582947,-1.3554601669311523
1772794702370193700,0.415193603515625,0.18137477338314056,0.5677214860916138,-1.3007128238677979
1772794702380237600,0.425237548828125,0.2130446881055832,0.5620473027229309,-1.2425521612167358
1772794702390281700,0.43528173828125,0.2174045443534851,0.530218780040741,-1.1716279983520508
1772794702400326400,0.445326416015625,0.21677951514720917,0.5036140084266663,-1.0620641708374023
1772794702410370600,0.45537060546875,0.23240961134433746,0.5304754376411438,-0.9025466442108154
1772794702420415700,0.465415771484375,0.23918277025222778,0.6028342247009277,-0.7277664542198181
1772794702430459400,0.47545947265625,0.20219865441322327,0.5120957493782043,-0.5577403903007507
1772794702440503600,0.485503662109375,0.1463581770658493,0.4765917658805847,-0.3892751932144165
1772794702450548700,0.495548828125,0.10008734464645386,0.4165675640106201,-0.23977623879909515
1772794702460592400,0.50559228515625,0.0682244747877121,0.33315834403038025,-0.09787943959236145
1772794702470637600,0.515637451171875,0.06179320812225342,0.23128655552864075,0.06156587600708008
1772794702480681700,0.525681640625,0.13246119022369385,0.1927875280380249,0.25606223940849304
1772794702490726700,0.5357265625,0.20229780673980713,0.22017255425453186,0.4449317753314972
1772794702500770600,0.5457705078125,0.23766449093818665,0.20296917855739594,0.6039551496505737
1772794702510814700,0.555814697265625,0.23077994585037231,0.1699819266796112,0.716906726360321
1772794702520859600,0.565859619140625,0.176008939743042,0.11406875401735306,0.760373055934906
1772794702530903600,0.575903564453125,0.04643043875694275,-0.009022286161780357,0.7455145120620728
1772794702540948700,0.58594873046875,-0.12923502922058105,-0.16638889908790588,0.6817718744277954
1772794702550992400,0.595992431640625,-0.24952441453933716,-0.32148367166519165,0.582940399646759
1772794702561037600,0.60603759765625,-0.29238197207450867,-0.4129375219345093,0.4971262514591217
1772794702571081700,0.616081787109375,-0.3163094222545624,-0.44626113772392273,0.45510929822921753
1772794702581125400,0.62612548828125,-0.3258934020996094,-0.352267861366272,0.4568934142589569
1772794702591170600,0.636170654296875,-0.3581855893135071,-0.2202938348054886,0.4709314703941345
1772794702601214700,0.646214599609375,-0.43049511313438416,-0.10146955400705338,0.4690135419368744
1772794702611259600,0.656259765625,-0.5221738815307617,-0.01388511061668396,0.44865846633911133
1772794702621303600,0.666303466796875,-0.6025369167327881,0.035687074065208435,0.439064085483551
1772794702631348700,0.6763486328125,-0.6765243411064148,0.05688689649105072,0.4335513412952423
1772794702641392600,0.686392578125,-0.7465106248855591,0.02290715090930462,0.44298261404037476
1772794702651436500,0.6964365234375,-0.8112549781799316,-0.05989745259284973,0.4603240489959717
1772794702661481700,0.706481689453125,-0.8606598377227783,-0.16178391873836517,0.48444753885269165
1772794702671525600,0.716525634765625,-0.8907886743545532,-0.25447604060173035,0.49835458397865295
1772794702681570600,0.726570556640625,-0.871542751789093,-0.3211080729961395,0.48596659302711487
1772794702691614700,0.73661474609375,-0.8168454170227051,-0.2725495994091034,0.46787840127944946
1772794702701659600,0.74665966796875,-0.7019500136375427,-0.25714027881622314,0.4329630136489868
1772794702711703600,0.75670361328125,-0.5857216715812683,-0.35256239771842957,0.3563169836997986
1772794702721747700,0.766747802734375,-0.4580029249191284,-0.339298278093338,0.27592018246650696
1772794702731792600,0.776792724609375,-0.35233455896377563,-0.3396468758583069,0.1854986697435379
1772794702741836500,0.78683642578125,-0.262233167886734,-0.3141072392463684,0.09013976156711578
1772794702751881500,0.796881591796875,-0.19264823198318481,-0.2557925581932068,0.011688895523548126
1772794702761925600,0.806925537109375,-0.15809662640094757,-0.1916733682155609,-0.06180593743920326
1772794702771969500,0.816969482421875,-0.1488695740699768,-0.14387336373329163,-0.12485919892787933
1772794702782014700,0.8270146484375,-0.1581200212240219,-0.11410225927829742,-0.17901183664798737
1772794702792058600,0.83705859375,-0.15607072412967682,-0.09058547765016556,-0.22652208805084229
1772794702802103600,0.847103515625,-0.1430056393146515,-0.08267227560281754,-0.254528284072876
1772794702812147700,0.857147705078125,-0.1223570853471756,-0.07624766230583191,-0.2631151080131531
1772794702822192600,0.867192626953125,-0.12026619166135788,-0.08410010486841202,-0.26330357789993286
1772794702832236500,0.877236572265625,-0.13413460552692413,-0.08547402918338776,-0.26589909195899963
1772794702842280700,0.88728076171875,-0.14298075437545776,-0.0700867548584938,-0.2661204934120178
1772794702852325600,0.89732568359375,-0.13726188242435455,-0.04520351067185402,-0.2681330442428589
1772794702862369500,0.90736962890625,-0.13413548469543457,-0.022085681557655334,-0.2675183117389679
1772794702872414500,0.91741455078125,-0.1583947390317917,-0.012047428637742996,-0.2760066092014313
1772794702882458600,0.927458740234375,-0.21172069013118744,-0.05649483576416969,-0.29307106137275696
1772794702892503600,0.937503662109375,-0.27302584052085876,-0.10710208863019943,-0.316569447517395
1772794702902547700,0.947547607421875,-0.3382711410522461,-0.14800168573856354,-0.33923181891441345
1772794702912591600,0.957591552734375,-0.3907223641872406,-0.1775401383638382,-0.3508783280849457
1772794702922636800,0.96763671875,-0.42362114787101746,-0.19010211527347565,-0.3601316809654236
1772794702932680700,0.9776806640625,-0.4308870732784271,-0.16880081593990326,-0.36192771792411804
1772794702942725600,0.9877255859375,-0.41550299525260925,-0.14597097039222717,-0.3605795204639435
1772794702952769800,0.997769775390625,-0.38974863290786743,-0.12307657301425934,-0.36948806047439575
1772794702962814500,1.007814453125,-0.35100653767585754,-0.11330969631671906,-0.3869333863258362
1772794702972858600,1.017858642578125,-0.30655068159103394,-0.09638344496488571,-0.3982539474964142
1772794702982902800,1.02790283203125,-0.2588554918766022,-0.06280120462179184,-0.4067422151565552
1772794702992947500,1.037947509765625,-0.21409042179584503,-0.026310570538043976,-0.39925581216812134
1772794703002991600,1.04799169921875,-0.1700512021780014,0.006658250465989113,-0.38606196641921997
1772794703013036800,1.058036865234375,-0.12423364818096161,0.037047579884529114,-0.35502734780311584
1772794703023080700,1.068080810546875,-0.0820278748869896,0.06277957558631897,-0.3097538650035858
1772794703033124600,1.07812451171875,-0.03554479405283928,0.09217341244220734,-0.26763466000556946
1772794703043169800,1.088169677734375,0.018230020999908447,0.12381283938884735,-0.2220328152179718
1772794703053213700,1.098213623046875,0.08507536351680756,0.14388348162174225,-0.18084277212619781
1772794703063258600,1.108258544921875,0.13983070850372314,0.14340676367282867,-0.15268515050411224
1772794703073302800,1.118302734375,0.18602164089679718,0.1385347843170166,-0.1349216103553772
1772794703083347700,1.12834765625,0.21830867230892181,0.13266411423683167,-0.12688736617565155
1772794703093391600,1.1383916015625,0.23503918945789337,0.12234490364789963,-0.1331801414489746
1772794703103435800,1.148435791015625,0.24494865536689758,0.11871901154518127,-0.14944757521152496
1772794703113480400,1.15848046875,0.24523760378360748,0.1104632019996643,-0.16807851195335388
1772794703123524600,1.168524658203125,0.234572172164917,0.09628081321716309,-0.19346296787261963
1772794703133569800,1.17856982421875,0.2064417451620102,0.07502798736095428,-0.22410395741462708
1772794703143613700,1.18861376953125,0.171915203332901,0.04147050529718399,-0.25384584069252014
1772794703153658600,1.19865869140625,0.1352088451385498,0.01138344407081604,-0.28048357367515564
1772794703163702800,1.208702880859375,0.10155172646045685,-0.023725012317299843,-0.3022591471672058
1772794703173746700,1.21874658203125,0.06780894100666046,-0.046005550771951675,-0.314169317483902
1772794703183791600,1.22879150390625,0.02960502915084362,-0.057613156735897064,-0.33101651072502136
1772794703193835800,1.238835693359375,-0.0033409371972084045,-0.07558709383010864,-0.3493289351463318
1772794703203880700,1.248880615234375,-0.006948158144950867,-0.10868214070796967,-0.35503455996513367
1772794703213924600,1.258924560546875,0.01968345232307911,-0.12727366387844086,-0.3378334641456604
1772794703223969800,1.2689697265625,0.07362158596515656,-0.13560888171195984,-0.28874391317367554
1772794703234013700,1.279013671875,0.11847721040248871,-0.13580942153930664,-0.22173427045345306
1772794703244057600,1.2890576171875,0.16407743096351624,-0.12958113849163055,-0.14643092453479767
1772794703254102800,1.299102783203125,0.21558749675750732,-0.11087775230407715,-0.06635365635156631
1772794703264146700,1.309146728515625,0.2749062478542328,-0.08902306109666824,0.020857922732830048
1772794703274191600,1.319191650390625,0.33728042244911194,-0.06403648108243942,0.10527507215738297
1772794703284235800,1.32923583984375,0.3954016864299774,-0.044784922152757645,0.18520551919937134
1772794703294279700,1.33927978515625,0.4366724193096161,-0.038646865636110306,0.24904599785804749
1772794703304324600,1.34932470703125,0.46498551964759827,-0.036466218531131744,0.29594236612319946
1772794703314368800,1.35936865234375,0.4728628993034363,-0.017150308936834335,0.31560713052749634
1772794703324413700,1.36941357421875,0.48164668679237366,0.00923086330294609,0.31917425990104675
1772794703334457600,1.37945751953125,0.4895320236682892,0.05773315206170082,0.3122867941856384
1772794703344502800,1.389502685546875,0.499165415763855,0.0973958745598793,0.3065042793750763
1772794703354546700,1.399546630859375,0.4981643557548523,0.13044196367263794,0.30181577801704407
1772794703364590600,1.409590576171875,0.48752561211586,0.16227510571479797,0.289195716381073
1772794703374635800,1.4196357421875,0.4738486707210541,0.16212837398052216,0.2694401443004608
1772794703384679700,1.4296796875,0.4512825310230255,0.13239529728889465,0.24302102625370026
1772794703394724600,1.439724609375,0.4026324450969696,0.09472088515758514,0.2083088457584381
1772794703404768800,1.449768798828125,0.31603994965553284,0.06685744971036911,0.16490532457828522
1772794703414813700,1.459813720703125,0.20699550211429596,0.030293850228190422,0.11488049477338791
1772794703424857600,1.469857666015625,0.1192532554268837,0.045293789356946945,0.006580669898539782
1772794703434901800,1.47990185546875,0.07501495629549026,0.0781731829047203,-0.14350390434265137
1772794703444946700,1.48994677734375,0.0390058308839798,0.04097451642155647,-0.1879226118326187
1772794703454990600,1.499990478515625,0.00026056711794808507,-0.0028339503332972527,-0.09482542425394058
1772794703465035800,1.510035888671875,-0.01599963940680027,0.005099233705550432,0.08050522953271866
1772794703475079700,1.52007958984375,-0.010448546148836613,0.048126060515642166,0.2934550344944
1772794703485123600,1.53012353515625,0.011203907430171967,0.09486842155456543,0.5218414664268494
1772794703495168800,1.540168701171875,0.03996977582573891,0.10039421916007996,0.7548829913139343
1772794703505212700,1.550212646484375,0.06610670685768127,0.07055286318063736,0.9410985112190247
1772794703515257600,1.560257568359375,0.08194905519485474,0.04808510094881058,1.0451135635375977
1772794703525301800,1.5703017578125,0.10008426010608673,0.04365061596035957,1.0400179624557495
1772794703535346700,1.5803466796875,0.12157224118709564,0.0926320031285286,0.9475798606872559
1772794703545390600,1.590390625,0.13845758140087128,0.14004506170749664,0.7985488176345825
1772794703555434800,1.600434814453125,0.15049134194850922,0.1516638994216919,0.6280141472816467
1772794703565479700,1.610479736328125,0.15712766349315643,0.14896441996097565,0.48351776599884033
1772794703575523600,1.620523681640625,0.12868615984916687,0.12748974561691284,0.370529443025589
1772794703585568800,1.63056884765625,0.07991832494735718,0.09627451747655869,0.28958192467689514
1772794703595612700,1.64061279296875,0.020859267562627792,0.04100833460688591,0.2304629385471344
1772794703605657600,1.65065771484375,-0.03700188174843788,-0.03492163494229317,0.18391093611717224
1772794703615701800,1.66070166015625,-0.09405557811260223,-0.10939346998929977,0.14429454505443573
1772794703625745700,1.67074560546875,-0.14093489944934845,-0.1543956696987152,0.12564852833747864
1772794703635790600,1.68079052734375,-0.16725465655326843,-0.1597432941198349,0.1119966208934784
1772794703645834800,1.690834716796875,-0.16292685270309448,-0.12114317715167999,0.11140569299459457
1772794703655879700,1.700879638671875,-0.12092294543981552,-0.03467673063278198,0.12287486344575882
1772794703665923600,1.710923583984375,-0.05330599099397659,0.0914137214422226,0.13823312520980835
1772794703675967700,1.7209677734375,0.03654187545180321,0.2413020133972168,0.14535735547542572
1772794703686012700,1.7310126953125,0.14660438895225525,0.37692052125930786,0.14187082648277283
1772794703696056600,1.741056640625,0.26797956228256226,0.4848720133304596,0.12428037822246552
1772794703706101800,1.751101806640625,0.38555341958999634,0.5561161041259766,0.09626282006502151
1772794703716145700,1.761145751953125,0.48041093349456787,0.589266300201416,0.06426334381103516
1772794703726190600,1.771190673828125,0.548958420753479,0.5826263427734375,0.028389234095811844
1772794703736234800,1.78123486328125,0.6011044383049011,0.5334281921386719,-0.0019473659340292215
1772794703746278700,1.791278564453125,0.640953004360199,0.4610385596752167,-0.022523434832692146
1772794703756323600,1.801323486328125,0.6537761092185974,0.3938959836959839,-0.04461994767189026
1772794703766367700,1.81136767578125,0.6473774313926697,0.3269055485725403,-0.06483335047960281
1772794703776412700,1.82141259765625,0.6263576149940491,0.24838091433048248,-0.10786125063896179
1772794703786456600,1.83145654296875,0.6000661253929138,0.1567312479019165,-0.15631942451000214
1772794703796501800,1.841501708984375,0.5709567070007324,0.07376447319984436,-0.21278323233127594
1772794703806545700,1.851545654296875,0.5391885042190552,0.012092748656868935,-0.261493444442749
1772794703816589600,1.861589599609375,0.5091539025306702,-0.032075513154268265,-0.30379509925842285
1772794703826634800,1.871634765625,0.47785887122154236,-0.07155117392539978,-0.3260025382041931
1772794703836678700,1.8816787109375,0.442167192697525,-0.10533656924962997,-0.3388112783432007
1772794703846723800,1.891723876953125,0.3982979655265808,-0.12704938650131226,-0.3531848192214966
1772794703856767700,1.901767822265625,0.351210355758667,-0.14553090929985046,-0.3660702407360077
1772794703866811600,1.911811767578125,0.30163851380348206,-0.16181114315986633,-0.37825092673301697
1772794703876856800,1.92185693359375,0.25411227345466614,-0.17707717418670654,-0.38949212431907654
1772794703886900700,1.931900634765625,0.21469970047473907,-0.19481608271598816,-0.402158260345459
1772794703896945700,1.941945556640625,0.18500810861587524,-0.1945827752351761,-0.39440101385116577
1772794703906989600,1.951989501953125,0.1645885407924652,-0.16718789935112,-0.3636665642261505
1772794703917034800,1.96203466796875,0.14384649693965912,-0.1197119951248169,-0.32036569714546204
1772794703927079000,1.972078857421875,0.12098700553178787,-0.0729779377579689,-0.2662413418292999
1772794703937122800,1.982122802734375,0.10707464814186096,-0.021108880639076233,-0.21457388997077942
1772794703947168000,1.99216796875,0.10804006457328796,0.019747154787182808,-0.16820287704467773
1772794703957212000,2.0022119140625,0.11572808027267456,0.04785628616809845,-0.13032421469688416
1772794703967257000,2.012257080078125,0.11510412395000458,0.061471909284591675,-0.11072089523077011
1772794703977301000,2.022301025390625,0.10313135385513306,0.05200623720884323,-0.10851925611495972
1772794703987345000,2.032344970703125,0.09063075482845306,0.030596502125263214,-0.11733507364988327
1772794703997390000,2.04239013671875,0.08044576644897461,0.030294764786958694,-0.12749609351158142
1772794704007434000,2.05243408203125,0.06961970031261444,0.039209961891174316,-0.14639094471931458
1772794704017479000,2.06247900390625,0.058017369359731674,0.03946109488606453,-0.1695023775100708
1772794704027523000,2.072523193359375,0.03522142022848129,0.011089212261140347,-0.19281071424484253
1772794704037567700,2.082567626953125,0.003787863301113248,-0.06731025874614716,-0.20517072081565857
1772794704047612000,2.09261181640625,-0.03396729379892349,-0.163291797041893,-0.1866036057472229
1772794704057656000,2.102656005859375,-0.06694548577070236,-0.25534236431121826,-0.13290362060070038
1772794704067700700,2.11270068359375,-0.1050562784075737,-0.31342706084251404,-0.061539262533187866
1772794704077745000,2.122744873046875,-0.14928418397903442,-0.34581536054611206,0.004641090054064989
1772794704087790000,2.1327900390625,-0.19100211560726166,-0.384395956993103,0.0538058802485466
1772794704097834000,2.142833984375,-0.22083698213100433,-0.430647611618042,0.08145774900913239
1772794704107879000,2.15287890625,-0.23969213664531708,-0.4999229907989502,0.08798690885305405
1772794704117923000,2.162923095703125,-0.2685568332672119,-0.5582928657531738,0.08464890718460083
1772794704127967000,2.172967041015625,-0.3332783877849579,-0.5835713148117065,0.07452995330095291
1772794704138012000,2.183011962890625,-0.39293986558914185,-0.6200742125511169,0.06126660853624344
1772794704148056000,2.19305615234375,-0.4251004755496979,-0.6102718114852905,0.051871951669454575
1772794704158100700,2.203100830078125,-0.449373334646225,-0.6006963849067688,0.03565303236246109
1772794704168145000,2.213144775390625,-0.45840877294540405,-0.6115710139274597,0.010866604745388031
1772794704178189000,2.22318896484375,-0.43439769744873047,-0.5740209817886353,-0.0024441401474177837
1772794704188233700,2.233233642578125,-0.41519713401794434,-0.4681623876094818,-0.02288874238729477
1772794704198278000,2.24327783203125,-0.4138895273208618,-0.4095486104488373,-0.049269746989011765
1772794704208323000,2.253322998046875,-0.39801281690597534,-0.34951770305633545,-0.0643286406993866
1772794704218367000,2.263366943359375,-0.3681694269180298,-0.28782662749290466,-0.07085151970386505
1772794704228412000,2.273411865234375,-0.327811598777771,-0.2976205348968506,-0.0799996554851532
1772794704238456000,2.2834560546875,-0.2784845232963562,-0.3384406566619873,-0.07266584038734436
1772794704248500000,2.2935,-0.22295328974723816,-0.38362231850624084,-0.05446070805191994
1772794704258545000,2.303544921875,-0.20069192349910736,-0.4569636285305023,-0.02674199268221855
1772794704268589000,2.313589111328125,-0.19968469440937042,-0.5377224683761597,0.006587827578186989
1772794704278633700,2.3236337890625,-0.20920655131340027,-0.5946552753448486,0.04542923346161842
1772794704288678000,2.333677978515625,-0.22962592542171478,-0.6403138041496277,0.07799621671438217
1772794704298722000,2.34372216796875,-0.25114771723747253,-0.6629083156585693,0.10508589446544647
1772794704308766700,2.3537666015625,-0.28328004479408264,-0.6563925743103027,0.12256921827793121
1772794704318811000,2.363810791015625,-0.3253324329853058,-0.6155388951301575,0.12423102557659149
1772794704328856000,2.37385595703125,-0.3575902581214905,-0.5359573364257812,0.11891941726207733
1772794704338900000,2.38389990234375,-0.38002046942710876,-0.4187404215335846,0.10836051404476166
1772794704348945000,2.39394482421875,-0.39203789830207825,-0.2634130120277405,0.10197411477565765
1772794704358989000,2.403989013671875,-0.45567360520362854,-0.07804928719997406,0.08313171565532684
1772794704369033000,2.414032958984375,-0.49310553073883057,0.07444564998149872,0.06872411072254181
1772794704379078000,2.424077880859375,-0.48076921701431274,0.25399595499038696,0.06096658855676651
1772794704389122000,2.4341220703125,-0.42359328269958496,0.3934065103530884,0.052057892084121704
1772794704399166700,2.444166748046875,-0.3423314392566681,0.5097061991691589,0.051458410918712616
1772794704409211000,2.4542109375,-0.28715354204177856,0.5963776111602783,0.046677082777023315
1772794704419256000,2.464256103515625,-0.2923267185688019,0.5710722208023071,0.021560009568929672
1772794704429299700,2.4742998046875,-0.3222067058086395,0.43822669982910156,-0.007516240235418081
1772794704439343900,2.48434375,-0.35259631276130676,0.24295280873775482,-0.032105471938848495
1772794704449389000,2.49438916015625,-0.38077789545059204,0.04762245714664459,-0.0431210920214653
1772794704459433000,2.504432861328125,-0.3887239694595337,-0.08033683896064758,-0.03499898314476013
1772794704469478000,2.514477783203125,-0.3662576675415039,-0.135146826505661,-0.016414159908890724
1772794704479522000,2.52452197265625,-0.3238729238510132,-0.14722904562950134,0.011402823030948639
1772794704489566000,2.53456591796875,-0.2760247588157654,-0.12959444522857666,0.02703244611620903
1772794704499611000,2.54461083984375,-0.22944314777851105,-0.10371305048465729,0.02876616269350052
1772794704509655000,2.554655029296875,-0.17967455089092255,-0.06764069199562073,0.015832161530852318
1772794704519700000,2.564699951171875,-0.1436646282672882,-0.0503288172185421,-0.013287372887134552
1772794704529744000,2.574743896484375,-0.12321478128433228,-0.03851067274808884,-0.04992430657148361
1772794704539789000,2.5847890625,-0.1061367318034172,-0.01993086002767086,-0.0868317261338234
1772794704549832700,2.594832763671875,-0.09885816276073456,-0.007894654758274555,-0.11979954689741135
1772794704559876900,2.604876953125,-0.08874587714672089,0.010949872434139252,-0.14424550533294678
1772794704569922000,2.614922119140625,-0.08388009667396545,0.04246775433421135,-0.16515445709228516
1772794704579966000,2.624966064453125,-0.07599341124296188,0.08329534530639648,-0.1795744150876999
1772794704590011000,2.635010986328125,-0.06652557849884033,0.13134415447711945,-0.19607648253440857
1772794704600055000,2.645054931640625,-0.05163344368338585,0.17871512472629547,-0.21914133429527283
1772794704610099000,2.655098876953125,-0.04566800221800804,0.19966259598731995,-0.24976937472820282
1772794704620143900,2.665143798828125,-0.06093643605709076,0.19046668708324432,-0.2964401841163635
1772794704630188000,2.67518798828125,-0.09261497110128403,0.15756286680698395,-0.3492472767829895
1772794704640233000,2.68523291015625,-0.12960362434387207,0.10644935071468353,-0.39324668049812317
1772794704650276900,2.69527685546875,-0.14620132744312286,0.05277130752801895,-0.41412463784217834
1772794704660322000,2.705322021484375,-0.13412655889987946,0.00011661788448691368,-0.4002341032028198
1772794704670366000,2.715365966796875,-0.09974648058414459,-0.04952550679445267,-0.3568416237831116
1772794704680409900,2.725409912109375,-0.06303054094314575,-0.089596226811409,-0.28437063097953796
1772794704690455000,2.735455078125,-0.02545902132987976,-0.10768857598304749,-0.207312673330307
1772794704700499000,2.7454990234375,0.016445551067590714,-0.08202262222766876,-0.11610473692417145
1772794704710544000,2.7555439453125,0.0614161491394043,-0.026221774518489838,-0.04108237847685814
1772794704720588000,2.765588134765625,0.10599000751972198,0.031009823083877563,0.015545745380222797
1772794704730633000,2.775633056640625,0.14124824106693268,0.05373366177082062,0.04311920702457428
1772794704740676900,2.7856767578125,0.16798077523708344,0.05401329696178436,0.059161290526390076
1772794704750721000,2.795720947265625,0.1867213398218155,0.05454988032579422,0.06546126306056976
1772794704760766000,2.805765869140625,0.20335917174816132,0.04738544300198555,0.06799446046352386
1772794704770809900,2.815809814453125,0.21996274590492249,0.03352778032422066,0.0715063288807869
1772794704780855000,2.82585498046875,0.2371917963027954,0.02037016861140728,0.06747297197580338
1772794704790899000,2.83589892578125,0.24633152782917023,-0.004470146261155605,0.06085362285375595
1772794704800942800,2.84594287109375,0.24371284246444702,-0.01848023757338524,0.046490930020809174
1772794704810988000,2.855988037109375,0.23434516787528992,-0.01593734323978424,0.027269186452031136
1772794704821032000,2.866031982421875,0.22168317437171936,-0.017325384542346,0.001796850236132741
1772794704831076900,2.876076904296875,0.20369695127010345,-0.029551317915320396,-0.02498106099665165
1772794704841121000,2.88612109375,0.18681171536445618,-0.024846045300364494,-0.05424068123102188
1772794704851166000,2.896166015625,0.16292482614517212,-0.002359855454415083,-0.07799189537763596
1772794704861209900,2.9062099609375,0.13440050184726715,0.021090343594551086,-0.09289601445198059
1772794704871254000,2.91625390625,0.10898276418447495,0.05454070866107941,-0.10152705013751984
1772794704881299000,2.926298828125,0.09429783374071121,0.09562849253416061,-0.10439314693212509
1772794704891342800,2.9363427734375,0.09564374387264252,0.13219565153121948,-0.10898798704147339
1772794704901388000,2.946387939453125,0.11183816194534302,0.15428045392036438,-0.11070359498262405
1772794704911432000,2.956431884765625,0.13265085220336914,0.1389329880475998,-0.11669312417507172
1772794704921476400,2.966476318359375,0.15614846348762512,0.11749027669429779,-0.1124536395072937
1772794704931520300,2.976520263671875,0.19137056171894073,0.10195046663284302,-0.09660302102565765
1772794704941564400,2.986564453125,0.2223801463842392,0.0938107818365097,-0.06862545013427734
1772794704951609300,2.996609375,0.2533104717731476,0.09422335028648376,-0.03970591351389885
1772794704961653200,3.0066533203125,0.2762983441352844,0.09558315575122833,-0.007255296688526869
1772794704971698200,3.0166982421875,0.28496047854423523,0.0937921404838562,0.010275476612150669
1772794704981742300,3.026742431640625,0.27679550647735596,0.12192364037036896,0.011855796910822392
1772794704991786200,3.0367861328125,0.26320749521255493,0.16745303571224213,0.01327474508434534
1772794705001831200,3.0468310546875,0.2490735501050949,0.24585597217082977,0.006045062094926834
1772794705011875300,3.056875244140625,0.2257937639951706,0.29771220684051514,0.022092001512646675
1772794705021920300,3.066920166015625,0.19753655791282654,0.3294304609298706,0.06672045588493347
1772794705031964400,3.07696435546875,0.17677199840545654,0.3890112340450287,0.09506604820489883
1772794705042009300,3.08700927734375,0.15950991213321686,0.40276777744293213,0.11748187243938446
1772794705052053200,3.09705322265625,0.17921483516693115,0.40743330121040344,0.09553590416908264
1772794705062097400,3.107097412109375,0.20090575516223907,0.37714117765426636,0.035994015634059906
1772794705072142300,3.117142333984375,0.1938694417476654,0.29553666710853577,-0.05353566259145737
1772794705082186200,3.127186279296875,0.18559527397155762,0.17615486681461334,-0.14861823618412018
1772794705092231200,3.137231201171875,0.1846994012594223,0.05631602928042412,-0.20370647311210632
1772794705102275300,3.147275390625,0.17474929988384247,-0.06834254413843155,-0.16789467632770538
1772794705112319200,3.1573193359375,0.15689866244792938,-0.20055091381072998,-0.05963452160358429
1772794705122364200,3.1673642578125,0.11423268914222717,-0.3042301833629608,0.07628762722015381
1772794705132408300,3.177408203125,0.04281391575932503,-0.39348259568214417,0.20441395044326782
1772794705142453200,3.187453369140625,-0.044638168066740036,-0.47537586092948914,0.32436272501945496
1772794705152497400,3.197497314453125,-0.12824316322803497,-0.5274040699005127,0.4245310127735138
1772794705162542300,3.207542236328125,-0.20932336151599884,-0.5532979369163513,0.49077022075653076
1772794705172586200,3.217586181640625,-0.27311843633651733,-0.544823944568634,0.5258728861808777
1772794705182630400,3.22763037109375,-0.29410308599472046,-0.48262739181518555,0.5440140962600708
1772794705192675300,3.23767529296875,-0.27217864990234375,-0.3461119532585144,0.5487862825393677
1772794705202719200,3.24771923828125,-0.21237654983997345,-0.1637362837791443,0.5433472990989685
1772794705212764200,3.25776416015625,-0.12799307703971863,0.025653399527072906,0.5245818495750427
1772794705222808300,3.267808349609375,-0.047465480864048004,0.17011843621730804,0.4860520362854004
1772794705232852200,3.277852294921875,0.02938692644238472,0.23973502218723297,0.4352395236492157
1772794705242897200,3.287897216796875,0.09091659635305405,0.2548854649066925,0.39013969898223877
1772794705252941300,3.29794140625,0.14021305739879608,0.23749524354934692,0.355472594499588
1772794705262986500,3.307986572265625,0.1757367104291916,0.23652903735637665,0.33990001678466797
1772794705273030400,3.318030517578125,0.19494003057479858,0.24688760936260223,0.3449786901473999
1772794705283075300,3.328075439453125,0.2258119285106659,0.3013732433319092,0.34748950600624084
1772794705293119200,3.338119140625,0.26590654253959656,0.30659857392311096,0.34501951932907104
1772794705303163400,3.348163330078125,0.3202986717224121,0.26754385232925415,0.3467244803905487
1772794705313208300,3.358208251953125,0.3772677481174469,0.28453969955444336,0.3528333902359009
1772794705323252200,3.368252197265625,0.41481566429138184,0.286957323551178,0.3622572422027588
1772794705333297200,3.378297119140625,0.4347632825374603,0.2530882954597473,0.3621847927570343
1772794705343341300,3.38834130859375,0.44550567865371704,0.22160495817661285,0.34745803475379944
1772794705353386500,3.398386474609375,0.4504604935646057,0.18158234655857086,0.3201706111431122
1772794705363430100,3.40843017578125,0.4577093720436096,0.1346110999584198,0.2763823866844177
1772794705373474300,3.418474365234375,0.4435781240463257,0.06848965585231781,0.2166031152009964
1772794705383519500,3.42851953125,0.4038679897785187,-0.011166020296514034,0.14210838079452515
1772794705393563400,3.4385634765625,0.34646475315093994,-0.09117686748504639,0.05769064649939537
1772794705403608300,3.4486083984375,0.29343080520629883,-0.13341166079044342,-0.03334471955895424
1772794705413652500,3.458652587890625,0.25568485260009766,-0.15334415435791016,-0.11884920299053192
1772794705423696400,3.4686962890625,0.2275911569595337,-0.14000678062438965,-0.20288312435150146
1772794705433741300,3.4787412109375,0.1951903998851776,-0.1295313835144043,-0.27760571241378784
1772794705443785500,3.488785400390625,0.15314148366451263,-0.14300405979156494,-0.3527691662311554
1772794705453830100,3.498830078125,0.10230518877506256,-0.16262057423591614,-0.42295706272125244
1772794705463874300,3.508874267578125,0.059780098497867584,-0.15760290622711182,-0.47022417187690735
1772794705473919500,3.51891943359375,0.04243212565779686,-0.10875698179006577,-0.49161237478256226
1772794705483963100,3.528963134765625,0.060866523534059525,-0.04423125088214874,-0.4833291471004486
1772794705494007300,3.53900732421875,0.0996888056397438,0.004030290059745312,-0.4409278929233551
1772794705504052500,3.549052490234375,0.15691934525966644,0.0411616787314415,-0.36285600066185
1772794705514096400,3.559096435546875,0.23855939507484436,0.09600133448839188,-0.2720012962818146
1772794705524141300,3.569141357421875,0.3329242467880249,0.1520632654428482,-0.1827089786529541
1772794705534185500,3.579185546875,0.4202084243297577,0.1882500797510147,-0.10531461238861084
1772794705544229400,3.5892294921875,0.4740367829799652,0.19238464534282684,-0.0501411035656929
1772794705554274300,3.5992744140625,0.49645933508872986,0.1702161729335785,-0.020547227934002876
1772794705564318500,3.609318359375,0.5004482269287109,0.13483287394046783,-0.011415247805416584
1772794705574363100,3.619363037109375,0.4984682500362396,0.09763672947883606,-0.016967110335826874
1772794705584407300,3.6294072265625,0.4759964942932129,0.06693954020738602,-0.02976013720035553
1772794705594452500,3.639452392578125,0.4429018199443817,0.03442654386162758,-0.041511524468660355
1772794705604496100,3.64949609375,0.3987058699131012,0.02018129825592041,-0.060460980981588364
1772794705614540300,3.659540283203125,0.3470700979232788,0.009340633638203144,-0.07726285606622696
1772794705624585500,3.66958544921875,0.29033786058425903,0.0013167955912649632,-0.08882816880941391
1772794705634629400,3.67962939453125,0.23391693830490112,0.0008978280238807201,-0.09854307025671005
1772794705644674300,3.68967431640625,0.17847152054309845,0.008405013009905815,-0.10172528028488159
1772794705654718500,3.699718505859375,0.11075475066900253,0.030503228306770325,-0.11452292650938034
1772794705664763100,3.70976318359375,0.03504135087132454,0.040731631219387054,-0.1306512951850891
1772794705674807300,3.719807373046875,-0.04707375913858414,0.01712883450090885,-0.14899781346321106
1772794705684851500,3.7298515625,-0.12322631478309631,-0.024078521877527237,-0.16061824560165405
1772794705694896000,3.739896240234375,-0.17420454323291779,-0.06257200986146927,-0.1551319807767868
1772794705704940300,3.749940185546875,-0.2099505513906479,-0.08614737540483475,-0.13152359426021576
1772794705714985500,3.7599853515625,-0.23093584179878235,-0.07387270033359528,-0.09786064177751541
1772794705725029000,3.770029052734375,-0.24802961945533752,-0.058460988104343414,-0.0554380863904953
1772794705735073300,3.7800732421875,-0.258455365896225,-0.05587026849389076,-0.018082989379763603
1772794705745118500,3.790118408203125,-0.26647841930389404,-0.05634777247905731,0.011581427417695522
1772794705755162000,3.800162109375,-0.2675008177757263,-0.030156651511788368,0.03667375072836876
1772794705765207300,3.810207275390625,-0.2617689073085785,0.013682708144187927,0.05130675435066223
1772794705775251500,3.82025146484375,-0.2535261809825897,0.05272240936756134,0.059906743466854095
1772794705785296100,3.830296142578125,-0.24386155605316162,0.07279199361801147,0.05788513645529747
1772794705795340300,3.84034033203125,-0.23925940692424774,0.07595396041870117,0.05550801753997803
1772794705805384400,3.850384521484375,-0.22773617506027222,0.08123261481523514,0.060432203114032745
1772794705815429000,3.86042919921875,-0.22364619374275208,0.07326629757881165,0.07712811976671219
1772794705825473300,3.870473388671875,-0.22322328388690948,0.029738260433077812,0.09621232748031616
1772794705835518500,3.8805185546875,-0.22409699857234955,-0.0377766489982605,0.11608726531267166
1772794705845562000,3.89056201171875,-0.21591363847255707,-0.09912629425525665,0.14932085573673248
1772794705855606300,3.900606201171875,-0.19457371532917023,-0.12834611535072327,0.18714216351509094
1772794705865651500,3.9106513671875,-0.17615368962287903,-0.13073177635669708,0.22704723477363586
1772794705875695000,3.920695068359375,-0.17477403581142426,-0.12951987981796265,0.26295894384384155
1772794705885740300,3.930740234375,-0.19754326343536377,-0.11527969688177109,0.2899940311908722
1772794705895784400,3.940784423828125,-0.2564018666744232,-0.07488955557346344,0.2888227105140686
1772794705905829400,3.950829345703125,-0.3529781997203827,-0.03937949985265732,0.26007843017578125
1772794705915873300,3.960873291015625,-0.47961878776550293,-0.041608355939388275,0.21436931192874908
1772794705925918500,3.97091845703125,-0.6186730861663818,-0.06269286572933197,0.162369504570961
1772794705935963400,3.98096337890625,-0.7442567348480225,-0.07120059430599213,0.09466152638196945
1772794705946007300,3.99100732421875,-0.8224253058433533,-0.03012959286570549,0.018542258068919182
1772794705956051500,4.001051513671875,-0.8487866520881653,0.07833216339349747,-0.04315917193889618
1772794705966095000,4.01109521484375,-0.8306885957717896,0.19428245723247528,-0.062139786779880524
1772794705976139300,4.02113916015625,-0.7721994519233704,0.28528037667274475,-0.0421089306473732
1772794705986184400,4.031184326171875,-0.690398097038269,0.35307595133781433,0.012747924774885178
1772794705996228000,4.04122802734375,-0.5883122086524963,0.3650733232498169,0.09198964387178421
1772794706006273300,4.051273193359375,-0.48455092310905457,0.3365769684314728,0.20612552762031555
1772794706016317400,4.0613173828125,-0.37584707140922546,0.269893616437912,0.3379461169242859
1772794706026361300,4.071361328125,-0.25471290946006775,0.19848786294460297,0.4503259062767029
1772794706036406300,4.08140625,-0.1484857052564621,0.112928606569767,0.5251813530921936
1772794706046450400,4.091450439453125,-0.07573028653860092,0.001938703004270792,0.5495674014091492
1772794706056495400,4.101495361328125,-0.026614055037498474,-0.10065537691116333,0.5416978597640991
1772794706066539300,4.111539306640625,0.02641640603542328,-0.17749476432800293,0.51495760679245
1772794706076584400,4.12158447265625,0.08023206889629364,-0.22778908908367157,0.4841133952140808
1772794706086628000,4.131628173828125,0.10883388668298721,-0.2195655107498169,0.4463857114315033
1772794706096672300,4.14167236328125,0.10141584277153015,-0.20225651562213898,0.39613181352615356
1772794706106717400,4.151717529296875,0.07965941727161407,-0.18586395680904388,0.3376895487308502
1772794706116761000,4.161760986328125,0.06363491714000702,-0.15803062915802002,0.27425533533096313
1772794706126806300,4.17180615234375,0.0549175962805748,-0.12424948811531067,0.21852202713489532
1772794706136850400,4.181850341796875,0.0448484905064106,-0.11301612108945847,0.16927015781402588
1772794706146895400,4.191895263671875,0.023334942758083344,-0.12666001915931702,0.12151941657066345
1772794706156939300,4.201939208984375,-0.0043329643085598946,-0.13961879909038544,0.08006370812654495
1772794706166983400,4.2119833984375,-0.03417395055294037,-0.14060337841510773,0.037236616015434265
1772794706177028400,4.2220283203125,-0.05114226043224335,-0.13770323991775513,-0.011441661044955254
1772794706187072300,4.232072265625,-0.041257403790950775,-0.13060086965560913,-0.06401965022087097
1772794706197117400,4.242117431640625,-0.020051568746566772,-0.13017980754375458,-0.11820730566978455
1772794706207161300,4.252161376953125,0.0051991939544677734,-0.15011276304721832,-0.17061138153076172
1772794706217205200,4.262205322265625,0.03902731463313103,-0.19442911446094513,-0.21719695627689362
1772794706227250400,4.27225048828125,0.07762716710567474,-0.23692916333675385,-0.25440821051597595
1772794706237294000,4.282294189453125,0.12433922290802002,-0.25354528427124023,-0.2765251100063324
1772794706247339300,4.29233935546875,0.17596378922462463,-0.24992017447948456,-0.2827598452568054
1772794706257383400,4.302383544921875,0.22326192259788513,-0.22738614678382874,-0.2761719524860382
1772794706267428400,4.312428466796875,0.2708505094051361,-0.19198395311832428,-0.26979556679725647
1772794706277472300,4.32247216796875,0.3083322048187256,-0.15190792083740234,-0.256880521774292
1772794706287516400,4.332516357421875,0.3416757881641388,-0.1110885739326477,-0.24474184215068817
1772794706297561300,4.342561279296875,0.37437665462493896,-0.07647493481636047,-0.23874180018901825
1772794706307605200,4.352605224609375,0.3979690670967102,-0.06213834136724472,-0.23161198198795319
1772794706317650400,4.362650390625,0.4228009283542633,-0.04331410303711891,-0.21879468858242035
1772794706327694300,4.3726943359375,0.4482860565185547,-0.018071863800287247,-0.2058653086423874
1772794706337738200,4.38273828125,0.4663711488246918,0.015223447233438492,-0.1818397492170334
1772794706347783400,4.392783447265625,0.4847826361656189,0.04197383671998978,-0.156747967004776
1772794706357827300,4.402827392578125,0.503657341003418,0.05764355510473251,-0.12215003371238708
1772794706367872300,4.412872314453125,0.5270529389381409,0.07771926373243332,-0.07577375322580338
1772794706377916400,4.42291650390625,0.5421525835990906,0.08925997465848923,-0.02959364280104637
1772794706387961300,4.43296142578125,0.5620895624160767,0.08366866409778595,0.019827967509627342
1772794706398005200,4.443005126953125,0.5934151411056519,0.05146949738264084,0.06343694776296616
1772794706408049400,4.45304931640625,0.6205016374588013,0.004100117366760969,0.09837043285369873
1772794706418094300,4.46309423828125,0.6476593017578125,-0.040217917412519455,0.12534299492835999
1772794706428138200,4.47313818359375,0.6747305989265442,-0.06204385310411453,0.13647714257240295
1772794706438183400,4.483183349609375,0.6946907043457031,-0.0594724677503109,0.13083861768245697
1772794706448227300,4.493227294921875,0.7063896656036377,-0.036949846893548965,0.09920291602611542
1772794706458271200,4.503271240234375,0.7344335317611694,-0.002973770722746849,0.04832564294338226
1772794706468316400,4.51331640625,0.7670924067497253,0.03336799144744873,0.005045280326157808
1772794706478360300,4.5233603515625,0.8258438110351562,0.06231479346752167,-0.026632316410541534
1772794706488405200,4.5334052734375,0.8839374780654907,0.09661870449781418,-0.0293162502348423
1772794706498449400,4.543449462890625,0.9282799363136292,0.11060412973165512,-0.014036205597221851
1772794706508494300,4.553494384765625,0.9693256616592407,0.10761819779872894,0.018212011083960533
1772794706518538200,4.563538330078125,1.0068252086639404,0.09884857386350632,0.06036538630723953
1772794706528582400,4.57358251953125,1.0483518838882446,0.08766090124845505,0.10554458200931549
1772794706538627300,4.58362744140625,1.0808287858963013,0.04927004873752594,0.14024512469768524
1772794706548671200,4.593671142578125,1.1047040224075317,-0.002225636038929224,0.16504208743572235
1772794706558716400,4.60371630859375,1.1255643367767334,-0.03854326531291008,0.18828091025352478
1772794706568760300,4.61376025390625,1.1454224586486816,-0.04732077941298485,0.21039792895317078
1772794706578805200,4.62380517578125,1.167066216468811,-0.025079021230340004,0.22080574929714203
1772794706588849400,4.633849365234375,1.19338059425354,-0.009157045744359493,0.2257339358329773
1772794706598893300,4.643893310546875,1.2177050113677979,-0.010875845327973366,0.23816341161727905
1772794706608938200,4.653938232421875,1.2345539331436157,-0.009232409298419952,0.26219603419303894
1772794706618982400,4.663982421875,1.2568117380142212,0.007277004886418581,0.2967231869697571
1772794706629027300,4.67402734375,1.2857043743133545,0.026980401948094368,0.33663439750671387
1772794706639071200,4.6840712890625,1.3212202787399292,0.029269017279148102,0.3771720826625824
1772794706649116200,4.6941162109375,1.3518924713134766,0.002042188309133053,0.41646862030029297
1772794706659160300,4.704160400390625,1.3763870000839233,-0.02639179490506649,0.45662954449653625
1772794706669204200,4.714204345703125,1.4038313627243042,-0.025465814396739006,0.49954932928085327
1772794706679249400,4.72424951171875,1.453295350074768,-0.003402000293135643,0.5496201515197754
1772794706689293300,4.734293212890625,1.5323046445846558,0.03558774292469025,0.6147783398628235
1772794706699338200,4.744338134765625,1.5971821546554565,0.08500711619853973,0.6607526540756226
1772794706709382400,4.75438232421875,1.6167371273040771,0.15409056842327118,0.6601749658584595
1772794706719426300,4.76442626953125,1.603469967842102,0.23081007599830627,0.6143636107444763
1772794706729471200,4.77447119140625,1.5869410037994385,0.30928730964660645,0.5233407616615295
1772794706739515400,4.784515380859375,1.5617507696151733,0.33612871170043945,0.43129292130470276
1772794706749560300,4.794560302734375,1.531393051147461,0.30270522832870483,0.3685312867164612
1772794706759604200,4.804604248046875,1.513846516609192,0.24840638041496277,0.3427662253379822
1772794706769649200,4.814649169921875,1.5013418197631836,0.19225415587425232,0.35857290029525757
1772794706779693300,4.824693359375,1.4998165369033813,0.13741113245487213,0.38376080989837646
1772794706789737200,4.8347373046875,1.5294450521469116,0.09321731328964233,0.4001179337501526
1772794706799782400,4.844782470703125,1.5885151624679565,0.036740247160196304,0.40625274181365967
1772794706809826300,4.854826416015625,1.660901427268982,-0.024824313819408417,0.4112544059753418
1772794706819871500,4.86487158203125,1.7364556789398193,-0.08166410773992538,0.42010802030563354
1772794706829915400,4.874915283203125,1.8136905431747437,-0.135182186961174,0.42297786474227905
1772794706839960300,4.884960205078125,1.8873590230941772,-0.1578977257013321,0.43807142972946167
1772794706850004200,4.895004150390625,1.9548203945159912,-0.1424415409564972,0.45406293869018555
1772794706860048400,4.90504833984375,2.0145621299743652,-0.09667884558439255,0.46557870507240295
1772794706870093300,4.91509326171875,2.0736498832702637,-0.04104802384972572,0.46078255772590637
1772794706880137200,4.92513720703125,2.1200153827667236,-0.004507587291300297,0.4458951950073242
1772794706890182100,4.93518212890625,2.1627628803253174,0.019597481936216354,0.42093923687934875
1772794706900226300,4.945226318359375,2.1984169483184814,0.05567111447453499,0.402057409286499
1772794706910270200,4.955270263671875,2.209658622741699,0.10664614289999008,0.3894031345844269
1772794706920315400,4.9653154296875,2.1954848766326904,0.14528915286064148,0.41044262051582336
1772794706930358500,4.975358642578125,2.174638271331787,0.16956226527690887,0.432847797870636
1772794706940403500,4.985403564453125,2.1492936611175537,0.16654261946678162,0.4617858827114105
1772794706950447400,4.995447265625,2.1103880405426025,0.16456547379493713,0.4843415319919586
1772794706960492300,5.0054921875,2.068556308746338,0.14127342402935028,0.5000634789466858
1772794706970536400,5.015536376953125,2.0328636169433594,0.11001457273960114,0.4994152784347534
1772794706980580400,5.025580322265625,2.0031981468200684,0.09052971005439758,0.47198671102523804
1772794706990625300,5.035625244140625,1.9628888368606567,0.07308441400527954,0.454509973526001
1772794707000669200,5.045669189453125,1.9006468057632446,0.07800118625164032,0.44231081008911133
1772794707010714400,5.05571435546875,1.859389066696167,0.04895968362689018,0.41530635952949524
1772794707020758300,5.06575830078125,1.850096344947815,0.04594631493091583,0.3861074447631836
1772794707030803500,5.075803466796875,1.8386986255645752,0.035000722855329514,0.34538933634757996
1772794707040847400,5.085847412109375,1.81635582447052,-0.004209898412227631,0.3169122338294983
1772794707050891500,5.0958916015625,1.7893844842910767,-0.02297692745923996,0.3066720962524414
1772794707060936400,5.1059365234375,1.759649634361267,-0.008543453179299831,0.31300094723701477
1772794707070980400,5.11598046875,1.7488411664962769,0.031240446493029594,0.32745257019996643
1772794707081025300,5.126025390625,1.7391488552093506,0.06483200937509537,0.3466089069843292
1772794707091069400,5.1360693359375,1.7342230081558228,0.11096248775720596,0.3656531870365143
1772794707101113300,5.14611328125,1.7407240867614746,0.152043879032135,0.35915905237197876
1772794707111158300,5.156158203125,1.7452051639556885,0.16864682734012604,0.3368931710720062
1772794707121202400,5.166202392578125,1.7576271295547485,0.17935167253017426,0.30768918991088867
1772794707131247400,5.176247314453125,1.7762658596038818,0.21411018073558807,0.3005857467651367
1772794707141291300,5.186291259765625,1.788848638534546,0.2695923447608948,0.3019402027130127
1772794707151336400,5.19633642578125,1.7974122762680054,0.31885603070259094,0.3036150634288788
1772794707161380400,5.20638037109375,1.8001909255981445,0.34621548652648926,0.2893669307231903
1772794707171424500,5.216424560546875,1.7969985008239746,0.33990487456321716,0.2560608983039856
1772794707181469400,5.226469482421875,1.7806663513183594,0.3247823715209961,0.20503602921962738
1772794707191513300,5.236513427734375,1.7603248357772827,0.30705079436302185,0.15227293968200684
1772794707201558300,5.246558349609375,1.7373932600021362,0.30706360936164856,0.10073462873697281
1772794707211602400,5.2566025390625,1.7262146472930908,0.29703548550605774,0.07676059007644653
1772794707221647400,5.2666474609375,1.713626742362976,0.2814891040325165,0.0864461287856102
1772794707231691300,5.276691162109375,1.7051708698272705,0.2672041654586792,0.11853775382041931
1772794707241735400,5.2867353515625,1.7072703838348389,0.2398766428232193,0.16005805134773254
1772794707251780400,5.2967802734375,1.7173347473144531,0.2172219306230545,0.20090587437152863
1772794707261824300,5.30682421875,1.739980697631836,0.21898068487644196,0.24593542516231537
1772794707271869400,5.316869384765625,1.772181749343872,0.2533884346485138,0.2868887186050415
1772794707281913300,5.326913330078125,1.8117036819458008,0.2918473184108734,0.3232700228691101
1772794707291957500,5.33695751953125,1.8487237691879272,0.3165702521800995,0.3469865322113037
1772794707302002400,5.34700244140625,1.8788020610809326,0.32519158720970154,0.36322951316833496
1772794707312046300,5.35704638671875,1.8918761014938354,0.29254069924354553,0.36771881580352783
1772794707322091300,5.36709130859375,1.906416893005371,0.24274006485939026,0.3654783368110657
1772794707332135400,5.377135498046875,1.9187737703323364,0.1833835393190384,0.3623107969760895
1772794707342180400,5.387180419921875,1.920030117034912,0.12811952829360962,0.35765576362609863
1772794707352224300,5.397224365234375,1.912739872932434,0.08272355794906616,0.34900233149528503
1772794707362268400,5.407268310546875,1.8941296339035034,0.06471718102693558,0.3239598572254181
1772794707372313300,5.417313232421875,1.865323543548584,0.07469923794269562,0.29681798815727234
1772794707382357200,5.427357177734375,1.8276431560516357,0.09817537665367126,0.26100096106529236
1772794707392402400,5.43740234375,1.78898286819458,0.12552125751972198,0.2360716313123703
1772794707402446300,5.4474462890625,1.7576779127120972,0.13625730574131012,0.22829195857048035
1772794707412490200,5.457490234375,1.7297635078430176,0.1511947065591812,0.23980747163295746
1772794707422535400,5.467535400390625,1.7034324407577515,0.1567167192697525,0.2763938009738922
1772794707432579300,5.477579345703125,1.6603327989578247,0.17028313875198364,0.32331231236457825
1772794707442624300,5.487624267578125,1.6246044635772705,0.1983637660741806,0.36841002106666565
1772794707452668400,5.49766845703125,1.5944340229034424,0.22344808280467987,0.39526718854904175
1772794707462713300,5.50771337890625,1.5795952081680298,0.22425326704978943,0.39087042212486267
1772794707472757200,5.51775732421875,1.5761672258377075,0.19637927412986755,0.3571811616420746
1772794707482801400,5.527801513671875,1.570698857307434,0.15165233612060547,0.3245824873447418
1772794707492846300,5.537846435546875,1.5693038702011108,0.1316131204366684,0.29306450486183167
1772794707502890200,5.54789013671875,1.5749324560165405,0.12063462287187576,0.268786758184433
1772794707512935400,5.557935302734375,1.5896224975585938,0.11480043083429337,0.23936092853546143
1772794707522979300,5.567979248046875,1.603548288345337,0.1094493418931961,0.2081393450498581
1772794707533024300,5.578024169921875,1.6191322803497314,0.1334524005651474,0.17327962815761566
1772794707543068400,5.588068359375,1.6446211338043213,0.17350125312805176,0.147718146443367
1772794707553112300,5.5981123046875,1.670414924621582,0.2107362300157547,0.12814976274967194
1772794707563157200,5.6081572265625,1.7019325494766235,0.25069743394851685,0.12707765400409698
1772794707573201400,5.618201416015625,1.7321479320526123,0.2943897843360901,0.13889676332473755
1772794707583246600,5.62824658203125,1.7548750638961792,0.3328412175178528,0.14477340877056122
1772794707593290200,5.638290283203125,1.7581483125686646,0.3493059277534485,0.13551358878612518
1772794707603334400,5.64833447265625,1.7552145719528198,0.355598121881485,0.11283604800701141
1772794707613379300,5.65837939453125,1.7473136186599731,0.37916284799575806,0.06069508567452431
1772794707623423200,5.66842333984375,1.726767659187317,0.41419580578804016,-0.006856684107333422
1772794707633468400,5.678468505859375,1.7040150165557861,0.4371623694896698,-0.0882817730307579
1772794707643512300,5.68851220703125,1.6944561004638672,0.44042882323265076,-0.15975366532802582
1772794707653557200,5.69855712890625,1.6930837631225586,0.4336329698562622,-0.21233457326889038
1772794707663601400,5.708601318359375,1.6906075477600098,0.41514086723327637,-0.24108901619911194
1772794707673645300,5.718645263671875,1.756791591644287,0.36006084084510803,-0.21725265681743622
1772794707683690200,5.728690185546875,1.7407728433609009,0.3351041078567505,-0.197546124458313
1772794707693734400,5.738734375,1.6649131774902344,0.23846489191055298,-0.19263339042663574
1772794707703779600,5.748779541015625,1.5435885190963745,0.1623116433620453,-0.20984312891960144
1772794707713823200,5.7588232421875,1.388211727142334,0.04958643019199371,-0.25236690044403076
1772794707723868400,5.768868408203125,1.2439844608306885,-0.07425428926944733,-0.2939969003200531
1772794707733912600,5.77891259765625,1.114013433456421,-0.10936780273914337,-0.3220815062522888
1772794707743956200,5.788956298828125,1.0060960054397583,-0.08659281581640244,-0.31119203567504883
1772794707754001400,5.79900146484375,0.9168798923492432,0.002029994037002325,-0.28659588098526
1772794707764045300,5.80904541015625,0.8731916546821594,0.14083224534988403,-0.24502086639404297
1772794707774090200,5.81909033203125,0.8835183382034302,0.264640212059021,-0.19403357803821564
1772794707784134400,5.829134521484375,0.9422789216041565,0.3257051706314087,-0.14451637864112854
1772794707794178300,5.83917822265625,1.0238031148910522,0.33799272775650024,-0.08546636998653412
1772794707804223200,5.84922314453125,1.1097005605697632,0.33129259943962097,-0.03894796594977379
1772794707814267400,5.859267333984375,1.1994565725326538,0.29851359128952026,0.005751331336796284
1772794707824312600,5.8693125,1.2810744047164917,0.24824386835098267,0.04460224509239197
1772794707834356200,5.879356201171875,1.3593436479568481,0.19047829508781433,0.07324454188346863
1772794707844401400,5.8894013671875,1.4238792657852173,0.11674949526786804,0.09154282510280609
1772794707854445600,5.899445556640625,1.465137243270874,0.037137750536203384,0.09398121386766434
1772794707864489200,5.9094892578125,1.4900500774383545,-0.04252682626247406,0.08687787503004074
1772794707874534400,5.919534423828125,1.5028092861175537,-0.11177993565797806,0.07716213166713715
1772794707884578600,5.92957861328125,1.5068776607513428,-0.16471537947654724,0.062126751989126205
1772794707894623200,5.939623291015625,1.4888360500335693,-0.17812785506248474,0.04940802976489067
1772794707904667400,5.94966748046875,1.4542572498321533,-0.1531601846218109,0.030373603105545044
1772794707914711300,5.959711181640625,1.4030004739761353,-0.10191935300827026,0.006654157303273678
1772794707924756200,5.969756103515625,1.3661816120147705,-0.032124362885951996,-0.019067605957388878
1772794707934801200,5.97980126953125,1.3373433351516724,0.07334960252046585,-0.0331227071583271
1772794707944846000,5.98984619140625,1.3069498538970947,0.16976630687713623,-0.030285045504570007
1772794707954890000,5.999889892578125,1.2678653001785278,0.24247461557388306,-0.020835617557168007
1772794707964935200,6.00993505859375,1.2164998054504395,0.28896579146385193,-0.0031557674519717693
1772794707974979000,6.01997900390625,1.1633957624435425,0.3255499005317688,0.014318298548460007
1772794707985023000,6.03002294921875,1.1282206773757935,0.37762895226478577,0.04165925085544586
1772794707995068200,6.040068115234375,1.1179088354110718,0.44706448912620544,0.06315867602825165
1772794708005112000,6.050112060546875,1.1300437450408936,0.500079870223999,0.0894244983792305
1772794708015157000,6.060156982421875,1.1595160961151123,0.5148654580116272,0.10374165326356888
1772794708025201200,6.070201171875,1.1926568746566772,0.4942138195037842,0.1186584085226059
1772794708035245000,6.0802451171875,1.2268528938293457,0.4240909516811371,0.13551408052444458
1772794708045290000,6.0902900390625,1.260846734046936,0.33010074496269226,0.15408043563365936
1772794708055334100,6.100334228515625,1.279985785484314,0.22272875905036926,0.17725925147533417
1772794708065379000,6.110379150390625,1.2889586687088013,0.10171514749526978,0.19421140849590302
1772794708075423000,6.120423095703125,1.2877918481826782,-0.006820650305598974,0.19505909085273743
1772794708085468200,6.13046826171875,1.2723859548568726,-0.09225586801767349,0.18473877012729645
1772794708095512000,6.140511962890625,1.2514984607696533,-0.1283036172389984,0.16162465512752533
1772794708105556000,6.150555908203125,1.2237472534179688,-0.12415681779384613,0.12988325953483582
1772794708115601200,6.16060107421875,1.1858947277069092,-0.11333799362182617,0.07891754806041718
1772794708125645000,6.17064501953125,1.1426141262054443,-0.12655988335609436,0.024402201175689697
1772794708135690200,6.180690185546875,1.0969970226287842,-0.1275617778301239,-0.023922987282276154
1772794708145734100,6.190734130859375,1.046908974647522,-0.10128041356801987,-0.06426665186882019
1772794708155779000,6.200779052734375,0.9894173741340637,-0.06291918456554413,-0.09803686290979385
1772794708165823200,6.2108232421875,0.9264141917228699,-0.05533002316951752,-0.1332874745130539
1772794708175867100,6.2208671875,0.8643311262130737,-0.06932147592306137,-0.16129247844219208
1772794708185912000,6.230912109375,0.806900680065155,-0.08749434351921082,-0.17617344856262207
1772794708195956000,6.2409560546875,0.7623393535614014,-0.10430023074150085,-0.17717427015304565
1772794708206001200,6.251001220703125,0.7175008654594421,-0.11944882571697235,-0.16682970523834229
1772794708216045000,6.261045166015625,0.6687498688697815,-0.13748881220817566,-0.15779200196266174
1772794708226089000,6.2710888671875,0.6210052371025085,-0.15656045079231262,-0.14356011152267456
1772794708236134100,6.281134033203125,0.5825436115264893,-0.1651827096939087,-0.12837636470794678
1772794708246178000,6.291177978515625,0.5557034611701965,-0.1698857843875885,-0.092618428170681
1772794708256223200,6.30122314453125,0.5484881401062012,-0.15184234082698822,-0.019780440255999565
1772794708266267100,6.31126708984375,0.563535213470459,-0.1088147684931755,0.06513985246419907
1772794708276312000,6.32131201171875,0.5664857029914856,-0.07281522452831268,0.13627608120441437
1772794708286356200,6.331356201171875,0.5435051321983337,-0.03260708227753639,0.1638147383928299
1772794708296400100,6.341400146484375,0.5188785791397095,0.024671651422977448,0.14818011224269867
1772794708306445000,6.351445068359375,0.5139909386634827,0.05569712072610855,0.09014800190925598
1772794708316489200,6.3614892578125,0.5522749423980713,0.021215572953224182,-0.00973252672702074
1772794708326534100,6.3715341796875,0.5957351326942444,-0.09205613285303116,-0.11526289582252502
1772794708336578000,6.381578125,0.6372833847999573,-0.1314120590686798,-0.18706198036670685
1772794708346622000,6.3916220703125,0.6451268196105957,-0.1640673130750656,-0.23564481735229492
1772794708356667100,6.401667236328125,0.6207069754600525,-0.21123455464839935,-0.2584018111228943
1772794708366711000,6.4117109375,0.5829628705978394,-0.25507375597953796,-0.2507043778896332
1772794708376756200,6.421756103515625,0.5486357808113098,-0.3139551877975464,-0.21775390207767487
1772794708386800000,6.431800048828125,0.542094886302948,-0.40770423412323,-0.14815597236156464
1772794708396845000,6.441844970703125,0.5411350727081299,-0.48717907071113586,-0.06109803915023804
1772794708406889200,6.45188916015625,0.514850378036499,-0.5563375949859619,0.026478899642825127
1772794708416933000,6.46193310546875,0.4634854793548584,-0.5650967359542847,0.10037842392921448
1772794708426978000,6.47197802734375,0.40209144353866577,-0.49443089962005615,0.17007479071617126
1772794708437022200,6.482022216796875,0.328024685382843,-0.36919867992401123,0.22518090903759003
1772794708447067100,6.492067138671875,0.28643175959587097,-0.27340206503868103,0.2670750319957733
1772794708457111000,6.502111083984375,0.2912105321884155,-0.19767001271247864,0.31051117181777954
1772794708467155200,6.5121552734375,0.3447449803352356,-0.150829017162323,0.3510758876800537
1772794708477200100,6.5222001953125,0.39936563372612,-0.1765040159225464,0.3916717767715454
1772794708487244000,6.532244140625,0.4167710840702057,-0.24309562146663666,0.4360193610191345
1772794708497289200,6.542289306640625,0.37405478954315186,-0.3177219033241272,0.4858628213405609
1772794708507333000,6.5523330078125,0.2652375400066376,-0.3943798243999481,0.5236865282058716
1772794708517378000,6.5623779296875,0.10938853025436401,-0.4663967788219452,0.5449079275131226
1772794708527422200,6.572422119140625,-0.03753231093287468,-0.5243845582008362,0.5424241423606873
1772794708537466000,6.582466064453125,-0.15464428067207336,-0.5870266556739807,0.5298827290534973
1772794708547511000,6.592510986328125,-0.23207156360149384,-0.6197873950004578,0.5195403099060059
1772794708557555200,6.60255517578125,-0.27626141905784607,-0.5457249283790588,0.5148688554763794
1772794708567600000,6.61260009765625,-0.33629295229911804,-0.5262528657913208,0.4987246096134186
1772794708577644000,6.62264404296875,-0.37596258521080017,-0.49887582659721375,0.4718419015407562
1772794708587688200,6.632688232421875,-0.38334453105926514,-0.40286681056022644,0.4401743412017822
1772794708597733000,6.642733154296875,-0.3412764370441437,-0.27887481451034546,0.40165117383003235
1772794708607777000,6.652777099609375,-0.2610381245613098,-0.18102328479290009,0.3379056453704834
1772794708617822200,6.662822265625,-0.17559513449668884,-0.10605929791927338,0.26767438650131226
1772794708627866000,6.6728662109375,-0.08299421519041061,-0.0660037100315094,0.19950196146965027
1772794708637911000,6.6829111328125,-0.00286183413118124,-0.0303913876414299,0.13509634137153625
1772794708647955200,6.692955078125,0.06017124280333519,-0.011243789456784725,0.07405214011669159
1772794708657999000,6.7029990234375,0.09964461624622345,-0.018271073698997498,0.0162958987057209
1772794708668044000,6.7130439453125,0.12588848173618317,-0.055534716695547104,-0.021132010966539383
1772794708678088200,6.723088134765625,0.14400197565555573,-0.1015155240893364,-0.03205789625644684
1772794708688133000,6.733133056640625,0.16715960204601288,-0.14262700080871582,-0.013382777571678162
1772794708698177000,6.743177001953125,0.19032350182533264,-0.16643619537353516,0.023492416366934776
1772794708708221200,6.75322119140625,0.2094985842704773,-0.18082499504089355,0.08307618647813797
1772794708718266000,6.76326611328125,0.21725504100322723,-0.1847749948501587,0.13748376071453094
1772794708728310000,6.77331005859375,0.21871231496334076,-0.177813321352005,0.18238957226276398
1772794708738355200,6.783355224609375,0.22177334129810333,-0.1480035036802292,0.21511395275592804
1772794708748399000,6.793399169921875,0.2758026719093323,-0.09410420805215836,0.24231718480587006
1772794708758444000,6.803444091796875,0.3144203722476959,-0.07650177925825119,0.26091641187667847
1772794708768488200,6.81348828125,0.3552502691745758,-0.003627470228821039,0.28615090250968933
1772794708778532000,6.823531982421875,0.4137266278266907,0.10614670068025589,0.32384899258613586
1772794708788577000,6.833576904296875,0.48720991611480713,0.2010141909122467,0.34355947375297546
1772794708798621200,6.84362109375,0.5592161417007446,0.2600599527359009,0.35190102458000183
1772794708808666000,6.853666015625,0.6140351891517639,0.2983357012271881,0.34735339879989624
1772794708818710000,6.8637099609375,0.6505364775657654,0.30047714710235596,0.3345627784729004
1772794708828754200,6.873754150390625,0.6764399409294128,0.2584564685821533,0.31948718428611755
1772794708838799000,6.883799072265625,0.6795068383216858,0.2048930823802948,0.308541864156723
1772794708848843000,6.893843017578125,0.6584751605987549,0.14509746432304382,0.2953207790851593
1772794708858888200,6.90388818359375,0.6219464540481567,0.0767839103937149,0.2633633613586426
1772794708868932000,6.91393212890625,0.568901777267456,0.004194873385131359,0.22345969080924988
1772794708878977000,6.92397705078125,0.5152342915534973,-0.02801446244120598,0.1843048334121704
1772794708889021200,6.934021240234375,0.46683093905448914,-0.014498649165034294,0.17333896458148956
1772794708899065000,6.944065185546875,0.4258054792881012,0.0167026799172163,0.18024960160255432
1772794708909110000,6.954110107421875,0.38697850704193115,0.03494890406727791,0.19374586641788483
1772794708919154200,6.964154296875,0.35479870438575745,0.024209439754486084,0.19859947264194489
1772794708929199400,6.974199462890625,0.33125290274620056,-0.006766744423657656,0.1827002763748169
1772794708939243300,6.9842431640625,0.3187704086303711,-0.029330376535654068,0.14173634350299835
1772794708949287400,6.994287353515625,0.3221997320652008,-0.026422791182994843,0.10348568856716156
1772794708959332400,7.004332275390625,0.3286818563938141,-0.02412981167435646,0.06533084809780121
1772794708969376300,7.014376220703125,0.33626800775527954,-0.04662378132343292,0.04195830971002579
1772794708979421400,7.02442138671875,0.3383884131908417,-0.061078622937202454,0.029914958402514458
1772794708989465600,7.034465576171875,0.35938844084739685,-0.04082341864705086,0.02509971335530281
1772794708999510500,7.044510498046875,0.3737045228481293,-0.036117881536483765,-0.0038616303354501724
1772794709009554400,7.054554443359375,0.3646458685398102,-0.025928620249032974,-0.043738771229982376
1772794709019598600,7.0645986328125,0.379116952419281,0.009977715089917183,-0.08849585801362991
1772794709029643500,7.0746435546875,0.4019779860973358,0.02945021167397499,-0.13448701798915863
1772794709039687400,7.0846875,0.3977486193180084,0.017422311007976532,-0.16728705167770386
1772794709049732400,7.094732421875,0.38217055797576904,-0.015804294496774673,-0.18047592043876648
1772794709059776500,7.104776611328125,0.3575184941291809,-0.06416143476963043,-0.18098564445972443
1772794709069820400,7.1148203125,0.3257647454738617,-0.1436677724123001,-0.19505716860294342
1772794709079865300,7.124865234375,0.2835688292980194,-0.1884634643793106,-0.21331927180290222
1772794709089909500,7.134909423828125,0.24244782328605652,-0.19050323963165283,-0.22472980618476868
1772794709099954400,7.144954345703125,0.20231664180755615,-0.17988841235637665,-0.2425764501094818
1772794709109998600,7.15499853515625,0.1648017168045044,-0.16309042274951935,-0.2608615458011627
1772794709120043500,7.16504345703125,0.12582555413246155,-0.1483394354581833,-0.2781941890716553
1772794709130087400,7.17508740234375,0.08494389802217484,-0.12279823422431946,-0.284365713596344
1772794709140131600,7.185131591796875,0.04560741037130356,-0.07515348494052887,-0.2763272225856781
1772794709150176500,7.195176513671875,0.003134107682853937,-0.04173378646373749,-0.27706143260002136
1772794709160220400,7.205220458984375,-0.03879682719707489,-0.007632806897163391,-0.28960466384887695
1772794709170265300,7.215265380859375,-0.08019264042377472,0.02542383223772049,-0.3036087155342102
1772794709180309500,7.2253095703125,-0.11685078591108322,0.04727267101407051,-0.30614832043647766
1772794709190353400,7.235353515625,-0.14153212308883667,0.07631513476371765,-0.2893551290035248
1772794709200398300,7.2453984375,-0.15786635875701904,0.10678116232156754,-0.26253044605255127
1772794709210442500,7.2554423828125,-0.16713251173496246,0.1409398317337036,-0.2493426352739334
1772794709220487400,7.2654873046875,-0.17970503866672516,0.18798378109931946,-0.24905049800872803
1772794709230531300,7.27553125,-0.17414461076259613,0.2467459887266159,-0.24580606818199158
1772794709240576500,7.285576416015625,-0.16359075903892517,0.25118178129196167,-0.25964170694351196
1772794709250620400,7.295620361328125,-0.1609947234392166,0.23194430768489838,-0.2622198164463043
1772794709260664600,7.30566455078125,-0.1749987006187439,0.22651492059230804,-0.19085270166397095
1772794709270709500,7.31570947265625,-0.2016390860080719,0.12682358920574188,-0.12269452214241028
1772794709280753400,7.32575341796875,-0.2246818095445633,-0.008714000694453716,-0.07205638289451599
1772794709290798300,7.33579833984375,-0.2633175849914551,-0.12881505489349365,-0.04941771179437637
1772794709300842500,7.345842529296875,-0.3110824525356293,-0.20303069055080414,-0.058036234229803085
1772794709310886400,7.355886474609375,-0.3492933511734009,-0.22318480908870697,-0.07408163696527481
1772794709320931300,7.365931396484375,-0.3560439348220825,-0.18896424770355225,-0.07603693008422852
1772794709330975500,7.3759755859375,-0.3297051191329956,-0.1357264369726181,-0.050784505903720856
1772794709341020400,7.3860205078125,-0.3095335364341736,-0.1124860942363739,-0.029802793636918068
1772794709351064300,7.396064208984375,-0.2854522466659546,-0.08475891500711441,-0.010263102129101753
1772794709361109500,7.406109619140625,-0.2431820034980774,-0.019660338759422302,0.017277978360652924
