time,seconds_elapsed,z,y,x
1772794465786851000,0.07185107421875,-0.27758360019326206,0.36088516639936713,0.36578853786885734
1772794465796895200,0.081895263671875,-0.3276584214389324,0.41693997537009414,0.28888986097499725
1772794465806940400,0.0919404296875,-0.30554829643964765,0.4970632403336465,0.2764592723384499
1772794465816985000,0.101985107421875,-0.27024317430257794,0.6236794494681059,0.31996333689168094
1772794465827030300,0.1120302734375,-0.2885585831940174,0.7602085653297602,0.27099019327759744
1772794465837074200,0.12207421875,-0.19332886144816874,0.9123369629919529,0.2313077328391373
1772794465847119000,0.132119140625,0.13320260178744792,0.9228139333426952,0.23290216242372988
1772794465857164000,0.1421640625,0.5384621493011713,0.7473536868665367,0.22191022828817367
1772794465867209200,0.152209228515625,0.75019877409935,0.46319078134819863,0.20585779589265585
1772794465877253400,0.16225341796875,0.783119631448388,0.27151049082465467,0.15978227341622114
1772794465887298000,0.172298095703125,0.5481055914372206,0.18704269385077057,0.07260127196088433
1772794465897343200,0.18234326171875,0.13509353010058403,0.4692522733442485,0.20884090335667133
1772794465907387100,0.19238720703125,-0.137176766115427,0.527242507356964,0.26140944111421704
1772794465917432300,0.202432373046875,-0.3914940570116043,0.17740900592375547,-0.018352233770489692
1772794465927477200,0.212477294921875,-0.23112170874774454,0.1686202443882823,-0.3101204266607761
1772794465937522200,0.222522216796875,0.12695230922102926,-0.09198989957440644,-0.2788723978947848
1772794465947566300,0.23256640625,0.3171446262091398,-0.2710530293807387,-0.333616891451925
1772794465957611000,0.242611083984375,0.2668997090935707,-0.2821137179035693,-0.42082171217426656
1772794465967656200,0.25265625,0.01682078641951084,-0.22222006142232567,-0.4316445002879947
1772794465977701000,0.262701171875,-0.24419980150759218,-0.38611353301703927,-0.33499358663260936
1772794465987745300,0.272745361328125,-0.3891144683986902,-0.4583306279659271,-0.3038704263553023
1772794465997790200,0.282790283203125,-0.43008945286571976,-0.43567412113025783,-0.3982133553292602
1772794466007835100,0.292835205078125,-0.5074573547065258,-0.4188596183210611,-0.4830880526036024
1772794466017880300,0.30288037109375,-0.5629261439502239,-0.4548564490493387,-0.497861916430667
1772794466027924200,0.31292431640625,-0.4379658853292465,-0.5099365677690133,-0.44911315615698694
1772794466037969200,0.32296923828125,-0.2225058560937643,-0.5567830746179446,-0.38722463606409724
1772794466048014000,0.33301416015625,-0.03304594503343105,-0.5250525960972532,-0.4014129550881684
1772794466058058200,0.343058349609375,0.05527238988876342,-0.5717284956196322,-0.2913278287116438
1772794466068103400,0.353103515625,0.016419804403185842,-0.28493125954233106,-0.15618256842382253
1772794466078148000,0.363148193359375,-0.0908709420144558,-0.013643581155501305,0.026724048535525798
1772794466088193300,0.373193359375,-0.2189811890989542,0.050956682114116844,0.24063794430755078
1772794466098237200,0.3832373046875,-0.20859891129434108,0.06780461226888,0.35631234205849466
1772794466108282000,0.3932822265625,-0.13411270236968995,0.04234568829834461,0.26177608246952294
1772794466118327000,0.4033271484375,-0.039192192703485486,-0.03448522058892995,0.11620718945339321
1772794466128372200,0.413372314453125,0.06543956363797188,-0.16217958034891633,0.013577639779821037
1772794466138416400,0.42341650390625,0.04152151243388653,-0.26366733957622196,0.04832797757834196
1772794466148461000,0.4334609375,-0.16728315056562423,-0.3484274340275675,0.012282558467984199
1772794466158506200,0.44350634765625,-0.3113759796798229,-0.3328809053275734,0.006787687378749251
1772794466168551200,0.45355126953125,-0.4025421052485704,-0.28536851844843475,0.10023680931814015
1772794466178595300,0.46359521484375,-0.36208909882903095,-0.36193840177934616,0.14352138590179384
1772794466188640000,0.473639892578125,-0.1833230157405138,-0.35436398446969686,0.056603053970634934
1772794466198685200,0.483685302734375,0.03442833930253982,-0.2579506058972329,0.06379515743181109
1772794466208730000,0.493730224609375,0.27307635190188884,-0.1250181993532926,0.11120185544677078
1772794466218774000,0.50377392578125,0.4281564389765262,0.03368343921937048,0.10495850407779216
1772794466228819200,0.513819091796875,0.3867430630922317,0.1761583848081529,0.21047332686409354
1772794466238864100,0.523864013671875,0.3388894250273704,0.368953650836274,0.31126711247786876
1772794466248908300,0.533908203125,0.36105040343105793,0.4626330744002014,0.3556859537884593
1772794466258953200,0.543953125,0.4812877251833677,0.3922909064777195,0.2943043603044003
1772794466268998100,0.553998046875,0.6396855585038661,0.2043303671296686,0.19069420209564267
1772794466279043000,0.56404296875,0.7613204720944166,0.04851144438646734,-0.018976722344383596
1772794466289087200,0.574087158203125,0.7616612483561038,0.02320982986949384,-0.17424407561942934
1772794466299132200,0.584132080078125,0.6304132877677678,0.01434394797720015,-0.27510091653205454
1772794466309177000,0.594177001953125,0.3900736688196659,0.012561521539837122,-0.33912162634804843
1772794466319222300,0.60422216796875,0.17814532084167004,0.08490962245725095,-0.4216924305941909
1772794466329266400,0.614266357421875,0.006021159985661506,0.006301365166530013,-0.4902630587995052
1772794466339311000,0.62431103515625,-0.07915361621379852,-0.045498818567022675,-0.5988705869041383
1772794466349356300,0.634356201171875,0.011909633502364158,-0.07907149088829755,-0.6483358248841017
1772794466359401200,0.644401123046875,0.11578911017179488,-0.10432444395795464,-0.6561381691981106
1772794466369445000,0.654445068359375,0.14845511597692965,-0.12302362800259142,-0.5959161210127174
1772794466379490000,0.664489990234375,-0.006128127491474151,-0.173992000554502,-0.45341750228740274
1772794466389535200,0.67453515625,-0.18867431364059448,-0.2262122728636488,-0.3168136406891048
1772794466399580200,0.684580078125,-0.29111352837383747,-0.24273732773959636,-0.1985259186346084
1772794466409624000,0.6946240234375,-0.22453940774798392,-0.2782473247990012,-0.11590477244071662
1772794466419669200,0.704669189453125,-0.0744879624903202,-0.31214404144287106,-0.06543781007230282
1772794466429714200,0.714714111328125,0.09675357031226157,-0.2855565518338233,-0.02935359332151711
1772794466439758300,0.72475830078125,0.10585574517846107,-0.1636267104173079,0.07426372528038919
1772794466449803000,0.734802978515625,0.03061433397233486,-0.03968311802558601,0.2822288687158376
1772794466459848200,0.74484814453125,-0.022713936111330983,-0.0053689796872437,0.43922341110967095
1772794466469893000,0.75489306640625,-0.01545183615386486,-0.02664049843791872,0.4820608284477144
1772794466479937300,0.764937255859375,0.10300620096623897,-0.05222703084349632,0.39539164897203444
1772794466489982200,0.774982177734375,0.19764672464728356,-0.12806695593204348,0.25647271536439653
1772794466500027100,0.785027099609375,0.2016834328174591,-0.11299392649531363,0.12168328277692197
1772794466510072300,0.795072265625,0.08690846812427043,-0.07866838998012245,0.07722513236925005
1772794466520116000,0.805115966796875,-0.07200140637159347,-0.009747560097649693,0.07982844673544168
1772794466530161200,0.8151611328125,-0.3113508452385664,0.02775264266459271,0.07659246048890053
1772794466540206000,0.8252060546875,-0.5647551129430533,-0.04158993802759796,-0.08581541219055652
1772794466550251300,0.835251220703125,-0.5798550669193268,-0.025577874175086616,-0.3477345563925803
1772794466560295200,0.845295166015625,-0.4499912541657686,-0.011723006622772663,-0.4508045433100313
1772794466570340000,0.855340087890625,-0.2753787836253643,0.01591872301325202,-0.4946933693971485
1772794466580385300,0.86538525390625,-0.1207598843216896,0.03844166659712791,-0.41159992951638996
1772794466590429200,0.87542919921875,-0.09247370103597641,0.07133143468815833,-0.36750389041937886
1772794466600474000,0.88547412109375,-0.15591478433310985,0.11801756334360688,-0.29269049536697567
1772794466610519300,0.895519287109375,-0.200868609303236,0.12740872948532922,-0.22600115086361763
1772794466620564200,0.905564208984375,-0.1423269884854555,0.1256317464080639,-0.14319872981868684
1772794466630608100,0.915608154296875,-0.0029255320578813553,0.11683533128909766,-0.041881212591752405
1772794466640653000,0.925653076171875,0.16849954061806202,0.114392121121753,-0.008753653689473867
1772794466650698200,0.9356982421875,0.24980945808291433,0.13813138169283046,0.06279898600131273
1772794466660743200,0.9457431640625,0.14885785155892373,0.19131730243004857,0.11451083386428654
1772794466670787000,0.955787109375,0.011840075397491455,0.29818375902101396,0.1905107352875173
1772794466680832300,0.965832275390625,-0.020026304462552068,0.33473891775179654,0.2685707841109484
1772794466690877200,0.975877197265625,-0.042619244542717934,0.3188490920394659,0.295039323515445
1772794466700922400,0.98592236328125,-0.07045417692959308,0.31956593507193026,0.2993553600836545
1772794466710966500,0.995966552734375,-0.049966684696078296,0.276027127998881,0.1984761612087488
1772794466721011700,1.00601171875,0.02751519891321659,0.24558431466855107,0.13053659744858742
1772794466731056600,1.016056640625,0.09964695366621017,0.15720462321424855,0.07591215007454157
1772794466741101600,1.0261015625,0.1832002661436796,0.11967985226633027,-0.01612279421798885
1772794466751145700,1.036145751953125,0.1662777729153633,0.12078560328483581,-0.06183657070994377
1772794466761190700,1.046190673828125,0.059601359003782266,0.1533170777237974,-0.09804302560091017
1772794466771235600,1.056235595703125,-0.0003214870393276214,0.18673899819646028,-0.17716807330735027
1772794466781280500,1.066280517578125,-0.01763385636806488,0.18633737685931845,-0.21046536275334654
1772794466791324700,1.07632470703125,0.003547463348507881,0.15466158766793087,-0.2293351175919175
1772794466801369600,1.08636962890625,0.0638438188791275,0.1547599152095616,-0.2191177480254322
1772794466811414500,1.09641455078125,0.13140052080154419,0.12562098755203185,-0.12646788670495152
1772794466821458700,1.106458740234375,0.21399112572669982,0.15496405947953462,-0.042259105993434784
1772794466831503600,1.116503662109375,0.24680150843858717,0.2116393932350911,0.0654315995272249
1772794466841548800,1.126548828125,0.2543558693408966,0.27169929139502347,0.21928039124123752
1772794466851593500,1.136593505859375,0.2321954754590988,0.28793869773000474,0.30503026391491295
1772794466861637600,1.1466376953125,0.13252630996108053,0.22168478550184517,0.3065263476915657
1772794466871682600,1.1566826171875,-0.043131870239973065,0.19185274274731054,0.19107662554197014
1772794466881727500,1.1667275390625,-0.25077099659144875,0.15545043649068102,0.07745514173284172
1772794466891772400,1.1767724609375,-0.3819336169838905,0.1013332079864107,-0.0334513109639287
1772794466901816600,1.186816650390625,-0.3846697639495134,-0.01437216942468658,-0.1567272697597742
1772794466911861800,1.19686181640625,-0.26221301258206364,-0.07990458071157336,-0.3892695858951658
1772794466921906400,1.206906494140625,-0.03864917186796665,-0.13343082105275242,-0.5290351263947785
1772794466931951600,1.21695166015625,0.16522271090447901,-0.1842246590216644,-0.5709182386826723
1772794466941995500,1.22699560546875,0.3067874828457832,-0.1608094975721091,-0.5710907457053661
1772794466952040700,1.237040771484375,0.30689094322025773,-0.07071136656105519,-0.4678706827927381
1772794466962085400,1.24708544921875,0.19338205294013022,-0.02888144576512277,-0.3693593090277165
1772794466972129500,1.257129638671875,0.1497995163232088,0.0844708474474959,-0.2799394426044077
1772794466982174700,1.2671748046875,0.06973112335205078,0.13238209745110943,-0.09590462533272802
1772794466992219600,1.2772197265625,-0.002500584644079208,0.1648651113721542,0.012168868960440157
1772794467002264600,1.2872646484375,-0.009958499434590339,0.19637321584643794,0.06877053469158709
1772794467012308500,1.29730859375,0.019114450314641,0.12509340174766256,0.09830182266756891
1772794467022353700,1.307353759765625,0.07015957789719104,0.052903140006773174,0.05838175408095121
1772794467032398300,1.3173984375,0.09643325231671333,0.025589820341207086,0.06453260486088692
1772794467042443500,1.327443603515625,0.014604863935708999,0.004951758922170847,0.09255385360009968
1772794467052487700,1.33748779296875,-0.09611761049628258,-0.011582739635556935,0.10636917459331452
1772794467062532600,1.34753271484375,-0.18335808705389497,-0.020231763906776903,0.1192841857459396
1772794467072577500,1.35757763671875,-0.22262919021248817,-0.031828404203522946,0.1733539218466729
1772794467082622500,1.36762255859375,-0.1492898132354021,-0.024109335992485284,0.19067666643895206
1772794467092666600,1.37766650390625,-0.0025116905599832534,0.03060657079098746,0.19693945316076278
1772794467102711600,1.387711669921875,0.09807108265161514,0.02476732497718185,0.1824954058099538
1772794467112756500,1.397756591796875,0.19716215600073336,-0.004417871241178363,0.08645670576877891
1772794467122801700,1.4078017578125,0.2540975106656551,-0.018420421902183442,0.0647214784964919
1772794467132845600,1.417845458984375,0.13825170187056063,0.014461035018227994,0.09029752604067325
1772794467142890800,1.427890869140625,-0.0013274492114782332,0.046259226746577765,0.10185929595343768
1772794467152935400,1.437935302734375,-0.061548401418328284,0.07652383396578952,0.1039319375090301
1772794467162979600,1.4479794921875,-0.06861351749897003,0.05458714757096022,0.07605828054696322
1772794467173024800,1.458024658203125,-0.05326631076335907,0.059048383029829704,0.10392821118198335
1772794467183069400,1.4680693359375,-0.01056757124364376,0.06352779346620664,0.08289251048117875
1772794467193114600,1.478114501953125,0.0536000727623701,0.054294685696717346,0.06652173285149038
1772794467203158500,1.488158447265625,0.13974164816737175,0.025509466847684233,0.06589337182007729
1772794467213203700,1.49820361328125,0.2561070969223976,0.027483452068082986,0.08553403796590864
1772794467223248400,1.508248291015625,0.35961364862620826,0.0060840143551118666,0.05541932407878339
1772794467233293600,1.51829345703125,0.3552694819420576,-0.024107381497416643,0.03146072166860103
1772794467243337700,1.528337646484375,0.33444822770953175,-0.04575600819848478,0.012328224240615963
1772794467253382700,1.538382568359375,0.2562830380111933,-0.06938824646482243,0.02592369193807244
1772794467263427600,1.548427490234375,0.16308277626633644,-0.06825372600955888,0.08629815420620143
1772794467273472500,1.558472412109375,0.05569441469311714,-0.02473174220714718,0.11507657798826694
1772794467283516700,1.5685166015625,-0.0714729985833168,0.012850567614287137,0.14573592014610767
1772794467293561300,1.578561279296875,-0.1712929707288742,0.08493015378862619,0.17320662233047188
1772794467303606500,1.5886064453125,-0.20010756180286407,0.12566710998238995,0.18326522113867103
1772794467313651500,1.5986513671875,-0.17946517126858233,0.11653985547386109,0.1656768113475293
1772794467323695600,1.608695556640625,-0.12025661097466946,0.0633847500000149,0.1288474022526294
1772794467333740500,1.618740478515625,-0.018254034093022346,0.01998405448971316,0.06785305452048779
1772794467343785500,1.628785400390625,0.09099193804562092,-0.003644621846359223,0.04014189464375376
1772794467353829600,1.63882958984375,0.1836141076415777,0.009052508771885187,0.039992037844285365
1772794467363874600,1.64887451171875,0.19608605120182035,0.02947431535804644,0.06876483560316264
1772794467373919500,1.65891943359375,0.15085516285598277,0.051251025418192146,0.05624927209690213
1772794467383964400,1.66896435546875,0.1517079802930355,0.12083590869996697,-0.022645766245946285
1772794467394008600,1.679008544921875,0.07268529698252678,0.10209222792647778,0.010172288315743207
1772794467404053800,1.6890537109375,-0.013827449822425841,0.10663018188336863,-0.06262194893397391
1772794467414098400,1.699098388671875,-0.10163900426626205,0.04880222576027736,-0.1461555337976664
1772794467424143600,1.7091435546875,-0.0572732083171606,0.017192633672896772,-0.22723661094270645
1772794467434187800,1.719187744140625,0.0011895020455121993,-0.016025854915846138,-0.22601612923704087
1772794467444232400,1.729232421875,0.01975567082762718,-0.020357673575077204,-0.21918825597837566
1772794467454277600,1.739277587890625,-0.00805529616177082,-0.0014517879772000014,-0.2196157606754452
1772794467464322600,1.749322509765625,-0.04482873728573322,0.04208550299219787,-0.15113777918964624
1772794467474366700,1.75936669921875,-0.05341010314822197,0.1022074335376732,-0.11858853163197636
1772794467484411400,1.769411376953125,-0.04393851044774055,0.09799664744222536,-0.03321202231533825
1772794467494456600,1.77945654296875,-0.016624387064576147,0.040703236587252466,0.004244067310541868
1772794467504500700,1.789500732421875,0.017594693401455877,0.0011770626890473066,-0.011497837831079959
1772794467514545700,1.799545654296875,0.08054419378936291,-0.018580562633648514,0.05370119504928589
1772794467524590600,1.809590576171875,0.12519348285496235,-0.03953565411260351,0.06641688423752784
1772794467534635500,1.819635498046875,0.11980536007583141,-0.037111367841437454,0.038221594105660915
1772794467544679700,1.8296796875,0.07217793198227881,-0.031174305942654607,0.03445617715753615
1772794467554724400,1.839724365234375,0.021578794601559637,-0.05401451704846695,0.02272496896199882
1772794467564769500,1.84976953125,-0.05763678093254566,-0.01617304483419284,-0.011498349287733436
1772794467574814500,1.859814453125,-0.09917992067635059,-0.0376928940564394,-0.01113031969293952
1772794467584858600,1.869858642578125,-0.10247370152473449,0.011084233795199542,-0.08262779513038694
1772794467594903600,1.879903564453125,-0.18474808010756968,-0.0007157105213031173,-0.09647226915284991
1772794467604948500,1.889948486328125,-0.19724223549962042,0.023312285596970468,-0.16899799165949225
1772794467614993700,1.89999365234375,-0.14257833289802074,0.03237990060644224,-0.18999277582801877
1772794467625037600,1.91003759765625,-0.01872691230177879,0.031892244953662156,-0.1851099722225219
1772794467635082500,1.92008251953125,0.12458324200212954,0.04748396450225264,-0.13304594992101193
1772794467645127400,1.93012744140625,0.21286066039204596,0.012622567544691264,-0.05619366945214569
1772794467655172600,1.940172607421875,0.2548158880680799,-0.014238186047784982,-0.06651442632786929
1772794467665216800,1.950216796875,0.2499941670000553,-0.08133349926983938,-0.07470920402556658
1772794467675261400,1.960261474609375,0.2130114670395851,-0.10948485892843454,-0.05162826123274863
1772794467685306600,1.970306640625,0.12792378460168838,-0.09738991372073069,-0.008362535480037332
1772794467695351300,1.980351318359375,0.0026619126856327053,-0.07939248473728075,0.07200308687202632
1772794467705395500,1.9903955078125,-0.09495382741391659,-0.04269254724094644,0.10266308661699294
1772794467715440400,2.0004404296875,-0.186498723167181,-0.062454392081033434,0.09803608440347016
1772794467725485600,2.010485595703125,-0.27302432945370675,-0.04977518071196973,0.06779409087486565
1772794467735529500,2.020529541015625,-0.28281039493083954,-0.076653269031737,0.061095762280002235
1772794467745574400,2.030574462890625,-0.18712474611103533,-0.04778541340054944,0.082212273132056
1772794467755619600,2.04061962890625,-0.08336158929765224,0.02125765462210402,0.1300895112682134
1772794467765664300,2.050664306640625,0.07695347582101822,0.08684484656983986,0.004130670063942671
1772794467775708400,2.06070849609375,0.22746026363074778,0.16208253144891932,0.0621979513682425
1772794467785753600,2.070753662109375,0.22777122927606105,0.1575539846411906,0.134596540363878
1772794467795798500,2.080798583984375,0.1254921735405922,0.11396204087510704,0.05231069053895771
1772794467805843500,2.090843505859375,-0.0008645078748464583,0.061176791626960034,0.009659297292307018
1772794467815887400,2.100887451171875,-0.08597381762266158,-0.003590973696671426,0.007074760691821575
1772794467825932500,2.1109326171875,-0.10133037670850753,0.0029546850871294736,-0.02365457796230912
1772794467835977500,2.1209775390625,-0.06962649393379688,0.01917609910769388,-0.03479673422351479
1772794467846022400,2.1310224609375,-0.00731762953698635,0.025131756109092383,-0.05907258588932454
1772794467856066600,2.141066650390625,0.049908817028999325,0.00648558089332655,-0.05601897047236561
1772794467866111500,2.151111572265625,0.08305062365233898,-0.028872586605232207,-0.06699256523363292
1772794467876156400,2.161156494140625,0.06747603790163993,-0.040605128241330384,-0.044902240913361306
1772794467886200300,2.171200439453125,0.055334349209070204,-0.012579312924854457,-0.03771737091057002
1772794467896245500,2.18124560546875,0.08465922789275646,0.03789727578843012,0.016793752282112835
1772794467906290400,2.19129052734375,0.07297346627414227,0.0391818357062526,0.0385476111896336
1772794467916335400,2.20133544921875,0.040462943291664125,0.08786644470253958,0.05320902761816978
1772794467926379500,2.211379638671875,-0.01691314087808132,0.12519837822578847,0.08012231511548161
1772794467936424400,2.221424560546875,-0.11285948646068572,0.12807851850567384,0.043705943800881504
1772794467946469600,2.2314697265625,-0.1524322029143572,0.13610435111094266,-0.008790551633760333
1772794467956514300,2.241514404296875,-0.11299100388586521,0.08979775982499122,-0.012980989060923456
1772794467966558500,2.251558349609375,0.02855564787685871,0.05542305040583014,-0.038261853050813074
1772794467976603400,2.261603271484375,0.19837562344372273,0.0040351372675970195,-0.04027202382944524
1772794467986648600,2.271648681640625,0.35169571510851383,0.004050298304110765,-0.028279242088273166
1772794467996693200,2.281693359375,0.39665187816619873,-0.006669175565615296,0.01839205432422459
1772794468006737400,2.2917373046875,0.34905250712335106,0.019635734242387116,0.06253405145481228
1772794468016782600,2.301782470703125,0.235057879152894,0.017837854507565497,0.06780220111608505
1772794468026827300,2.3118271484375,0.12216332137882709,0.06570647094585001,0.06778590756841003
1772794468036872400,2.32187255859375,0.0063087447553873055,0.10043214922714978,0.06089329851046204
1772794468046916600,2.33191650390625,-0.02833294503688812,0.11722487859595566,0.042599151602759955
1772794468056961500,2.34196142578125,-0.041916649231314655,0.0997996600098908,0.0011765694987028836
1772794468067006500,2.35200634765625,-0.043082185879349706,0.04625895275194197,-0.027853710152581333
1772794468077050400,2.36205029296875,-0.047513446325063706,-0.019977606482617555,-0.08468005148507654
1772794468087095600,2.372095458984375,-0.037323476222157474,-0.06334914896367118,-0.10345167971141636
1772794468097140500,2.382140380859375,-0.008207271853089332,-0.0647711080581881,-0.09408537401631474
1772794468107185400,2.392185302734375,0.004678513205051422,-0.017994944765418765,-0.05531900550946593
1772794468117229600,2.4022294921875,0.043138884502649306,0.02462649173438549,-0.014188026763126253
1772794468127274500,2.4122744140625,0.08832710275053977,0.04174932984039187,-0.07052271212115883
1772794468137319700,2.422319580078125,0.12130056706964969,0.013262801676988602,-0.05209894748441875
1772794468147364400,2.4323642578125,0.07565233009457588,-0.03143690240159631,-0.0457365728456527
1772794468157408500,2.442408447265625,-0.012689385703206062,-0.0212821862751618,-0.06317680633775889
1772794468167453400,2.452453369140625,-0.10959551622867583,-0.01800548442574218,-0.07322502988241612
1772794468177498400,2.462498291015625,-0.14234744675159453,-0.0018113602709025143,-0.07242123921886086
1772794468187543300,2.472543212890625,-0.141246207511425,0.020219689876493065,-0.04949095694310963
1772794468197587500,2.48258740234375,-0.07025017879009246,0.026557624193746594,-0.04494198840186
1772794468207632600,2.492632568359375,0.024907646763324735,0.026889102904126046,-0.03999854065030813
1772794468217677300,2.50267724609375,0.03143266461789608,0.05501556558348238,-0.005285100796073675
1772794468227722500,2.512722412109375,0.001205284136533737,0.06566496989168226,0.03077427377440035
1772794468237766400,2.522766357421875,0.027491233515739438,0.06337696855235844,0.05032075883075594
1772794468247811600,2.5328115234375,0.10561726024746894,0.06582206014953554,0.06131510411910712
1772794468257856300,2.542856201171875,0.1500344941228628,0.02471380469165742,0.01502484291344881
1772794468267900400,2.552900390625,0.1694891361773014,0.006463460393063724,0.0048730128638446325
1772794468277945600,2.562945556640625,0.17191022584438323,-0.006246237445808947,0.015065174923837184
1772794468287990300,2.572990234375,0.14668109204173088,0.006144749832712113,-0.020205241226032376
1772794468298035500,2.583035400390625,0.14533493812978268,0.05246675788350403,-0.03838343360386789
1772794468308079400,2.593079345703125,0.11115034445524215,0.016353168907761572,-0.04276040657907724
1772794468318124500,2.60312451171875,0.05924830778241157,0.007395334415696561,-0.06648052405826747
1772794468328169500,2.61316943359375,-0.07352291685044765,0.014938132744375615,-0.09171966779828071
1772794468338214400,2.62321435546875,-0.17025310628712176,0.015556666501518338,-0.0705427319958806
1772794468348258600,2.633258544921875,-0.252118904069066,0.01586107454188168,-0.02623947988897562
1772794468358303500,2.643303466796875,-0.2227759052067995,0.019313461751770226,0.02190736896879971
1772794468368348400,2.653348388671875,-0.17554770556390284,0.06129968735426664,0.10892784610018133
1772794468378393300,2.663393310546875,-0.09662906714975833,0.10159805120136588,0.2282353396564722
1772794468388437500,2.6734375,-0.06800795282125473,0.09494443853106349,0.2706997589636594
1772794468398482700,2.683482666015625,-0.019407295781373977,0.05555557247800752,0.24142682966291903
1772794468408527400,2.69352734375,-0.01326981593966484,0.03966437679249793,0.20784655855707823
1772794468418572500,2.703572509765625,-0.009557517418265342,-0.02422996669746935,0.06227803086712956
1772794468428616400,2.713616455078125,0.01741641422510147,-0.0711549821427092,-0.1097417928315699
1772794468438661400,2.723661376953125,0.018799977537989614,-0.1780475047566928,-0.3675046941369772
1772794468448706300,2.733706298828125,0.04158697888553142,-0.27835502295717596,-0.5251156879287213
1772794468458751500,2.74375146484375,0.016990882289409637,-0.3390747915316373,-0.6802100227244198
1772794468468795600,2.753795654296875,-0.08119242856502533,-0.3996251218233257,-0.721123559327796
1772794468478840300,2.76384033203125,-0.20303250933885572,-0.45008276837412264,-0.5900965480137617
1772794468488885500,2.773885498046875,-0.3081704616367817,-0.4453243948658928,-0.5155661346212029
1772794468498929400,2.783929443359375,-0.3220423351228237,-0.38151166524477303,-0.2970954523276538
1772794468508974600,2.793974609375,-0.36588030780553815,-0.28616151372333987,-0.04204268676377833
1772794468519019300,2.804019287109375,-0.4382441177487373,-0.2582585576015524,0.08999686259366571
1772794468529064400,2.814064453125,-0.44548809752762314,-0.2718316673367284,0.09101962977014481
1772794468539108600,2.824108642578125,-0.45212359001934527,-0.3062025956299156,-0.039332039565593
1772794468549153500,2.834153564453125,-0.4593745840609073,-0.35703196156993505,-0.12256138078570365
1772794468559198500,2.844198486328125,-0.37945407512784,-0.38717107924595473,-0.21537848843187093
1772794468569243400,2.854243408203125,-0.2621995685786009,-0.37928956874851133,-0.2618770586259663
1772794468579287600,2.86428759765625,-0.15130173757970333,-0.36805341406092046,-0.18256036080494523
1772794468589332200,2.874332275390625,-0.20192074870467186,-0.27158236875077707,-0.01128843286409974
1772794468599377400,2.88437744140625,-0.41998248487114903,-0.2177550265711732,0.0521816573318094
1772794468609422300,2.89442236328125,-0.7081225503921509,-0.20314652763996272,0.05375877045542001
1772794468619466500,2.904466552734375,-1.0030360555708409,-0.19311909115500747,-0.04741875377893447
1772794468629511400,2.914511474609375,-1.1694026758134364,-0.18795149752506984,-0.2525246353257447
1772794468639556400,2.924556396484375,-1.1552549079954624,-0.16096777514005078,-0.51024939657785
1772794468649601500,2.9346015625,-0.9364946681708097,-0.18099245390109717,-0.81427567108199
1772794468659645400,2.9446455078125,-0.6855436388373375,-0.20346450754795223,-1.068992117363587
1772794468669690400,2.9546904296875,-0.3472907581478357,-0.20063458135165274,-1.218335998873785
1772794468679735300,2.9647353515625,-0.016477672070264817,-0.19098986057396977,-1.1929407877892255
1772794468689780500,2.974780517578125,0.2951192568838596,-0.15108941000327467,-1.1223694142207503
1772794468699824400,2.984824462890625,0.6719476596832274,-0.10707089312188327,-0.9565567015338688
1772794468709869300,2.994869384765625,1.015204632270336,0.01910758218243718,-0.5781318963885307
1772794468719914500,3.00491455078125,1.2531710923463106,0.10534662661254406,-0.20302403377145528
1772794468729958700,3.014958740234375,1.3751625642895697,0.13789528964832423,0.09276618117652832
1772794468740003300,3.02500341796875,1.4267647412329911,0.22500154536701739,0.31683292991146444
1772794468750048500,3.035048583984375,1.3602034800887106,0.2510661801457405,0.5286083523500711
1772794468760093400,3.045093505859375,1.2663754418343305,0.2515222533501685,0.6923835678599775
1772794468770137600,3.0551376953125,1.1628607068240642,0.32484190271347757,0.8090562559332698
1772794468780182300,3.065182373046875,0.9640846858859061,0.44325690440945326,0.8652377965562045
1772794468790227500,3.0752275390625,0.6686673228383064,0.5204946039993316,0.9198932966556399
1772794468800272400,3.0852724609375,0.32162849362492557,0.591179740140587,0.9611498014777898
1772794468810316500,3.095316650390625,0.0034960254222154616,0.6052507894605398,0.9171757082600146
1772794468820361500,3.105361572265625,-0.19108312834799288,0.6191501354753971,0.7916101772222668
1772794468830406400,3.115406494140625,-0.3269920664846897,0.6127881261628121,0.5869236901313066
1772794468840451600,3.12545166015625,-0.3503676813751459,0.5158418097574263,0.22858254565894603
1772794468850495200,3.1354951171875,-0.31523440867364405,0.296526128007099,-0.1554345996007323
1772794468860540400,3.14554052734375,-0.24667934336364267,0.07593786903768777,-0.5865638438429683
1772794468870585300,3.15558544921875,-0.20305705925822257,-0.1704984593503177,-1.0184536241289228
1772794468880630500,3.165630615234375,-0.13765373597741126,-0.4299843119908124,-1.3759044686980544
1772794468890674400,3.17567431640625,-0.09499474394619464,-0.6542316779896616,-1.5536689735285938
1772794468900719400,3.18571923828125,-0.13871756581664085,-0.7423722451921552,-1.4319301611721515
1772794468910764500,3.1957646484375,-0.24609248338639736,-0.6863462604571133,-1.1354965337540954
1772794468920808400,3.205808349609375,-0.3698527185678482,-0.49840420661382373,-0.77147829349339
1772794468930853400,3.215853271484375,-0.45273032374083994,-0.2801544735945761,-0.3080911127902567
1772794468940898300,3.225898193359375,-0.5353098227500915,-0.1025089189685881,0.24556634062044322
1772794468950943500,3.235943603515625,-0.5413596243083477,0.10831548635549842,0.6046797846395522
1772794468960987400,3.2459873046875,-0.40976445771753783,0.28272052469030023,0.8909096326250583
1772794468971032300,3.2560322265625,-0.24785715497136115,0.36187976692728696,1.077662695879489
1772794468981077500,3.266077392578125,-0.03814472947716713,0.39295455801822243,1.171627146929875
1772794468991122400,3.276122314453125,0.05262684381604194,0.42043958098888395,1.1936729014560579
1772794469001166300,3.286166259765625,0.031903789260983466,0.36795441066585477,1.1905527966741472
1772794469011211500,3.29621142578125,0.11347264992296695,0.2934518351282924,1.1484988578639923
1772794469021256400,3.30625634765625,0.19516484470367432,0.25605807014890014,0.9674664372786879
1772794469031301400,3.31630126953125,0.30487142009139057,0.25119221767820415,0.7331352649651467
1772794469041345300,3.32634521484375,0.45630993579328055,0.2564994572408497,0.5271307540781796
1772794469051390500,3.336390380859375,0.5877133792042731,0.28463001157343387,0.29825010225549337
1772794469061435400,3.346435302734375,0.6818021142214536,0.28308037097863853,0.1225536358706653
1772794469071480600,3.35648046875,0.7126917580038309,0.26864808713085947,0.030269392992183564
1772794469081524500,3.3665244140625,0.7158668809086084,0.2632758195079863,-0.020563991535827518
1772794469091569400,3.3765693359375,0.6772410899162292,0.23822693764306604,0.09171068077422678
1772794469101614600,3.386614501953125,0.5361228926986455,0.22191366235427556,0.15886764278933405
1772794469111659500,3.396659423828125,0.4306120154350996,0.21954064961262046,0.1505541340827942
1772794469121703400,3.406703369140625,0.40336978824436664,0.22175269963890312,0.16395261790342627
1772794469131748400,3.416748291015625,0.4851911623626947,0.26066439490057525,0.14493022978641093
1772794469141793500,3.42679345703125,0.6118722534269094,0.2535281863451004,0.09894589272476732
1772794469151837400,3.43683740234375,0.6033569385379552,0.23553543353676795,0.1627768521223217
1772794469161882400,3.44688232421875,0.5765121862322091,0.30206016206294295,0.02224200775064528
1772794469171927600,3.456927490234375,0.45833647318482396,0.2927791234984994,-0.055594899841397996
1772794469181972500,3.466972412109375,0.3208072403699159,0.22448833514787256,0.0027416999235749242
1772794469192016400,3.477016357421875,0.1473515386492014,0.21177352274246514,0.06125577514730394
1772794469202061300,3.487061279296875,-0.04458090000450611,0.1872499799259007,0.06453479681797325
1772794469212106500,3.4971064453125,-0.24236790990531443,0.14211714512705803,0.03417662956379354
1772794469222151400,3.5071513671875,-0.47382688778340815,0.08946165973842143,-0.041909488838166
1772794469232195300,3.5171953125,-0.6514531531870364,0.014343509585782885,-0.10838248717710375
1772794469242240500,3.527240478515625,-0.7337514971673488,-0.05093059782478958,-0.17299699816778302
1772794469252285400,3.537285400390625,-0.6609533874601126,-0.06860496886633335,-0.27108883134648204
1772794469262330600,3.54733056640625,-0.47213528143465516,-0.05896686049252748,-0.2740397170413285
1772794469272374300,3.557374267578125,-0.24596155048310755,-0.03685264384001493,-0.23682547334730625
1772794469282419500,3.56741943359375,-0.02589431971311569,0.04434139216020703,-0.21220095437429845
1772794469292464400,3.57746435546875,0.09619944356083869,0.18616072338446973,-0.10989596047997474
1772794469302509600,3.587509521484375,0.09008826720416545,0.2679643426503986,0.04050809760764241
1772794469312553500,3.597553466796875,0.07590718163847923,0.28370288679115474,0.11904190142266452
1772794469322598400,3.607598388671875,0.09670856212675571,0.20120617069453,0.17188618738166986
1772794469332643600,3.6176435546875,0.12831599878966807,0.1485047272723168,0.1282397917483002
1772794469342688500,3.6276884765625,0.10144435847699641,0.07511091669425368,0.1294335315775126
1772794469352732400,3.637732421875,0.04507014482617378,0.042354821452870964,0.1700258734025061
1772794469362777300,3.64777734375,0.03830371943116188,0.04282799192257225,0.1917556207820773
1772794469372822500,3.657822509765625,0.11365326718688011,0.06823211696594954,0.20854089749678967
1772794469382866400,3.667866455078125,0.17640578369796275,0.105462361946702,0.21933606695123015
1772794469392911400,3.677911376953125,0.22758944296836853,0.13025339659303425,0.20772665850445626
1772794469402956500,3.68795654296875,0.2003676740437746,0.10041563648376613,0.15411182656437158
1772794469413001500,3.69800146484375,0.08838204780817031,0.09022749301176518,0.055981999462842935
1772794469423045400,3.70804541015625,-0.09943886387348175,0.053074843311868604,-0.04596987014487385
1772794469433090600,3.718090576171875,-0.2384393382847309,0.06572996141929179,-0.10821955170035362
1772794469443135500,3.728135498046875,-0.32007074278891084,0.059331017629802224,-0.13292415017224848
1772794469453180700,3.7381806640625,-0.26379472881555555,0.057901569348573684,-0.15733130006752907
1772794469463224300,3.748224365234375,-0.10767010112404822,0.053277160950936375,-0.17982516368739307
1772794469473269500,3.75826953125,0.0367822089523077,0.05274382125921547,-0.1193902034036815
1772794469483314400,3.768314453125,0.18187340145409106,0.07757621082924306,-0.07260755557119845
1772794469493359600,3.778359619140625,0.27247780148684975,0.0752015175871551,-0.05311557718105614
1772794469503403500,3.788403564453125,0.30298224534392354,0.0693390552945435,-0.013818828124552965
1772794469513448400,3.798448486328125,0.30987492746710776,0.045980683799833055,0.031070991698652503
1772794469523493600,3.80849365234375,0.29005437470972534,0.00483012357018888,0.07529270300194621
1772794469533538300,3.818538330078125,0.2553998254358768,-0.009487667052447796,0.15818572493977845
1772794469543582500,3.82858251953125,0.19867314508557318,0.011008045020140706,0.2164347194865346
1772794469553627400,3.83862744140625,0.11257365525662898,0.027546215105988085,0.24723471222408114
1772794469563672600,3.848672607421875,0.07447334944307804,0.07378419813513755,0.27979228921867905
1772794469573717200,3.85871728515625,0.051419806113839145,0.10843516721241175,0.3278227451551705
1772794469583761400,3.868761474609375,0.0383767846673727,0.17306403552200644,0.2982303746417165
1772794469593806600,3.878806640625,0.0089624741345644,0.1616762704692781,0.28608810142725705
1772794469603851500,3.8888515625,-0.05874561895728111,0.10445954157970845,0.2288585130561143
1772794469613896400,3.898896484375,-0.09560907645225525,0.04650094481427222,0.11323504177480935
1772794469623940400,3.9089404296875,-0.07414893979430198,0.04757803599387407,0.010425751620158552
1772794469633985500,3.918985595703125,-0.04735796350240707,0.03690430096201598,-0.007514394218102097
1772794469644030200,3.9290302734375,-0.08089373787939548,0.011721636649593711,-0.08140585211999714
1772794469654075400,3.939075439453125,-0.0997287867307663,0.01653374963905662,-0.1412238495491445
1772794469664119600,3.94911962890625,-0.07481529474854469,0.03924136560745537,-0.10367781661748886
1772794469674164500,3.95916455078125,-0.045537177816033364,0.0880254894554615,-0.10692293601855635
1772794469684209400,3.96920947265625,-0.07944003193974494,0.14614238205514848,-0.025730434388294813
1772794469694253600,3.979253662109375,-0.08526186996102332,0.20848397967778146,-0.008461173548921942
1772794469704298200,3.98929833984375,-0.11776187154948711,0.15272581556607037,0.10207929537966846
1772794469714343400,3.999343505859375,-0.09948621014654636,0.1093137401452288,0.19800708239227532
1772794469724388400,4.009388427734375,0.02318155362308025,0.11134619582090526,0.1363983290888369
1772794469734432300,4.019432373046875,0.17068915961682796,0.12234510768651961,0.04178498567566275
1772794469744477200,4.029477294921875,0.2797738037139177,0.06719236212205142,-0.049226314657554025
1772794469754522400,4.0395224609375,0.32095570892989633,0.01915401514004916,-0.0873261090144515
1772794469764567300,4.0495673828125,0.3005108867943287,-0.044672669941186904,-0.10680537405349314
1772794469774611200,4.059611083984375,0.25628654514253135,-0.1308773371776566,-0.1868145841833204
1772794469784656400,4.069656494140625,0.18752806621491908,-0.23925375994015483,-0.1790275835689157
1772794469794701300,4.079701416015625,0.16810557286441324,-0.18018548489976674,-0.2439156508039683
1772794469804746500,4.08974658203125,0.1824602614313364,-0.14847758353706447,-0.2640522107079625
1772794469814790100,4.0997900390625,0.14320143323242662,-0.10290343471150845,-0.24317820337489246
1772794469824835300,4.10983544921875,0.040191725134849546,-0.0075758420817553995,-0.20123883085511624
1772794469834880300,4.11988037109375,-0.07234627428650856,0.03736216426473111,-0.15397935929112136
1772794469844925400,4.129925537109375,-0.1725602141857147,0.03969192238654941,-0.10615633556023239
1772794469854969300,4.13996923828125,-0.20365385610759257,0.02959021508898586,-0.04576689491868019
1772794469865014300,4.15001416015625,-0.18852350699305534,0.009190729932487011,-0.02436915597245097
1772794469875059500,4.1600595703125,-0.1996791072577238,0.025926943341083822,0.04420870569124818
1772794469885104400,4.1701044921875,-0.27742753284871574,0.07287497433573008,0.13525968044772743
1772794469895148300,4.180148193359375,-0.37197044137418267,0.08563073980603367,0.1854112932566553
1772794469905193200,4.190193115234375,-0.38944004709124563,0.08547587803788483,0.19603380955792962
1772794469915238400,4.20023828125,-0.3123825263738632,0.05030190799981355,0.2110549261443317
1772794469925283300,4.210283447265625,-0.15124796156585216,0.019829795509763062,0.1690213725350797
1772794469935327200,4.2203271484375,0.05227028546333313,0.002946026856638491,0.08408588498421013
1772794469945372400,4.230372314453125,0.23781740699410436,-0.012202734697423875,0.05294701568111777
1772794469955417300,4.240417236328125,0.34731472354531284,0.03582063391115516,0.02901201334223151
1772794469965461200,4.250461181640625,0.3514969776660204,0.051111616947501895,0.006407894280925393
1772794469975506400,4.26050634765625,0.27926351610422134,0.03484320371374488,-0.05668510623089969
1772794469985551400,4.27055126953125,0.204302090883255,0.0005883212819695473,-0.09773235221654177
1772794469995596300,4.28059619140625,0.1428758545398712,-0.028710217384062705,-0.15134966837465763
1772794470005640200,4.29064013671875,0.11283902819454669,-0.034892559280805285,-0.15663170043081046
1772794470015685400,4.300685302734375,0.08693535613119602,0.008415142450109124,-0.12120514387115836
1772794470025730300,4.310730224609375,-0.00749240158200264,0.05278736813999712,-0.06667071286812425
1772794470035775500,4.320775390625,-0.09850012171864508,0.06081422365857288,-0.03713496791273355
1772794470045819400,4.3308193359375,-0.09092471802830696,0.06707775929905474,-0.07134842235557734
1772794470055864300,4.3408642578125,-0.1102811604052782,0.006213668616767972,-0.02396693184711039
1772794470065909500,4.350909423828125,-0.14548340668976306,0.009200009217485785,-0.04922653385326266
1772794470075954400,4.360954345703125,-0.1335135674327612,0.027964696246385572,-0.14007299901358783
1772794470085998300,4.370998291015625,-0.12972528106570244,0.03770321452105418,-0.10643953641578555
1772794470096043300,4.381043212890625,-0.15083821172118186,0.03453629318904131,-0.05660371155776083
1772794470106088400,4.39108837890625,-0.10714227785766124,0.04603661523815244,-0.020197277115285395
1772794470116133000,4.401133056640625,-0.005642974323034286,0.10021412256229668,-0.004725567217171192
1772794470126177300,4.41117724609375,0.07571428941488266,0.12762929516714067,0.04521715208142996
1772794470136222500,4.421222412109375,0.16774258477091789,0.14411142421681433,0.09079108171127737
1772794470146267400,4.431267333984375,0.22099954318404197,0.12975918333530426,0.11197678534202277
1772794470156312300,4.441312255859375,0.24986206505298614,0.09962222108375281,0.08195325686968863
1772794470166356200,4.451356201171875,0.194812962526083,0.07340721804890782,0.05740070715434849
1772794470176401400,4.4614013671875,0.15321780033409593,0.04919968237895518,0.06226305249370634
1772794470186446300,4.4714462890625,0.12109949153959751,0.0648598640538752,0.06236081377975642
1772794470196491300,4.4814912109375,0.07984101395606995,0.07022973879026248,0.06930274187214672
1772794470206535400,4.491535400390625,0.05580722741782665,0.07044595709051936,0.033554259881749746
1772794470216580400,4.501580322265625,0.05826221935451031,0.04856951298294589,0.011254457529261708
1772794470226625500,4.51162548828125,0.03589022854864597,0.05699762451248243,-0.027745938929170367
1772794470236670200,4.521670166015625,0.01497252820432186,0.07662603396493942,-0.036341625577956435
1772794470246714400,4.53171435546875,-0.005875614035129547,0.07881481271348893,-0.0464198058694601
1772794470256759300,4.54175927734375,-0.04722469251155853,0.08888787843845784,-0.10472696034424006
1772794470266804200,4.55180419921875,-0.07215338206291198,0.07693427793020383,-0.13175064941346645
1772794470276848400,4.561848388671875,-0.13993278682529925,0.07824462987640872,-0.1619031380277127
1772794470286893300,4.571893310546875,-0.22011457704305648,0.07787976035308092,-0.1916907388523221
1772794470296938500,4.5819384765625,-0.2602320678979158,0.09772731071524321,-0.31417657018378375
1772794470306983200,4.591983154296875,-0.1747919187605381,0.13684594499217345,-0.29453619629889727
1772794470317027300,4.60202734375,-0.08859948995113372,0.1532197182965465,-0.27259156405963003
1772794470327072300,4.612072265625,-0.03344517348408699,0.19094143658867105,-0.2827230819735676
1772794470337117400,4.622117431640625,0.01390986740887165,0.1968377463519573,-0.2088670607112348
1772794470347162400,4.632162353515625,0.0039127895295619965,0.121209874845203,-0.13416823194921015
1772794470357206300,4.642206298828125,0.10130699583292006,0.0878087779648602,-0.1316471159737557
1772794470367251500,4.65225146484375,0.18344576533734797,0.06164771534064784,-0.057324207852035756
1772794470377296100,4.662296142578125,0.21141864489018916,0.03655446461103856,-0.03158705146200955
1772794470387341300,4.67234130859375,0.23622809197604655,0.01414163033813238,-0.013413827520236373
1772794470397385500,4.682385498046875,0.20660393808484076,0.020710286405030635,0.09676474929340183
1772794470407430400,4.692430419921875,0.17524316965937614,0.06815556286470964,0.10308679192177951
1772794470417475300,4.702475341796875,0.058985857453942296,0.1082194421024993,0.09547178687341511
1772794470427520300,4.712520263671875,-0.07843523881137371,0.11793176648998632,0.0987978625562042
1772794470437564400,4.722564453125,-0.21337094800174236,0.12956691216621546,0.05200177072025835
1772794470447609300,4.732609375,-0.3377449311673641,0.1643308400986716,0.010659633441269398
1772794470457654300,4.742654296875,-0.4091103777229786,0.1783657038603909,-0.01329378133714199
1772794470467699200,4.75269921875,-0.36697044112980365,0.16837863591844215,-0.05393573445752263
1772794470477743400,4.762743408203125,-0.18745090932548045,0.09663730525514111,-0.14813852430842817
1772794470487788500,4.77278857421875,0.056342064946889876,0.0017567805394530294,-0.23230061633400617
1772794470497833200,4.782833251953125,0.30336276909410953,-0.03580247719995677,-0.2752261503469199
1772794470507878400,4.79287841796875,0.49238662682473655,-0.024667956255935132,-0.2378324584327638
1772794470517922300,4.80292236328125,0.5548889679670334,0.02600881293825805,-0.14768259723447263
1772794470527967200,4.81296728515625,0.5142869084656239,0.07938914200272411,-0.08617876561023294
1772794470538012200,4.82301220703125,0.4385422239124775,0.11467066406849771,-0.03569302547611296
1772794470548057300,4.833057373046875,0.29370646747648715,0.056694020189717406,0.05179784564599395
1772794470558101500,4.8431015625,0.1928688427209854,0.013321034670248626,0.048840749406069514
1772794470568146200,4.853146240234375,0.1192524023681879,0.009290062121115624,0.0016937983058393001
1772794470578191400,4.86319140625,0.06263327404558658,-0.00926295491848141,0.02754537485577166
1772794470588236300,4.873236328125,0.03951309522092342,-0.00327525881100446,0.02553286598958075
1772794470598280400,4.883280517578125,-0.00991407577097416,0.004678531471360475,0.06743892076164483
1772794470608325000,4.8933251953125,-0.04468085324764252,0.01830106983883306,0.14092450127638875
1772794470618370300,4.903370361328125,-0.1399877318829298,0.013527864087652414,0.25178039282970127
1772794470628414500,4.91341455078125,-0.15560557225346563,0.011538096776232123,0.20710465414859353
1772794470638459100,4.923459228515625,-0.13875263713002203,-0.05126103535555303,0.13090521156527102
1772794470648504300,4.93350439453125,-0.11023264508843421,-0.13312628514822572,0.06173493696637451
1772794470658549200,4.94354931640625,-0.1137842000901699,-0.13179397709853946,-0.013808160600066184
1772794470668593400,4.953593505859375,-0.16746552139520643,-0.05432464244356379,-0.06361549001596868
1772794470678638300,4.963638427734375,-0.20991876172125337,0.004664996136352419,-0.07895765525028109
1772794470688683300,4.973683349609375,-0.1989081228852272,0.002182239409908652,-0.1256848465684801
1772794470698728400,4.983728515625,-0.13859598526358605,-0.017094013870321213,-0.13758344722017646
1772794470708772400,4.9937724609375,-0.09601356559991836,-0.037960568549297746,-0.15517477962076662
1772794470718817500,5.003817626953125,-0.06529927838444709,-0.01839861192917451,-0.169978015672788
1772794470728862200,5.0138623046875,-0.051802083429694175,-0.022268840958643704,-0.15295527694039046
1772794470738907400,5.023907470703125,-0.04092646915018558,-0.0027373890746384857,-0.14181713926717637
1772794470748951600,5.03395166015625,-0.009881927067041397,-0.022735399024467914,-0.10058357692919671
1772794470758996200,5.043996337890625,0.06830196733176708,-0.02170801047179848,-0.05829312594942748
1772794470769041400,5.05404150390625,0.14715338572859762,-0.03829882406033575,-0.00824175864458084
1772794470779086300,5.06408642578125,0.2575005971074104,-0.05249605704322457,0.0005796265188604593
1772794470789130500,5.074130615234375,0.3347036637753248,-0.030471162641979754,0.02930778141841292
1772794470799175200,5.084175048828125,0.3338753962576389,-0.034048144345916805,0.06517872074469924
1772794470809220400,5.094220458984375,0.2557084529936314,-0.020680110462475566,0.056439899298176166
1772794470819265300,5.104265380859375,0.13174714228212833,0.004978884391114115,0.02030073748975992
1772794470829309400,5.114309326171875,-0.005770400094985962,0.019426183144934474,0.02107924758158624
1772794470839354400,5.124354248046875,-0.10097381835579872,0.011382303426321596,-0.019116276945546268
1772794470849399300,5.1343994140625,-0.12471592847108841,-0.023138299003243445,-0.06139971366263926
1772794470859444500,5.144444580078125,-0.08045067028701305,-0.061738553695566946,-0.053820948971435426
1772794470869488400,5.15448828125,-0.033166356542706485,-0.08870846675094217,-0.07964110746979713
1772794470879533300,5.164533203125,0.0052688803136348725,-0.10278251174557954,-0.06737308898381889
1772794470889578200,5.174578125,-0.004772036707401275,-0.08789335097577422,-0.04444558318704366
1772794470899623400,5.18462353515625,-0.037976387172937394,-0.051417869885079556,0.03153378690481186
1772794470909667300,5.194667236328125,-0.11084697759449481,0.005115735578536987,0.10963095286823808
1772794470919712300,5.204712158203125,-0.16365969937145708,0.033114735953323544,0.14616517840884624
1772794470929757400,5.21475732421875,-0.21299685399234294,0.02693407455701381,0.0982395710863173
1772794470939802400,5.22480224609375,-0.24759938081800936,-0.014186601991020143,0.09498524546548724
1772794470949846300,5.23484619140625,-0.3062707654953003,-0.030744718886353075,0.0982422745000571
1772794470959891200,5.24489111328125,-0.29190555553436276,-0.0239541819633916,0.014252908692881464
1772794470969936400,5.254936279296875,-0.22618892852067946,-0.012685549778304994,-0.022185236062109467
1772794470979980500,5.26498046875,-0.08837970972061157,0.05181044939924031,-0.01769596181884408
1772794470990025200,5.275025146484375,0.09638122986853122,0.13166143676005304,-0.010118950693309307
1772794471000070400,5.2850703125,0.21043957072496414,0.15342683997489512,0.0151679046459496
1772794471010115300,5.295115234375,0.2705155615031719,0.17343334375843406,0.06247128841690719
1772794471020159500,5.305159423828125,0.28611995787024497,0.1400478280397132,0.017197510777413844
1772794471030204400,5.315204345703125,0.2853554032385349,0.09139109343104064,-0.04742511045448482
1772794471040249300,5.325249267578125,0.25184300973713397,0.06136778415441513,-0.11544183110408485
1772794471050294300,5.335294189453125,0.22116671644449232,0.03110493050087243,-0.13374986040666698
1772794471060338200,5.345338134765625,0.1916220575302839,-0.006207074479199945,-0.14000227186493575
1772794471070383400,5.35538330078125,0.21944822208881376,-0.02022303261104971,-0.1453750509444624
1772794471080428300,5.36542822265625,0.2626443897366524,0.020439780634269118,-0.1407850928056985
1772794471090473500,5.375473388671875,0.2835708579093218,0.04495576119888574,-0.11528583682477474
1772794471100517400,5.385517333984375,0.244918178910017,0.035495676273107526,-0.030369565431028603
1772794471110562300,5.395562255859375,0.14068214388787745,0.06358823668286204,-0.03182027569599449
1772794471120607500,5.405607421875,0.05804243912398815,0.06055628510843962,-0.058285307969152926
1772794471130652400,5.41565234375,-0.0484592027425766,0.05993797054700553,-0.01670271299779415
1772794471140696300,5.4256962890625,-0.11951894434988498,0.06069821432977914,0.009642200027033686
1772794471150741200,5.4357412109375,-0.07241057169437408,0.02722673736065626,-0.005581307263672351
1772794471160786400,5.445786376953125,0.036521512189507485,0.031467735931277274,0.030001389705762264
1772794471170831400,5.455831298828125,0.08204349243640899,-0.0025946196030825373,0.010203706367313862
1772794471180875300,5.465875244140625,0.09621405660808086,-0.038949031597375866,-0.03530234565809369
1772794471190920400,5.47592041015625,0.05687105725705623,-0.042332682686299083,-0.008710106808692216
1772794471200965400,5.48596533203125,0.010981412741541862,-0.012225750246830284,0.034061551816761494
1772794471211010600,5.496010498046875,-0.018949615141749383,-0.006818228647485375,-0.0463954751458019
1772794471221054200,5.50605419921875,0.05286532874703407,0.06671944738067687,-0.04977898010425269
1772794471231099400,5.516099365234375,0.10003858333230017,0.04545220294632017,0.0279520559605211
1772794471241144300,5.526144287109375,0.12608312517106532,0.006282806596532463,0.04091017560251057
1772794471251189500,5.536189453125,0.1896060415327549,-0.01871960577815771,0.025065467673540114
1772794471261233400,5.5462333984375,0.18608605071306228,-0.045696569628827274,0.016671075750514863
1772794471271278300,5.5562783203125,0.13908289199769497,-0.02813048126734793,-0.0010644874263554811
1772794471281323500,5.566323486328125,0.04699906706213951,-0.05056340848021209,0.014792568527534604
1772794471291368200,5.5763681640625,-0.061659460577368735,-0.021081622201763094,-0.013048574404418468
1772794471301412400,5.586412353515625,-0.17483225077092646,0.010416399269923568,-0.04137267854772508
1772794471311457300,5.596457275390625,-0.18413959282040596,0.017749957028403877,-0.038459421449527145
1772794471321502500,5.60650244140625,-0.22513445103168486,0.004454787451773881,-0.055766018624603744
1772794471331546400,5.61654638671875,-0.20707623177170753,0.014553279878944158,-0.07728409601487218
1772794471341591300,5.62659130859375,-0.1411293031334877,-0.0011786153253167868,-0.09710976333878933
1772794471351636500,5.636636474609375,-0.07656301519870758,-0.024802725084125996,-0.07573876626901328
1772794471361681400,5.646681396484375,-0.00005377601385116577,-0.02977784661557525,-0.05392711275964975
1772794471371725300,5.656725341796875,0.0677343965768814,-0.03344539267979562,-0.02750029360502958
1772794471381770500,5.6667705078125,0.10497487069070338,-0.02171031202673912,-0.0175610833927989
1772794471391815400,5.6768154296875,0.1868342387318611,0.0036517639731988307,0.008869900480285287
1772794471401860400,5.6868603515625,0.23273498916327953,0.002157726023159921,0.042988297050818795
1772794471411904300,5.696904296875,0.15044365944564342,0.0018942893140017985,0.08444507368542253
1772794471421949400,5.706949462890625,0.025593875461816785,-0.01519935923013836,0.11201587524339555
1772794471431994400,5.716994384765625,-0.08061199832856655,-0.03916987127382308,0.09016703152880072
1772794471442039300,5.727039306640625,-0.14837679004371165,-0.05276954022236168,0.09821465584076941
1772794471452083500,5.73708349609375,-0.10990005213320254,-0.04878375852182507,0.08062025470025837
1772794471462128400,5.74712841796875,0.00912672478556633,-0.036726606307551264,0.09203172942213714
1772794471472173600,5.757173583984375,0.11481997287869453,-0.014835969277843832,0.09249247880168258
1772794471482218200,5.76721826171875,0.13538403747975825,0.015583974633552133,0.07940729871392249
1772794471492262400,5.777262451171875,0.037327567875385284,0.06429510631058365,0.06627798722349107
1772794471502307300,5.787307373046875,-0.07098667637109755,0.037314964122138916,0.044988823218271135
1772794471512352500,5.7973525390625,-0.06318272462189198,0.05135620282571762,-0.010372340932488441
1772794471522397200,5.807397216796875,-0.05916121402084827,0.05245948789250105,0.0025460312210023404
1772794471532441300,5.81744140625,-0.07187514964342116,0.0584802460193634,0.03222644534409046
1772794471542486500,5.827486572265625,-0.06563830108046531,0.06679569095466285,0.015009645344316959
1772794471552531500,5.837531494140625,-0.055526656910777086,0.0677248615635559,0.0065739715628325935
1772794471562576400,5.847576416015625,-0.007837269496917725,0.061828168207779526,0.00878587545864284
1772794471572620300,5.857620361328125,0.08155424761474132,0.04913450818825513,-0.0039641543906182046
1772794471582665500,5.86766552734375,0.18009703943133354,0.05037307353988289,-0.04655227314271033
1772794471592710100,5.877710205078125,0.1731616872102022,0.061172444245405494,-0.05254683738239109
1772794471602755300,5.88775537109375,0.12349720033109188,0.06388141094315797,-0.036298151762410996
1772794471612799500,5.897799560546875,0.06207447111904621,0.04604432362057268,-0.04046761946678162
1772794471622844400,5.907844482421875,0.034276948133110996,0.03534231234230101,-0.05326645689383149
1772794471632889300,5.917889404296875,0.05981120236217975,0.02196476171184331,-0.09557422433458268
1772794471642934300,5.927934326171875,0.12009703649878502,0.02876662374641746,-0.11216653576046227
1772794471652978400,5.937978515625,0.17084288887381552,0.029992000822909176,-0.08878741373866796
1772794471663023400,5.9480234375,0.18294541459977626,0.04875197514407337,-0.07059577735736966
1772794471673068300,5.958068359375,0.15598375791609287,0.07014573203492909,-0.05062025323398411
1772794471683112400,5.968112548828125,0.10114625231325626,0.10430150147378445,-0.0030953356668353077
1772794471693157400,5.978157470703125,0.05606032539606094,0.1149257713407278,0.012550634819641708
1772794471703202800,5.988202880859375,0.006764671829342842,0.14400222822129727,0.05281535212546587
1772794471713247700,5.998247802734375,-0.03284019332826137,0.1645947882644832,0.03952142465785145
1772794471723292000,6.0082919921875,-0.08017009977996349,0.15792027893662453,0.016784765258058904
1772794471733336800,6.0183369140625,-0.10722820257544517,0.148801116403006,-0.023676205272227524
1772794471743381800,6.0283818359375,-0.0831190127134323,0.11650430923644453,-0.06571012420766055
1772794471753426700,6.0384267578125,-0.03944587520360946,0.12229410815164446,-0.09048603435009718
1772794471763470800,6.048470947265625,-0.008652093011140822,0.12930387731585652,-0.09848141701817512
1772794471773516000,6.05851611328125,-0.013206103053689001,0.15423245726935564,-0.06567731791660189
1772794471783560700,6.068560791015625,-0.016557751569151877,0.17936810410227624,-0.07775478226654231
1772794471793606000,6.07860595703125,-0.06246785435080528,0.16110153932124374,-0.08240816103033721
1772794471803649800,6.08864990234375,-0.11375555851757525,0.15891984790060668,-0.04867781392931938
1772794471813694700,6.09869482421875,-0.14868717116713523,0.09799399882741272,-0.018205811037123203
1772794471823739600,6.10873974609375,-0.1519219153046608,0.04595675493497401,-0.05907872336916625
1772794471833784800,6.118784912109375,-0.1286538524419069,-0.010698759875260293,-0.1044962933935225
1772794471843829000,6.1288291015625,-0.07978782246410847,-0.01800495470277965,-0.08260266068913041
1772794471853873700,6.138873779296875,-0.04152794217467308,0.018861608064733446,-0.026987448712065813
1772794471863918800,6.1489189453125,0.0073334116280078885,0.005367189588956534,-0.027099092392995953
1772794471873963800,6.1589638671875,0.07792787381112574,0.007012107251770794,0.0024769845727831124
1772794471884008000,6.169008056640625,0.15541794072687626,-0.03717394821625203,0.008049670138582586
1772794471894052900,6.179052978515625,0.24855916576087472,-0.04879899262357503,0.03486600006744266
1772794471904097800,6.189097900390625,0.34511107602119445,-0.012212160112895071,0.0305673530254513
1772794471914142700,6.199142822265625,0.3613105156719684,-0.0072553414231166236,0.05410641484931111
1772794471924186600,6.2091865234375,0.3467085743457079,-0.007783931874483823,0.07066679676696658
1772794471934231800,6.219231689453125,0.28993922389745713,-0.015327661784924566,0.06507299534790217
1772794471944276700,6.22927685546875,0.22549802364706992,-0.005858918628655374,0.040733065469935534
1772794471954322000,6.239322021484375,0.1533247678399086,-0.005762362919002771,-0.007361468678712844
1772794471964365800,6.24936572265625,0.04170914396047592,0.011390176205523312,-0.054759910321980715
1772794471974410800,6.25941064453125,-0.06939969944059848,0.050786915037780996,-0.09690145435035229
1772794471984456000,6.2694560546875,-0.11722761854231357,0.056016157460771494,-0.09525945929698645
1772794471994500900,6.2795009765625,-0.10046060813665389,0.07417484142053872,-0.08146276993900536
1772794472004544800,6.289544677734375,-0.060657590058445926,0.04321845254488289,-0.049768750971183176
1772794472014589700,6.299589599609375,-0.001917231798171997,0.05263915530834347,-0.031542846994102
1772794472024635000,6.309634765625,0.05004676419496536,0.02636146230082959,0.021882015331834554
1772794472034679800,6.3196796875,0.03958616045713424,-0.020380963119119404,0.06504201568774878
1772794472044723700,6.3297236328125,0.018560908085107804,-0.026975356415472922,0.07964205731786787
1772794472054769000,6.339768798828125,-0.046342064458131785,-0.007927468531019985,0.08753887498229741
1772794472064813800,6.349813720703125,-0.0979676222771406,-0.007170731879584491,0.10440737300105392
1772794472074859000,6.35985888671875,-0.12306173152327538,0.02613390062265098,0.08128324865363538
1772794472084902700,6.369902587890625,-0.17227438298165798,0.0097023692490533,0.02854329985193908
1772794472094947800,6.37994775390625,-0.1808563333660364,0.015079751438461244,0.03254683640487492
1772794472104992800,6.38999267578125,-0.07972001792490482,0.013909429017454384,-0.04984093942455947
1772794472115038000,6.400037841796875,0.008838555493950843,0.009057714669965206,-0.05704224910549819
1772794472125081900,6.410081787109375,0.056796822977066036,0.035169403460808095,-0.07808313743807375
1772794472135126800,6.420126708984375,0.0788970111042261,0.03432685168944299,-0.09814823954105377
1772794472145172000,6.430171875,0.08763853596448898,0.03374408336542547,-0.10352795981802046
1772794472155217000,6.440216796875,0.08206395070254802,0.05721534065008163,-0.09754121355861425
1772794472165260800,6.4502607421875,0.06839782892167567,0.06740739311221987,-0.10328699066899716
1772794472175305700,6.4603056640625,0.11554711810946464,0.0651217663930729,-0.10695859185382724
1772794472185351000,6.470350830078125,0.1779115120857954,0.08093304697647691,-0.07186148644424975
1772794472195394800,6.480394775390625,0.21239947262108325,0.09375351171344518,-0.029642858591675758
1772794472205439700,6.490439697265625,0.2308925761669874,0.06888681801501662,-0.007244856561720371
1772794472215485000,6.50048486328125,0.19494857160449028,0.006605097353458404,-0.02790507501363754
1772794472225529900,6.51052978515625,0.18639350922703743,-0.023982494742423293,-0.044859132423996924
1772794472235573800,6.52057373046875,0.1474737037241459,-0.032100919268280265,-0.06782507053501903
1772794472245619000,6.530618896484375,0.06715455086231231,-0.014243592875264584,-0.0716978203151375
1772794472255663900,6.540663818359375,-0.04454816677868366,0.008793364645354448,-0.03243789613768458
1772794472265708800,6.550708740234375,-0.09619944356083869,0.02041442699730396,-0.04925188749022782
1772794472275752700,6.560752685546875,-0.09771160168945789,0.04232223435752094,-0.07495652985014022
1772794472285798000,6.5707978515625,-0.10144903465211391,0.042684199537709355,-0.07514562268145382
1772794472295842800,6.5808427734375,-0.10438917975723742,0.02885221967063844,-0.08108202699311078
1772794472305888000,6.590887939453125,-0.12607844899594783,0.039721513807214795,-0.07196969605907798
1772794472315932000,6.600931884765625,-0.08584463828504085,0.05712729704044759,-0.0439685402598232
1772794472325976800,6.610976806640625,-0.0340764571249485,0.02721986922845244,-0.009839695360511541
1772794472336022000,6.62102197265625,0.001620294678211212,-0.0009922989729791879,-0.003743935768678784
1772794472346066700,6.631066650390625,0.025534254229068756,-0.009108020085096358,-0.013459054901450872
1772794472356110800,6.64111083984375,0.03631400691866875,-0.0024771307032555342,-0.02126556393392384
1772794472366155800,6.65115576171875,0.08531798406243324,-0.007291399117186665,-0.028970877614244817
1772794472376201000,6.661200927734375,0.19276129069328307,-0.019642565841972826,-0.01594298067167401
1772794472386245600,6.67124560546875,0.2458943304657936,-0.018033084818720818,0.0023641718480736018
1772794472396289800,6.681289794921875,0.26766134111583234,0.008036226135119796,0.0004937018010765314
1772794472406335000,6.6913349609375,0.25430501593649385,0.030988647177442905,0.028055077943578362
1772794472416380000,6.7013798828125,0.17037468684017656,0.09910904739722609,0.03550795123279094
1772794472426424800,6.7114248046875,0.11866086621582507,0.11495572808757423,0.08996135288886725
1772794472436468700,6.72146875,0.11704349414706229,0.07146240412406622,0.08826594714783131
1772794472446514000,6.731513916015625,0.0686889208227396,0.038890214082226156,0.02060987650416791
1772794472456558600,6.74155859375,-0.0664098699748516,0.04568279683180153,-0.0375646645668894
1772794472466603800,6.751603759765625,-0.18083178344666956,0.006465835013240576,-0.04618300143890083
1772794472476648000,6.76164794921875,-0.20358137539327142,-0.026429084176942706,-0.10795352117531001
1772794472486692900,6.77169287109375,-0.1668833375930786,0.01932962743528187,-0.1087885837599635
1772794472496737800,6.78173779296875,-0.10405658680200576,0.03564677518159151,-0.05979863514155149
1772794472506782700,6.79178271484375,-0.011808511215448379,0.03910699863806367,-0.02655278362184763
1772794472516827000,6.801826904296875,0.07552139719128609,0.056384077457711096,0.00017228782698512076
1772794472526871800,6.811871826171875,0.0616349106580019,0.03181180012859404,0.0029200521651655434
1772794472536916700,6.821916748046875,0.026562428233027457,0.050839741203561425,0.01740413926541805
1772794472546961700,6.831961669921875,-0.04138941048681736,0.05826039272360503,-0.005621493143588304
1772794472557005800,6.842005859375,-0.08197685694098472,0.04532221989110112,-0.039906551517918706
