time,seconds_elapsed,z,y,x
1772794465786851000,0.07185107421875,0.1242426261305809,-0.08982475847005844,-0.0691981092095375
1772794465796895200,0.081895263671875,0.14903610944747925,-0.048081569373607635,-0.012303137220442295
1772794465806940400,0.0919404296875,0.18763837218284607,-0.014202168211340904,0.053725678473711014
1772794465816985000,0.101985107421875,0.22700093686580658,0.024538887664675713,0.13042360544204712
1772794465827030300,0.1120302734375,0.28666985034942627,0.10442333668470383,0.20026154816150665
1772794465837074200,0.12207421875,0.35612356662750244,0.23145009577274323,0.2286941111087799
1772794465847119000,0.132119140625,0.4112342298030853,0.29369404911994934,0.19158482551574707
1772794465857164000,0.1421640625,0.43578052520751953,0.2963418960571289,0.08907129615545273
1772794465867209200,0.152209228515625,0.4287734627723694,0.2512047588825226,-0.024855006486177444
1772794465877253400,0.16225341796875,0.39647039771080017,0.17728252708911896,-0.10917128622531891
1772794465887298000,0.172298095703125,0.37444978952407837,0.16133977472782135,-0.1300683170557022
1772794465897343200,0.18234326171875,0.39900869131088257,0.17700693011283875,-0.10720381885766983
1772794465907387100,0.19238720703125,0.45504504442214966,0.19147083163261414,-0.025325464084744453
1772794465917432300,0.202432373046875,0.4389664828777313,0.21063238382339478,0.0630093440413475
1772794465927477200,0.212477294921875,0.3952943682670593,0.2142534852027893,0.10207312554121017
1772794465937522200,0.222522216796875,0.34145408868789673,0.15064355731010437,0.06983453035354614
1772794465947566300,0.23256640625,0.27788734436035156,0.07372215390205383,0.013810412958264351
1772794465957611000,0.242611083984375,0.2161278873682022,0.03116750344634056,-0.023025667294859886
1772794465967656200,0.25265625,0.17662815749645233,0.03146897256374359,-0.013959469273686409
1772794465977701000,0.262701171875,0.14703086018562317,0.031152164563536644,0.02341841720044613
1772794465987745300,0.272745361328125,0.09560201317071915,0.033498406410217285,0.06050452962517738
1772794465997790200,0.282790283203125,0.03136659786105156,0.07153333723545074,0.08874118328094482
1772794466007835100,0.292835205078125,-0.02072509564459324,0.14191855490207672,0.1063271015882492
1772794466017880300,0.30288037109375,-0.06589909642934799,0.1961597502231598,0.13151061534881592
1772794466027924200,0.31292431640625,-0.11395610868930817,0.20759083330631256,0.1439552903175354
1772794466037969200,0.32296923828125,-0.16899505257606506,0.18097105622291565,0.13642212748527527
1772794466048014000,0.33301416015625,-0.2108442336320877,0.16613884270191193,0.11509472876787186
1772794466058058200,0.343058349609375,-0.22583609819412231,0.14626654982566833,0.10386698693037033
1772794466068103400,0.353103515625,-0.23788557946681976,0.1395881325006485,0.09797394275665283
1772794466078148000,0.363148193359375,-0.2185649573802948,0.14482572674751282,0.10680225491523743
1772794466088193300,0.373193359375,-0.15879644453525543,0.12911415100097656,0.13857749104499817
1772794466098237200,0.3832373046875,-0.11025362461805344,0.1086641401052475,0.14079590141773224
1772794466108282000,0.3932822265625,-0.09043224900960922,0.13064853847026825,0.1173691377043724
1772794466118327000,0.4033271484375,-0.09467000514268875,0.11854426562786102,0.06643150746822357
1772794466128372200,0.413372314453125,-0.11466049402952194,0.07658056914806366,0.021913575008511543
1772794466138416400,0.42341650390625,-0.1306472271680832,0.009694745764136314,0.017671195790171623
1772794466148461000,0.4334609375,-0.16042162477970123,-0.03875907510519028,0.07403673231601715
1772794466158506200,0.44350634765625,-0.17393605411052704,-0.10465850681066513,0.153640478849411
1772794466168551200,0.45355126953125,-0.18853309750556946,-0.13215777277946472,0.22973711788654327
1772794466178595300,0.46359521484375,-0.19441843032836914,-0.1547463834285736,0.2667454183101654
1772794466188640000,0.473639892578125,-0.18758901953697205,-0.1615382432937622,0.2691214978694916
1772794466198685200,0.483685302734375,-0.1718723028898239,-0.1433316022157669,0.24202890694141388
1772794466208730000,0.493730224609375,-0.16406498849391937,-0.1564473956823349,0.1928541660308838
1772794466218774000,0.50377392578125,-0.1509072333574295,-0.17041708528995514,0.1439083367586136
1772794466228819200,0.513819091796875,-0.11388637125492096,-0.14761695265769958,0.1124151274561882
1772794466238864100,0.523864013671875,-0.04856981709599495,-0.1109456941485405,0.10382229089736938
1772794466248908300,0.533908203125,0.013046943582594395,-0.07876219600439072,0.09724321961402893
1772794466258953200,0.543953125,0.050197094678878784,-0.06330857425928116,0.07287875562906265
1772794466268998100,0.553998046875,0.05781959369778633,-0.07047567516565323,0.017180070281028748
1772794466279043000,0.56404296875,0.04401780664920807,-0.08641399443149567,-0.05568180978298187
1772794466289087200,0.574087158203125,0.0230102576315403,-0.10494320094585419,-0.12465395033359528
1772794466299132200,0.584132080078125,-0.007137482985854149,-0.10849915444850922,-0.1729191392660141
1772794466309177000,0.594177001953125,-0.028529858216643333,-0.09747819602489471,-0.196049764752388
1772794466319222300,0.60422216796875,-0.04221060127019882,-0.0637408047914505,-0.20064546167850494
1772794466329266400,0.614266357421875,-0.06254942715167999,-0.009447204880416393,-0.18801435828208923
1772794466339311000,0.62431103515625,-0.0744691863656044,0.05358300358057022,-0.17728380858898163
1772794466349356300,0.634356201171875,-0.09016133099794388,0.0689861923456192,-0.1747085303068161
1772794466359401200,0.644401123046875,-0.11703269183635712,0.0484272763133049,-0.1884729266166687
1772794466369445000,0.654445068359375,-0.14451918005943298,0.036841992288827896,-0.21333885192871094
1772794466379490000,0.664489990234375,-0.15407225489616394,0.0477263443171978,-0.22553415596485138
1772794466389535200,0.67453515625,-0.1452755630016327,0.07588288187980652,-0.20897328853607178
1772794466399580200,0.684580078125,-0.12668557465076447,0.11413422971963882,-0.1806553304195404
1772794466409624000,0.6946240234375,-0.11258786171674728,0.14256905019283295,-0.1615048050880432
1772794466419669200,0.704669189453125,-0.10957492142915726,0.14625872671604156,-0.1755041629076004
1772794466429714200,0.714714111328125,-0.1242406815290451,0.1028212308883667,-0.1973532736301422
1772794466439758300,0.72475830078125,-0.12578770518302917,0.07112721353769302,-0.20837663114070892
1772794466449803000,0.734802978515625,-0.10708166658878326,0.06932771950960159,-0.20134001970291138
1772794466459848200,0.74484814453125,-0.06781609356403351,0.08814592659473419,-0.1878601610660553
1772794466469893000,0.75489306640625,-0.025686748325824738,0.11207709461450577,-0.1859980821609497
1772794466479937300,0.764937255859375,-0.0018925393233075738,0.11872771382331848,-0.1961095929145813
1772794466489982200,0.774982177734375,0.022355010733008385,0.11255024373531342,-0.21618610620498657
1772794466500027100,0.785027099609375,0.015234053134918213,0.09253881126642227,-0.24445393681526184
1772794466510072300,0.795072265625,0.00995300430804491,0.05796006694436073,-0.25099092721939087
1772794466520116000,0.805115966796875,0.04280104860663414,0.02854257822036743,-0.246430903673172
1772794466530161200,0.8151611328125,0.07314084470272064,0.06070424243807793,-0.19954222440719604
1772794466540206000,0.8252060546875,0.07780449092388153,0.10100153833627701,-0.1220121756196022
1772794466550251300,0.835251220703125,0.06295443326234818,0.11944979429244995,-0.06216828525066376
1772794466560295200,0.845295166015625,0.04147590696811676,0.12775319814682007,-0.03153645619750023
1772794466570340000,0.855340087890625,0.02065957710146904,0.12958918511867523,-0.01843077316880226
1772794466580385300,0.86538525390625,0.00829373113811016,0.11182227730751038,-0.029855050146579742
1772794466590429200,0.87542919921875,0.010735849849879742,0.09202221035957336,-0.03367774933576584
1772794466600474000,0.88547412109375,0.02691475860774517,0.08888448774814606,-0.007862810976803303
1772794466610519300,0.895519287109375,0.04232780635356903,0.09392690658569336,0.026752157136797905
1772794466620564200,0.905564208984375,0.06032928451895714,0.09616688638925552,0.04366626963019371
1772794466630608100,0.915608154296875,0.07300300896167755,0.10655961185693741,0.03795139119029045
1772794466640653000,0.925653076171875,0.08664938062429428,0.08700050413608551,0.009337060153484344
1772794466650698200,0.9356982421875,0.09211099147796631,0.058682579547166824,-0.009461927227675915
1772794466660743200,0.9457431640625,0.10554614663124084,0.04935848340392113,-0.014133034273982048
1772794466670787000,0.955787109375,0.1356358677148819,0.019803255796432495,-0.004604510497301817
1772794466680832300,0.965832275390625,0.1656629890203476,-0.016039753332734108,0.008795524947345257
1772794466690877200,0.975877197265625,0.17390626668930054,-0.039597008377313614,0.020798392593860626
1772794466700922400,0.98592236328125,0.18066468834877014,-0.04867376387119293,0.035406358540058136
1772794466710966500,0.995966552734375,0.18766666948795319,-0.06555288285017014,0.03770706057548523
1772794466721011700,1.00601171875,0.19131773710250854,-0.08522399514913559,0.033401116728782654
1772794466731056600,1.016056640625,0.18568408489227295,-0.0942172259092331,0.017941733822226524
1772794466741101600,1.0261015625,0.1820705235004425,-0.11366569995880127,-0.005550387781113386
1772794466751145700,1.036145751953125,0.1810912787914276,-0.11785031855106354,-0.02081429585814476
1772794466761190700,1.046190673828125,0.18285757303237915,-0.11298679560422897,-0.022928690537810326
1772794466771235600,1.056235595703125,0.18182691931724548,-0.10068618506193161,-0.019488153979182243
1772794466781280500,1.066280517578125,0.17455027997493744,-0.08203916251659393,-0.01895716041326523
1772794466791324700,1.07632470703125,0.1592339128255844,-0.06558429449796677,-0.017113985493779182
1772794466801369600,1.08636962890625,0.1391623467206955,-0.03694716840982437,-0.018548976629972458
1772794466811414500,1.09641455078125,0.118380106985569,-0.021998312324285507,-0.024919524788856506
1772794466821458700,1.106458740234375,0.09954490512609482,-0.028341323137283325,-0.03905383497476578
1772794466831503600,1.116503662109375,0.09439967572689056,-0.04432961344718933,-0.05742271989583969
1772794466841548800,1.126548828125,0.0985504537820816,-0.05765426158905029,-0.07320347428321838
1772794466851593500,1.136593505859375,0.10371299088001251,-0.10139162093400955,-0.08847137540578842
1772794466861637600,1.1466376953125,0.09288378059864044,-0.13817466795444489,-0.09280593693256378
1772794466871682600,1.1566826171875,0.08475740998983383,-0.14357875287532806,-0.07177335768938065
1772794466881727500,1.1667275390625,0.07933811098337173,-0.12083328515291214,-0.03453243523836136
1772794466891772400,1.1767724609375,0.07100827991962433,-0.06714954972267151,0.010017190128564835
1772794466901816600,1.186816650390625,0.05144742876291275,-0.019217757508158684,0.04226887226104736
1772794466911861800,1.19686181640625,0.019085228443145752,0.014494666829705238,0.05481928586959839
1772794466921906400,1.206906494140625,-0.018576109781861305,0.032216619700193405,0.0417272225022316
1772794466931951600,1.21695166015625,-0.051787059754133224,0.04457501694560051,0.010170630179345608
1772794466941995500,1.22699560546875,-0.07165373116731644,0.0354449525475502,-0.023262999951839447
1772794466952040700,1.237040771484375,-0.09840571880340576,0.060982804745435715,-0.046827711164951324
1772794466962085400,1.24708544921875,-0.12319202721118927,0.07480621337890625,-0.05151887238025665
1772794466972129500,1.257129638671875,-0.11811071634292603,0.07012037932872772,-0.05613226443529129
1772794466982174700,1.2671748046875,-0.10442936420440674,0.05977761372923851,-0.04729944095015526
1772794466992219600,1.2772197265625,-0.08826877176761627,0.05110236257314682,-0.03182834014296532
1772794467002264600,1.2872646484375,-0.07328532636165619,0.0347820483148098,-0.014160082675516605
1772794467012308500,1.29730859375,-0.062177013605833054,0.027042636647820473,-0.007610037922859192
1772794467022353700,1.307353759765625,-0.05844566971063614,0.004578498657792807,-0.005643978714942932
1772794467032398300,1.3173984375,-0.052643172442913055,-0.01752067729830742,-0.0030372762121260166
1772794467042443500,1.327443603515625,-0.046284958720207214,-0.03504806384444237,0.005484950263053179
1772794467052487700,1.33748779296875,-0.039674725383520126,-0.047784097492694855,0.020749656483530998
1772794467062532600,1.34753271484375,-0.03636252135038376,-0.0548587329685688,0.04596492275595665
1772794467072577500,1.35757763671875,-0.026242775842547417,-0.05524648725986481,0.0719512552022934
1772794467082622500,1.36762255859375,-0.01783493161201477,-0.057947151362895966,0.08354607969522476
1772794467092666600,1.37766650390625,-0.0009893715614452958,-0.05742410570383072,0.08468750864267349
1772794467102711600,1.387711669921875,0.010204561986029148,-0.052973899990320206,0.07540731877088547
1772794467112756500,1.397756591796875,0.02030273526906967,-0.06148190051317215,0.05836068466305733
1772794467122801700,1.4078017578125,0.021232791244983673,-0.07435515522956848,0.04469539225101471
1772794467132845600,1.417845458984375,0.025514354929327965,-0.07516076415777206,0.049790285527706146
1772794467142890800,1.427890869140625,0.03316175565123558,-0.06418007612228394,0.06834600865840912
1772794467152935400,1.437935302734375,0.03285762295126915,-0.05607341602444649,0.08106020838022232
1772794467162979600,1.4479794921875,0.03396730124950409,-0.047952357679605484,0.08672540634870529
1772794467173024800,1.458024658203125,0.03871811553835869,-0.03512151539325714,0.0977783203125
1772794467183069400,1.4680693359375,0.03926345705986023,-0.019852496683597565,0.10408096015453339
1772794467193114600,1.478114501953125,0.04433171823620796,-0.012921620160341263,0.10839048027992249
1772794467203158500,1.488158447265625,0.04762288182973862,-0.0010619759559631348,0.0965808853507042
1772794467213203700,1.49820361328125,0.05264267697930336,0.007804220076650381,0.06445197761058807
1772794467223248400,1.508248291015625,0.060356512665748596,0.012975173071026802,0.03695628419518471
1772794467233293600,1.51829345703125,0.06207878142595291,0.02422196790575981,0.007800796069204807
1772794467243337700,1.528337646484375,0.06948211044073105,0.02531636878848076,-0.013684368692338467
1772794467253382700,1.538382568359375,0.07279108464717865,0.03253912925720215,-0.03318190574645996
1772794467263427600,1.548427490234375,0.06961923092603683,0.03589891642332077,-0.042647767812013626
1772794467273472500,1.558472412109375,0.06786634027957916,0.035635799169540405,-0.04184189811348915
1772794467283516700,1.5685166015625,0.07262983173131943,0.0323806069791317,-0.03139983490109444
1772794467293561300,1.578561279296875,0.08008535206317902,0.03485655039548874,-0.011341972276568413
1772794467303606500,1.5886064453125,0.09738942235708237,0.03267042711377144,0.013425509445369244
1772794467313651500,1.5986513671875,0.10908709466457367,0.03243739902973175,0.030300626531243324
1772794467323695600,1.608695556640625,0.11386900395154953,0.03222769498825073,0.038993604481220245
1772794467333740500,1.618740478515625,0.11360988020896912,0.036761727184057236,0.03508434817194939
1772794467343785500,1.628785400390625,0.10761693865060806,0.03654968738555908,0.025471743196249008
1772794467353829600,1.63882958984375,0.11532412469387054,0.029414808377623558,-0.0015103388577699661
1772794467363874600,1.64887451171875,0.12321004271507263,0.036645080894231796,-0.009571801871061325
1772794467373919500,1.65891943359375,0.10374899208545685,0.03475343808531761,-0.02459496073424816
1772794467383964400,1.66896435546875,0.10090555995702744,0.025195302441716194,-0.03520149365067482
1772794467394008600,1.679008544921875,0.09901444613933563,0.008183561265468597,-0.041235681623220444
1772794467404053800,1.6890537109375,0.09887883067131042,0.029723364859819412,-0.029432138428092003
1772794467414098400,1.699098388671875,0.08415953814983368,0.04361334815621376,-0.01792541705071926
1772794467424143600,1.7091435546875,0.0726797953248024,0.04782545939087868,-0.01772206276655197
1772794467434187800,1.719187744140625,0.060762688517570496,0.04984626546502113,-0.01981211081147194
1772794467444232400,1.729232421875,0.051267027854919434,0.05576939135789871,-0.022300459444522858
1772794467454277600,1.739277587890625,0.04299498349428177,0.0601353794336319,-0.015475844964385033
1772794467464322600,1.749322509765625,0.029336759820580482,0.057798832654953,-0.006965863052755594
1772794467474366700,1.75936669921875,0.026881858706474304,0.05241977795958519,0.0027480171993374825
1772794467484411400,1.769411376953125,0.030819443985819817,0.0519164502620697,0.008195173926651478
1772794467494456600,1.77945654296875,0.03187112882733345,0.05790989100933075,0.010968323796987534
1772794467504500700,1.789500732421875,0.035287581384181976,0.057046111673116684,0.007798282895237207
1772794467514545700,1.799545654296875,0.041356395930051804,0.055545955896377563,-0.0009430106729269028
1772794467524590600,1.809590576171875,0.04125913605093956,0.04655752331018448,-0.010833689011633396
1772794467534635500,1.819635498046875,0.04211427643895149,0.03194315731525421,-0.02382831647992134
1772794467544679700,1.8296796875,0.037707384675741196,0.01046823337674141,-0.03025086782872677
1772794467554724400,1.839724365234375,0.03996068239212036,0.0034361551515758038,-0.036665357649326324
1772794467564769500,1.84976953125,0.03088272362947464,-0.0010754023678600788,-0.02546071819961071
1772794467574814500,1.859814453125,0.021585896611213684,-0.01864560693502426,-0.01734153926372528
1772794467584858600,1.869858642578125,0.01214459165930748,-0.014346671290695667,-0.003118275199085474
1772794467594903600,1.879903564453125,0.0016599927330389619,-0.006559321656823158,0.015947027131915092
1772794467604948500,1.889948486328125,-0.008916218765079975,0.004285336472094059,0.03138430789113045
1772794467614993700,1.89999365234375,-0.01565215177834034,0.02123875543475151,0.04488946497440338
1772794467625037600,1.91003759765625,-0.02275620587170124,0.02014158107340336,0.0453544482588768
1772794467635082500,1.92008251953125,-0.02612137608230114,0.021608449518680573,0.03428661823272705
1772794467645127400,1.93012744140625,-0.025476286187767982,0.020185206085443497,0.009255836717784405
1772794467655172600,1.940172607421875,-0.024596111848950386,0.020669370889663696,-0.014407947659492493
1772794467665216800,1.950216796875,-0.031018715351819992,0.02260686457157135,-0.03832017257809639
1772794467675261400,1.960261474609375,-0.03282007575035095,0.016122866421937943,-0.05349459499120712
1772794467685306600,1.970306640625,-0.03313565254211426,0.006282859947532415,-0.06223547086119652
1772794467695351300,1.980351318359375,-0.030213098973035812,-0.004057396203279495,-0.061425335705280304
1772794467705395500,1.9903955078125,-0.030834894627332687,0.0018441728316247463,-0.05590996518731117
1772794467715440400,2.0004404296875,-0.020607292652130127,-0.009785851463675499,-0.03527472913265228
1772794467725485600,2.010485595703125,-0.020939920097589493,-0.0005593299865722656,-0.0009750796598382294
1772794467735529500,2.020529541015625,-0.011895209550857544,-0.006232337094843388,0.03535432368516922
1772794467745574400,2.030574462890625,0.006394539959728718,-0.013942616991698742,0.051544398069381714
1772794467755619600,2.04061962890625,-0.011221472173929214,-0.007903633639216423,0.06316616386175156
1772794467765664300,2.050664306640625,-0.013368328101933002,-0.016242582350969315,0.05109496787190437
1772794467775708400,2.06070849609375,0.0005275133298709989,-0.03644212335348129,0.024285191670060158
1772794467785753600,2.070753662109375,0.018869800493121147,-0.044692277908325195,0.010776765644550323
1772794467795798500,2.080798583984375,0.023419277742505074,-0.056234415620565414,0.01361702661961317
1772794467805843500,2.090843505859375,0.027269091457128525,-0.06445080041885376,0.02769213542342186
1772794467815887400,2.100887451171875,0.02447756566107273,-0.06026458367705345,0.04064282029867172
1772794467825932500,2.1109326171875,0.019495243206620216,-0.053153734654188156,0.057190749794244766
1772794467835977500,2.1209775390625,0.02012614533305168,-0.04161372408270836,0.0640912652015686
1772794467846022400,2.1310224609375,0.020003486424684525,-0.03579699993133545,0.06506792455911636
1772794467856066600,2.141066650390625,0.016642311587929726,-0.03820343315601349,0.0569322407245636
1772794467866111500,2.151111572265625,0.012124473229050636,-0.03462521359324455,0.04938167706131935
1772794467876156400,2.161156494140625,0.006527840159833431,-0.03333304822444916,0.046638887375593185
1772794467886200300,2.171200439453125,0.005166647024452686,-0.031642209738492966,0.04455473646521568
1772794467896245500,2.18124560546875,0.0050952741876244545,-0.032959409058094025,0.03681798651814461
1772794467906290400,2.19129052734375,0.004425121936947107,-0.03852876275777817,0.030534835532307625
1772794467916335400,2.20133544921875,0.010517102666199207,-0.040987659245729446,0.02539440244436264
1772794467926379500,2.211379638671875,0.014190166257321835,-0.03841951861977577,0.038478437811136246
1772794467936424400,2.221424560546875,0.015187520533800125,-0.02534126490354538,0.056351445615291595
1772794467946469600,2.2314697265625,0.013670368120074272,-0.004157413262873888,0.08244452625513077
1772794467956514300,2.241514404296875,0.010446878150105476,0.0179327093064785,0.09578616172075272
1772794467966558500,2.251558349609375,0.011337151750922203,0.03596901893615723,0.08970452845096588
1772794467976603400,2.261603271484375,0.010767235420644283,0.03491920232772827,0.05884595215320587
1772794467986648600,2.271648681640625,0.015293206088244915,0.037470024079084396,0.023549478501081467
1772794467996693200,2.281693359375,0.018104972317814827,0.03720663860440254,-0.009477715007960796
1772794468006737400,2.2917373046875,0.020142238587141037,0.031144747510552406,-0.036250971257686615
1772794468016782600,2.301782470703125,0.018998410552740097,0.03268831595778465,-0.0511913001537323
1772794468026827300,2.3118271484375,0.024287201464176178,0.03910435363650322,-0.047402653843164444
1772794468036872400,2.32187255859375,0.029164249077439308,0.041306253522634506,-0.0374877043068409
1772794468046916600,2.33191650390625,0.036670882254838943,0.040996044874191284,-0.02857573889195919
1772794468056961500,2.34196142578125,0.04418392479419708,0.037695590406656265,-0.02688250131905079
1772794468067006500,2.35200634765625,0.041851770132780075,0.044196952134370804,-0.017099950462579727
1772794468077050400,2.36205029296875,0.03636353090405464,0.0481320396065712,-0.008348803967237473
1772794468087095600,2.372095458984375,0.03589833900332451,0.04470226168632507,0.004923176020383835
1772794468097140500,2.382140380859375,0.028521649539470673,0.03780893608927727,0.011579213663935661
1772794468107185400,2.392185302734375,0.030891044065356255,0.03344220668077469,0.013985341414809227
1772794468117229600,2.4022294921875,0.02941511943936348,0.03688274323940277,0.011215121485292912
1772794468127274500,2.4122744140625,0.02731933631002903,0.026430856436491013,-5.488982424139977e-7
1772794468137319700,2.422319580078125,0.029469305649399757,0.010983722284436226,-0.018422165885567665
1772794468147364400,2.4323642578125,0.0256733987480402,0.005590281914919615,-0.02464669942855835
1772794468157408500,2.442408447265625,0.02117265574634075,0.0017164484597742558,-0.01677200011909008
1772794468167453400,2.452453369140625,0.024869687855243683,0.0028174547478556633,-0.004171594046056271
1772794468177498400,2.462498291015625,0.019635777920484543,0.006426303647458553,0.008442734368145466
1772794468187543300,2.472543212890625,0.019510341808199883,0.015794772654771805,0.02541133016347885
1772794468197587500,2.48258740234375,0.012905169278383255,0.013846670277416706,0.02924867905676365
1772794468207632600,2.492632568359375,0.0033453418873250484,0.0020809201523661613,0.029283560812473297
1772794468217677300,2.50267724609375,-0.004521369468420744,0.008180624805390835,0.038544703274965286
1772794468227722500,2.512722412109375,-0.007438226602971554,0.021163275465369225,0.04450878128409386
1772794468237766400,2.522766357421875,-0.0072592622600495815,0.031049994751811028,0.04497004300355911
1772794468247811600,2.5328115234375,-0.008828517980873585,0.036261703819036484,0.03892866522073746
1772794468257856300,2.542856201171875,-0.011523636989295483,0.041742220520973206,0.02210095152258873
1772794468267900400,2.552900390625,-0.011627614498138428,0.03150944411754608,0.005956787616014481
1772794468277945600,2.562945556640625,-0.01354003045707941,0.03174939751625061,-0.008843463845551014
1772794468287990300,2.572990234375,-0.011309988796710968,0.03597285971045494,-0.01979471929371357
1772794468298035500,2.583035400390625,-0.008152279071509838,0.03727700933814049,-0.041236892342567444
1772794468308079400,2.593079345703125,-0.003648793790489435,0.03757761791348457,-0.0582662932574749
1772794468318124500,2.60312451171875,-0.001580582931637764,0.04904785007238388,-0.07076237350702286
1772794468328169500,2.61316943359375,-0.001449769944883883,0.053116098046302795,-0.06753891706466675
1772794468338214400,2.62321435546875,0.0027849222533404827,0.058486100286245346,-0.0507652722299099
1772794468348258600,2.633258544921875,0.010622861795127392,0.07043319940567017,-0.029040420427918434
1772794468358303500,2.643303466796875,0.018262138590216637,0.07735022157430649,-0.021093280985951424
1772794468368348400,2.653348388671875,0.049175795167684555,0.09557875990867615,-0.025143912062048912
1772794468378393300,2.663393310546875,0.08354788273572922,0.12831701338291168,-0.040156152099370956
1772794468388437500,2.6734375,0.11523178219795227,0.1478111892938614,-0.057747773826122284
1772794468398482700,2.683482666015625,0.14643791317939758,0.15074466168880463,-0.06500861793756485
1772794468408527400,2.69352734375,0.16894389688968658,0.11899075657129288,-0.051663484424352646
1772794468418572500,2.703572509765625,0.18276730179786682,0.09350990504026413,-0.02588595077395439
1772794468428616400,2.713616455078125,0.18234027922153473,0.05661384388804436,-0.000841844012029469
1772794468438661400,2.723661376953125,0.17533376812934875,0.06135905906558037,-0.0009901821613311768
1772794468448706300,2.733706298828125,0.1636108011007309,0.08157750964164734,-0.0335041806101799
1772794468458751500,2.74375146484375,0.14591090381145477,0.12175475060939789,-0.07075221836566925
1772794468468795600,2.753795654296875,0.13680611550807953,0.15069060027599335,-0.09764701873064041
1772794468478840300,2.76384033203125,0.10863012820482254,0.18610212206840515,-0.10414779931306839
1772794468488885500,2.773885498046875,0.08313968032598495,0.18585817515850067,-0.09577428549528122
1772794468498929400,2.783929443359375,0.07414831221103668,0.16389934718608856,-0.07653427869081497
1772794468508974600,2.793974609375,0.07915875315666199,0.16125476360321045,-0.05292954668402672
1772794468519019300,2.804019287109375,0.09945417195558548,0.15641073882579803,-0.03176620230078697
1772794468529064400,2.814064453125,0.11335304379463196,0.15164585411548615,-0.02611251175403595
1772794468539108600,2.824108642578125,0.12810349464416504,0.15717005729675293,-0.015966398641467094
1772794468549153500,2.834153564453125,0.13737967610359192,0.1594945192337036,-0.009503054432570934
1772794468559198500,2.844198486328125,0.12655872106552124,0.14982590079307556,-0.006546945311129093
1772794468569243400,2.854243408203125,0.10731706768274307,0.09219670295715332,-0.015897000208497047
1772794468579287600,2.86428759765625,0.09647693485021591,-0.008358667604625225,-0.03607923164963722
1772794468589332200,2.874332275390625,0.07317223399877548,-0.11940113455057144,-0.05244138836860657
1772794468599377400,2.88437744140625,0.04498693719506264,-0.23079156875610352,-0.03783155232667923
1772794468609422300,2.89442236328125,-0.0022383942268788815,-0.3151989281177521,0.023151714354753494
1772794468619466500,2.904466552734375,-0.04407878592610359,-0.34715017676353455,0.12642990052700043
1772794468629511400,2.914511474609375,-0.07926138490438461,-0.3401890695095062,0.25514811277389526
1772794468639556400,2.924556396484375,-0.11500686407089233,-0.30295994877815247,0.39383968710899353
1772794468649601500,2.9346015625,-0.1613125056028366,-0.26170817017555237,0.5191028118133545
1772794468659645400,2.9446455078125,-0.2104898989200592,-0.25033167004585266,0.630477249622345
1772794468669690400,2.9546904296875,-0.2632021903991699,-0.2679157257080078,0.7153482437133789
1772794468679735300,2.9647353515625,-0.2981945276260376,-0.2838193476200104,0.7679842710494995
1772794468689780500,2.974780517578125,-0.3338019549846649,-0.2895294427871704,0.7889100909233093
1772794468699824400,2.984824462890625,-0.33314523100852966,-0.30006569623947144,0.7645906209945679
1772794468709869300,2.994869384765625,-0.3020624816417694,-0.31046009063720703,0.7026458978652954
1772794468719914500,3.00491455078125,-0.25700658559799194,-0.31497547030448914,0.614215612411499
1772794468729958700,3.014958740234375,-0.19491468369960785,-0.30757829546928406,0.5072169899940491
1772794468740003300,3.02500341796875,-0.12064605206251144,-0.2835927903652191,0.3948483169078827
1772794468750048500,3.035048583984375,-0.031921304762363434,-0.20207780599594116,0.270486056804657
1772794468760093400,3.045093505859375,0.05933643877506256,-0.10646659135818481,0.13438628613948822
1772794468770137600,3.0551376953125,0.14770035445690155,0.011138809844851494,0.00009832123760133982
1772794468780182300,3.065182373046875,0.22502072155475616,0.1373382955789566,-0.12852677702903748
1772794468790227500,3.0752275390625,0.3049348294734955,0.25787508487701416,-0.22821375727653503
1772794468800272400,3.0852724609375,0.3834030032157898,0.33039748668670654,-0.28160133957862854
1772794468810316500,3.095316650390625,0.4372524619102478,0.3628818392753601,-0.2819986641407013
1772794468820361500,3.105361572265625,0.47539639472961426,0.3381253778934479,-0.23455657064914703
1772794468830406400,3.115406494140625,0.4896327555179596,0.2676902115345001,-0.15896308422088623
1772794468840451600,3.12545166015625,0.4752247631549835,0.18266373872756958,-0.07593956589698792
1772794468850495200,3.1354951171875,0.43796753883361816,0.08941677212715149,-0.011290842667222023
1772794468860540400,3.14554052734375,0.3826475441455841,0.024847371503710747,0.025274625048041344
1772794468870585300,3.15558544921875,0.30521246790885925,-0.016820918768644333,0.030925743281841278
1772794468880630500,3.165630615234375,0.21317018568515778,-0.03641565889120102,0.020423833280801773
1772794468890674400,3.17567431640625,0.1180766150355339,-0.04424038901925087,-0.009488023817539215
1772794468900719400,3.18571923828125,0.03297903388738632,-0.05522992089390755,-0.029760273173451424
1772794468910764500,3.1957646484375,-0.024727314710617065,-0.041107404977083206,-0.030392970889806747
1772794468920808400,3.205808349609375,-0.05941365659236908,-0.03715180978178978,-0.02053421549499035
1772794468930853400,3.215853271484375,-0.05417804792523384,-0.031011885032057762,0.009953849017620087
1772794468940898300,3.225898193359375,-0.020080262795090675,-0.034689176827669144,0.06125352159142494
1772794468950943500,3.235943603515625,0.02574457786977291,-0.0470183826982975,0.11909129470586777
1772794468960987400,3.2459873046875,0.07397256046533585,-0.05298732593655586,0.16306620836257935
1772794468971032300,3.2560322265625,0.11670368164777756,-0.09839226305484772,0.18078364431858063
1772794468981077500,3.266077392578125,0.15283985435962677,-0.15299265086650848,0.18607056140899658
1772794468991122400,3.276122314453125,0.16477185487747192,-0.18831810355186462,0.19656576216220856
1772794469001166300,3.286166259765625,0.18281903862953186,-0.21960225701332092,0.20382927358150482
1772794469011211500,3.29621142578125,0.19660460948944092,-0.23151546716690063,0.19584070146083832
1772794469021256400,3.30625634765625,0.20177380740642548,-0.21410799026489258,0.1768646240234375
1772794469031301400,3.31630126953125,0.20618771016597748,-0.1844581663608551,0.15470707416534424
1772794469041345300,3.32634521484375,0.21027299761772156,-0.14468705654144287,0.12328310310840607
1772794469051390500,3.336390380859375,0.21265234053134918,-0.10124178230762482,0.08960599452257156
1772794469061435400,3.346435302734375,0.21528621017932892,-0.042333994060754776,0.06132109463214874
1772794469071480600,3.35648046875,0.21026988327503204,0.014315597712993622,0.020074166357517242
1772794469081524500,3.3665244140625,0.2141924500465393,0.06334066390991211,-0.024243231862783432
1772794469091569400,3.3765693359375,0.22615832090377808,0.12286466360092163,-0.05608181655406952
1772794469101614600,3.386614501953125,0.23280955851078033,0.19002878665924072,-0.06670515984296799
1772794469111659500,3.396659423828125,0.23523090779781342,0.25040823221206665,-0.07003198564052582
1772794469121703400,3.406703369140625,0.23391343653202057,0.30345362424850464,-0.07896368950605392
1772794469131748400,3.416748291015625,0.2270921766757965,0.3422936797142029,-0.10460054874420166
1772794469141793500,3.42679345703125,0.23190797865390778,0.3789219856262207,-0.1417926549911499
1772794469151837400,3.43683740234375,0.2364271879196167,0.36759430170059204,-0.18689392507076263
1772794469161882400,3.44688232421875,0.23069286346435547,0.3346209228038788,-0.22541548311710358
1772794469171927600,3.456927490234375,0.22598092257976532,0.2945103943347931,-0.259013831615448
1772794469181972500,3.466972412109375,0.2311064451932907,0.2439018189907074,-0.2839394211769104
1772794469192016400,3.477016357421875,0.23464232683181763,0.19120126962661743,-0.29932498931884766
1772794469202061300,3.487061279296875,0.23269928991794586,0.1457243263721466,-0.29454702138900757
1772794469212106500,3.4971064453125,0.22391124069690704,0.10267497599124908,-0.2704069912433624
1772794469222151400,3.5071513671875,0.20591813325881958,0.08504431694746017,-0.2192780077457428
1772794469232195300,3.5171953125,0.19580382108688354,0.08881677687168121,-0.15221402049064636
1772794469242240500,3.527240478515625,0.1739688366651535,0.0994100347161293,-0.0757027268409729
1772794469252285400,3.537285400390625,0.1443726122379303,0.10090924054384232,-0.013964648358523846
1772794469262330600,3.54733056640625,0.11838787794113159,0.08495823293924332,0.029269909486174583
1772794469272374300,3.557374267578125,0.0944811999797821,0.05540316551923752,0.045624226331710815
1772794469282419500,3.56741943359375,0.07745029032230377,0.005168489646166563,0.05219957232475281
1772794469292464400,3.57746435546875,0.06925642490386963,-0.044799964874982834,0.04639282077550888
1772794469302509600,3.587509521484375,0.06860421597957611,-0.058464113622903824,0.040940798819065094
1772794469312553500,3.597553466796875,0.07975176721811295,-0.05950659140944481,0.030907562002539635
1772794469322598400,3.607598388671875,0.08388072997331619,-0.05271473154425621,0.008816373534500599
1772794469332643600,3.6176435546875,0.08226796239614487,-0.050308242440223694,-0.014678374864161015
1772794469342688500,3.6276884765625,0.08127353340387344,-0.027948077768087387,-0.012533199042081833
1772794469352732400,3.637732421875,0.0736440047621727,-0.007318173535168171,0.004659708589315414
1772794469362777300,3.64777734375,0.06187416613101959,0.014761296100914478,0.015147504396736622
1772794469372822500,3.657822509765625,0.05105119198560715,0.0194709450006485,0.008267573080956936
1772794469382866400,3.667866455078125,0.048862606287002563,0.021812129765748978,-0.01622418686747551
1772794469392911400,3.677911376953125,0.04823489859700203,0.0018338938243687153,-0.04577222838997841
1772794469402956500,3.68795654296875,0.039660852402448654,-0.01518743485212326,-0.06627963483333588
1772794469413001500,3.69800146484375,0.024173077195882797,-0.024706097319722176,-0.06464000046253204
1772794469423045400,3.70804541015625,-0.004010091535747051,-0.028265945613384247,-0.04487001895904541
1772794469433090600,3.718090576171875,-0.029019951820373535,-0.03706061467528343,-0.002830503974109888
1772794469443135500,3.728135498046875,-0.043414872139692307,-0.02176554873585701,0.03867006674408913
1772794469453180700,3.7381806640625,-0.06139866262674332,-0.005206013564020395,0.06297647207975388
1772794469463224300,3.748224365234375,-0.0709168016910553,0.007736948784440756,0.06679118424654007
1772794469473269500,3.75826953125,-0.07053249329328537,0.023968758061528206,0.056370653212070465
1772794469483314400,3.768314453125,-0.06723177433013916,0.028120623901486397,0.03409357741475105
1772794469493359600,3.778359619140625,-0.0681598111987114,0.022936999797821045,0.011651388369500637
1772794469503403500,3.788403564453125,-0.0621677041053772,0.011583678424358368,-0.007702868431806564
1772794469513448400,3.798448486328125,-0.06633508950471878,0.004861641209572554,-0.024243762716650963
1772794469523493600,3.80849365234375,-0.06668875366449356,0.001916185487061739,-0.04409363493323326
1772794469533538300,3.818538330078125,-0.06303170323371887,0.00007674004882574081,-0.06977503001689911
1772794469543582500,3.82858251953125,-0.05225735157728195,0.02085418999195099,-0.09169897437095642
1772794469553627400,3.83862744140625,-0.04007884860038757,0.03624066337943077,-0.10134029388427734
1772794469563672600,3.848672607421875,-0.022270025685429573,0.028802456334233284,-0.11683350056409836
1772794469573717200,3.85871728515625,-0.010524051263928413,0.013875586912035942,-0.12119393795728683
1772794469583761400,3.868761474609375,0.0020905430428683758,-0.010160505771636963,-0.12180859595537186
1772794469593806600,3.878806640625,0.021946856752038002,-0.024799367412924767,-0.12028210610151291
1772794469603851500,3.8888515625,0.034306325018405914,-0.030878830701112747,-0.09963994473218918
1772794469613896400,3.898896484375,0.03854363411664963,-0.027597445994615555,-0.08327196538448334
1772794469623940400,3.9089404296875,0.039670683443546295,-0.019161617383360863,-0.07286513596773148
1772794469633985500,3.918985595703125,0.04772063344717026,-0.024444689974188805,-0.05926741287112236
1772794469644030200,3.9290302734375,0.042948778718709946,-0.011706257238984108,-0.0483069084584713
1772794469654075400,3.939075439453125,0.033885203301906586,-0.007942307740449905,-0.03959845006465912
1772794469664119600,3.94911962890625,0.024432312697172165,-0.014698481187224388,-0.03164917975664139
1772794469674164500,3.95916455078125,0.01081633847206831,-0.030816519632935524,-0.03010314144194126
1772794469684209400,3.96920947265625,-0.00027546085766516626,-0.03013208881020546,-0.03160756081342697
1772794469694253600,3.979253662109375,-0.007666940335184336,-0.005238500889390707,-0.0314406119287014
1772794469704298200,3.98929833984375,0.0052866749465465546,0.03275308758020401,-0.024236496537923813
1772794469714343400,3.999343505859375,0.03546637296676636,0.059514231979846954,-0.005460755433887243
1772794469724388400,4.009388427734375,0.0462322011590004,0.06704378873109818,-0.003416513092815876
1772794469734432300,4.019432373046875,0.041226863861083984,0.04752889648079872,-0.02826833166182041
1772794469744477200,4.029477294921875,0.027464445680379868,0.01708070933818817,-0.05658918246626854
1772794469754522400,4.0395224609375,0.005547838285565376,0.013786423951387405,-0.09082435071468353
1772794469764567300,4.0495673828125,-0.016126563772559166,0.03030894137918949,-0.11892203986644745
1772794469774611200,4.059611083984375,-0.03822992742061615,0.06279733031988144,-0.13251987099647522
1772794469784656400,4.069656494140625,-0.05585206672549248,0.09532437473535538,-0.14406493306159973
1772794469794701300,4.079701416015625,-0.07814032584428787,0.11594097316265106,-0.15437909960746765
1772794469804746500,4.08974658203125,-0.09747380763292313,0.11424534022808075,-0.1711391657590866
1772794469814790100,4.0997900390625,-0.11503282189369202,0.1000228300690651,-0.18338875472545624
1772794469824835300,4.10983544921875,-0.11708319187164307,0.09044583886861801,-0.1727456897497177
1772794469834880300,4.11988037109375,-0.1129799336194992,0.09436051547527313,-0.15176823735237122
1772794469844925400,4.129925537109375,-0.09984708577394485,0.09547638148069382,-0.12575767934322357
1772794469854969300,4.13996923828125,-0.08859195560216904,0.08458118140697479,-0.10823845863342285
1772794469865014300,4.15001416015625,-0.07746340334415436,0.06508098542690277,-0.1027347669005394
1772794469875059500,4.1600595703125,-0.06310819834470749,0.0279316958039999,-0.0940575823187828
1772794469885104400,4.1701044921875,-0.05084141343832016,-0.0038571262266486883,-0.07128462195396423
1772794469895148300,4.180148193359375,-0.044230829924345016,-0.025647317990660667,-0.023306291550397873
1772794469905193200,4.190193115234375,-0.03220079839229584,-0.038150325417518616,0.031861621886491776
1772794469915238400,4.20023828125,-0.025736920535564423,-0.03431820869445801,0.07129077613353729
1772794469925283300,4.210283447265625,-0.021707288920879364,-0.0225885808467865,0.08554987609386444
1772794469935327200,4.2203271484375,-0.024623533710837364,-0.018074456602334976,0.06984157860279083
1772794469945372400,4.230372314453125,-0.02316278964281082,-0.016574565321207047,0.03815581277012825
1772794469955417300,4.240417236328125,-0.0185659471899271,-0.01086277887225151,0.009903858415782452
1772794469965461200,4.250461181640625,-0.01771986111998558,0.0023275921121239662,-0.019102757796645164
1772794469975506400,4.26050634765625,-0.016167905181646347,0.02568984404206276,-0.03641609102487564
1772794469985551400,4.27055126953125,-0.0162387453019619,0.051787491887807846,-0.05414315313100815
1772794469995596300,4.28059619140625,-0.01685863547027111,0.07364235073328018,-0.06246868893504143
1772794470005640200,4.29064013671875,-0.01866266131401062,0.07605091482400894,-0.07147389650344849
1772794470015685400,4.300685302734375,-0.027701973915100098,0.06120847910642624,-0.07113076746463776
1772794470025730300,4.310730224609375,-0.02765856496989727,0.04598904773592949,-0.055896956473588943
1772794470035775500,4.320775390625,-0.030515458434820175,0.029290933161973953,-0.03267898038029671
1772794470045819400,4.3308193359375,-0.03258180245757103,0.007210663054138422,-0.03174474462866783
1772794470055864300,4.3408642578125,-0.023191047832369804,-0.006960075348615646,-0.024376997724175453
1772794470065909500,4.350909423828125,-0.020195791497826576,-0.020930485799908638,-0.019920198246836662
1772794470075954400,4.360954345703125,-0.025907494127750397,-0.029940705746412277,-0.007853186689317226
1772794470085998300,4.370998291015625,-0.022764697670936584,-0.038468148559331894,0.006823493167757988
1772794470096043300,4.381043212890625,-0.017582667991518974,-0.031235532835125923,0.027794785797595978
1772794470106088400,4.39108837890625,-0.01165740005671978,-0.02262287028133869,0.03859550133347511
1772794470116133000,4.401133056640625,-0.004348590038716793,-0.015895135700702667,0.037280622869729996
1772794470126177300,4.41117724609375,0.003194814082235098,-0.012861263006925583,0.032937537878751755
1772794470136222500,4.421222412109375,0.021262669935822487,0.00007327785715460777,0.02457091398537159
1772794470146267400,4.431267333984375,0.03781341761350632,0.012969102710485458,0.011348318308591843
1772794470156312300,4.441312255859375,0.05211464315652847,0.02761942148208618,-0.006183307152241468
1772794470166356200,4.451356201171875,0.06054088473320007,0.050017938017845154,-0.013670784421265125
1772794470176401400,4.4614013671875,0.06264478713274002,0.05830995738506317,-0.019174473360180855
1772794470186446300,4.4714462890625,0.06869788467884064,0.0600748285651207,-0.022488245740532875
1772794470196491300,4.4814912109375,0.06776998937129974,0.06188162788748741,-0.021876061335206032
1772794470206535400,4.491535400390625,0.06874790787696838,0.05983178690075874,-0.02644524537026882
1772794470216580400,4.501580322265625,0.06867577880620956,0.059530213475227356,-0.02936878800392151
1772794470226625500,4.51162548828125,0.0644802376627922,0.059769101440906525,-0.03328416496515274
1772794470236670200,4.521670166015625,0.06868291646242142,0.05318576097488403,-0.03233551234006882
1772794470246714400,4.53171435546875,0.06941768527030945,0.03932613879442215,-0.030339738354086876
1772794470256759300,4.54175927734375,0.06673190742731094,0.007416093721985817,-0.03508998081088066
1772794470266804200,4.55180419921875,0.056873682886362076,-0.0198884978890419,-0.0303261186927557
1772794470276848400,4.561848388671875,0.04913684353232384,-0.040293145924806595,-0.017303330823779106
1772794470286893300,4.571893310546875,0.0414498969912529,-0.03571517392992973,0.008912293240427971
1772794470296938500,4.5819384765625,0.02026418223977089,-0.041705422103405,0.02773844450712204
1772794470306983200,4.591983154296875,0.0077439118176698685,-0.06013594940304756,0.03712048754096031
1772794470317027300,4.60202734375,-0.0098423445597291,-0.07555799931287766,0.04583274945616722
1772794470327072300,4.612072265625,-0.024888671934604645,-0.07317473739385605,0.04884185642004013
1772794470337117400,4.622117431640625,-0.01637101173400879,-0.06871239095926285,0.05402117222547531
1772794470347162400,4.632162353515625,-0.014545148238539696,-0.052938755601644516,0.04256105795502663
1772794470357206300,4.642206298828125,-0.014193303883075714,-0.04965411499142647,0.02816382236778736
1772794470367251500,4.65225146484375,-0.017036760225892067,-0.05640070140361786,0.010653538629412651
1772794470377296100,4.662296142578125,-0.019826523959636688,-0.06542029976844788,-0.007843907922506332
1772794470387341300,4.67234130859375,-0.013983017764985561,-0.07471233606338501,-0.028140123933553696
1772794470397385500,4.682385498046875,-0.0051984041929244995,-0.07232538610696793,-0.045934904366731644
1772794470407430400,4.692430419921875,-0.001859599375165999,-0.07854386419057846,-0.06240016594529152
1772794470417475300,4.702475341796875,0.005404857452958822,-0.08482718467712402,-0.07247631251811981
1772794470427520300,4.712520263671875,0.0004905263194814324,-0.09956724941730499,-0.06587033718824387
1772794470437564400,4.722564453125,-0.013098346069455147,-0.11625371128320694,-0.03976714611053467
1772794470447609300,4.732609375,-0.02678619511425495,-0.12289803475141525,0.010870733298361301
1772794470457654300,4.742654296875,-0.03979654610157013,-0.09965993463993073,0.07267988473176956
1772794470467699200,4.75269921875,-0.05693265423178673,-0.06550063192844391,0.11904445290565491
1772794470477743400,4.762743408203125,-0.07364695519208908,-0.029679035767912865,0.14058470726013184
1772794470487788500,4.77278857421875,-0.09342758357524872,-0.006682906299829483,0.12864921987056732
1772794470497833200,4.782833251953125,-0.10985945910215378,0.008357727900147438,0.08886696398258209
1772794470507878400,4.79287841796875,-0.1217680498957634,0.014175137504935265,0.03805970773100853
1772794470517922300,4.80292236328125,-0.12416620552539825,0.020072657614946365,-0.011143752373754978
1772794470527967200,4.81296728515625,-0.11828222125768661,0.016807887703180313,-0.05160196125507355
1772794470538012200,4.82301220703125,-0.10876970738172531,0.030892491340637207,-0.08376781642436981
1772794470548057300,4.833057373046875,-0.08826735615730286,0.046161457896232605,-0.0967097133398056
1772794470558101500,4.8431015625,-0.07592862099409103,0.061543241143226624,-0.10897216200828552
1772794470568146200,4.853146240234375,-0.06352335214614868,0.07767027616500854,-0.11236263066530228
1772794470578191400,4.86319140625,-0.051969923079013824,0.08601556718349457,-0.10768646001815796
1772794470588236300,4.873236328125,-0.04504544287919998,0.08047326654195786,-0.10425550490617752
1772794470598280400,4.883280517578125,-0.04094766452908516,0.06340713798999786,-0.10408871620893478
1772794470608325000,4.8933251953125,-0.01892838440835476,0.050724633038043976,-0.0960017666220665
1772794470618370300,4.903370361328125,0.005101257003843784,0.05348515510559082,-0.06758888065814972
1772794470628414500,4.91341455078125,0.021148134022951126,0.047313012182712555,-0.048256728798151016
1772794470638459100,4.923459228515625,0.03000687249004841,0.028619755059480667,-0.037717536091804504
1772794470648504300,4.93350439453125,0.026922132819890976,0.007514201570302248,-0.03517607972025871
1772794470658549200,4.94354931640625,0.020633304491639137,-0.012581908144056797,-0.023050518706440926
1772794470668593400,4.953593505859375,0.018043646588921547,-0.023864390328526497,0.0011243264889344573
1772794470678638300,4.963638427734375,0.019105715677142143,-0.03338785469532013,0.031042275950312614
1772794470688683300,4.973683349609375,0.024456005543470383,-0.03683105483651161,0.05293852463364601
1772794470698728400,4.983728515625,0.025289123877882957,-0.03998950496315956,0.06704811006784439
1772794470708772400,4.9937724609375,0.023574847728013992,-0.04767565429210663,0.06954455375671387
1772794470718817500,5.003817626953125,0.025044051930308342,-0.048060860484838486,0.07272584736347198
1772794470728862200,5.0138623046875,0.02383204735815525,-0.049623336642980576,0.07523214817047119
1772794470738907400,5.023907470703125,0.02418845146894455,-0.05871567875146866,0.0829920694231987
1772794470748951600,5.03395166015625,0.021733015775680542,-0.054367538541555405,0.08908085525035858
1772794470758996200,5.043996337890625,0.015294709242880344,-0.048691924661397934,0.0900040939450264
1772794470769041400,5.05404150390625,0.00976385734975338,-0.04115917161107063,0.07471887767314911
1772794470779086300,5.06408642578125,0.0027627870440483093,-0.04176599159836769,0.04915314540266991
1772794470789130500,5.074130615234375,0.002844013273715973,-0.0433947816491127,0.01606736332178116
1772794470799175200,5.084175048828125,0.007390140555799007,-0.048776775598526,-0.01637755148112774
1772794470809220400,5.094220458984375,0.008744624443352222,-0.055779557675123215,-0.033551476895809174
1772794470819265300,5.104265380859375,0.014238337054848671,-0.05255509912967682,-0.02954687736928463
1772794470829309400,5.114309326171875,0.018402189016342163,-0.03413161635398865,-0.013441944494843483
1772794470839354400,5.124354248046875,0.01935206726193428,-0.013340534642338753,0.008444709703326225
1772794470849399300,5.1343994140625,0.019360322505235672,0.0021302998065948486,0.022949883714318275
1772794470859444500,5.144444580078125,0.022232666611671448,0.012271838262677193,0.03406988084316254
1772794470869488400,5.15448828125,0.021599899977445602,0.01280101016163826,0.0360102578997612
1772794470879533300,5.164533203125,0.0187069084495306,0.0026580938138067722,0.033217135816812515
1772794470889578200,5.174578125,0.0174243301153183,-0.020328981801867485,0.03278197720646858
1772794470899623400,5.18462353515625,0.024275321513414383,-0.05614732205867767,0.037875689566135406
1772794470909667300,5.194667236328125,0.030870376154780388,-0.09123420715332031,0.041950590908527374
1772794470919712300,5.204712158203125,0.0399274118244648,-0.11734917014837265,0.05165841802954674
1772794470929757400,5.21475732421875,0.04751821979880333,-0.14114132523536682,0.0629747211933136
1772794470939802400,5.22480224609375,0.05943913757801056,-0.14904135465621948,0.08853068947792053
1772794470949846300,5.23484619140625,0.07423592358827591,-0.13784703612327576,0.12452011555433273
1772794470959891200,5.24489111328125,0.08161162585020065,-0.11327303200960159,0.16439269483089447
1772794470969936400,5.254936279296875,0.07254728674888611,-0.09543677419424057,0.1923540234565735
1772794470979980500,5.26498046875,0.0783177986741066,-0.10094398260116577,0.19598931074142456
1772794470990025200,5.275025146484375,0.07760912925004959,-0.12173687666654587,0.18835829198360443
1772794471000070400,5.2850703125,0.08092409372329712,-0.12560412287712097,0.16212603449821472
1772794471010115300,5.295115234375,0.08689942955970764,-0.13466311991214752,0.13214842975139618
1772794471020159500,5.305159423828125,0.08543097227811813,-0.14306315779685974,0.10228735208511353
1772794471030204400,5.315204345703125,0.07580684125423431,-0.13886335492134094,0.07670716196298599
1772794471040249300,5.325249267578125,0.0607728473842144,-0.12610888481140137,0.051298629492521286
1772794471050294300,5.335294189453125,0.0556957982480526,-0.09967941045761108,0.03857484459877014
1772794471060338200,5.345338134765625,0.05395892634987831,-0.06058298051357269,0.025956863537430763
1772794471070383400,5.35538330078125,0.0451076440513134,-0.036158062517642975,0.015323393046855927
1772794471080428300,5.36542822265625,0.03397858142852783,-0.02572305127978325,-0.0012081398162990808
1772794471090473500,5.375473388671875,0.02735236845910549,-0.020691275596618652,-0.026993663981556892
1772794471100517400,5.385517333984375,0.02316741645336151,-0.015691833570599556,-0.03664374351501465
1772794471110562300,5.395562255859375,0.015791790559887886,-0.011596424505114555,-0.046251896768808365
1772794471120607500,5.405607421875,0.010427886620163918,-0.0063178278505802155,-0.04248291626572609
1772794471130652400,5.41565234375,0.005917291156947613,0.012364780530333519,-0.024516431614756584
1772794471140696300,5.4256962890625,0.0048279957845807076,0.03487290441989899,-0.003942831419408321
1772794471150741200,5.4357412109375,0.0018625661032274365,0.043472252786159515,-0.000885255984030664
1772794471160786400,5.445786376953125,-0.00007594510680064559,0.041485391557216644,-0.0014054004568606615
1772794471170831400,5.455831298828125,-0.007446509785950184,0.04595817252993584,-0.007778344675898552
1772794471180875300,5.465875244140625,-0.01307579968124628,0.04863027110695839,-0.014691688120365143
1772794471190920400,5.47592041015625,-0.011198803782463074,0.04971763864159584,-0.017481349408626556
1772794471200965400,5.48596533203125,-0.016929229721426964,0.06630673259496689,-0.005522085819393396
1772794471211010600,5.496010498046875,-0.02623884193599224,0.07587280869483948,0.004018422681838274
1772794471221054200,5.50605419921875,-0.025521591305732727,0.07362387329339981,-0.0006041760789230466
1772794471231099400,5.516099365234375,-0.01567615196108818,0.08253294974565506,-0.005973641760647297
1772794471241144300,5.526144287109375,-0.012084110639989376,0.08721020072698593,-0.0220276340842247
1772794471251189500,5.536189453125,-0.00610424904152751,0.07827769219875336,-0.04580140486359596
1772794471261233400,5.5462333984375,-0.012032220140099525,0.06542617827653885,-0.07064798474311829
1772794471271278300,5.5562783203125,-0.01790742017328739,0.049222446978092194,-0.07635779678821564
1772794471281323500,5.566323486328125,-0.021128524094820023,0.024114586412906647,-0.07347667217254639
1772794471291368200,5.5763681640625,-0.03181499242782593,0.00549536244943738,-0.05928761512041092
1772794471301412400,5.586412353515625,-0.039319396018981934,0.00820364523679018,-0.03567781299352646
1772794471311457300,5.596457275390625,-0.04139399901032448,0.0002684909850358963,-0.009805472567677498
1772794471321502500,5.60650244140625,-0.041555970907211304,0.004506907891482115,0.016061581671237946
1772794471331546400,5.61654638671875,-0.05046158283948898,0.007083250675350428,0.02872384712100029
1772794471341591300,5.62659130859375,-0.05599739030003548,0.012007707729935646,0.03953620791435242
1772794471351636500,5.636636474609375,-0.05282317101955414,0.009661728516221046,0.042347174137830734
1772794471361681400,5.646681396484375,-0.052061229944229126,0.005215156357735395,0.03934274613857269
1772794471371725300,5.656725341796875,-0.05033949390053749,-0.00009465403854846954,0.04142773523926735
1772794471381770500,5.6667705078125,-0.04553664103150368,-0.0010419497266411781,0.031103035435080528
1772794471391815400,5.6768154296875,-0.04229557514190674,-0.00897018052637577,0.012508047744631767
1772794471401860400,5.6868603515625,-0.03806352615356445,-0.02859772928059101,-0.006932191085070372
1772794471411904300,5.696904296875,-0.029299858957529068,-0.042705025523900986,-0.016425294801592827
1772794471421949400,5.706949462890625,-0.022673945873975754,-0.04520605504512787,-0.012048847042024136
1772794471431994400,5.716994384765625,-0.01754842698574066,-0.04186485707759857,0.0005042287521064281
1772794471442039300,5.727039306640625,-0.008300506509840488,-0.03526005148887634,0.024315591901540756
1772794471452083500,5.73708349609375,-0.0015627087559551,-0.028285495936870575,0.030379876494407654
1772794471462128400,5.74712841796875,0.008724221959710121,-0.02468368038535118,0.027257736772298813
1772794471472173600,5.757173583984375,0.018382441252470016,-0.043543387204408646,0.007965532131493092
1772794471482218200,5.76721826171875,0.026838071644306183,-0.06012725830078125,-0.0018982423935085535
1772794471492262400,5.777262451171875,0.03932243585586548,-0.06589513272047043,0.006821213290095329
1772794471502307300,5.787307373046875,0.04272012040019035,-0.06751997768878937,0.024285463616251945
1772794471512352500,5.7973525390625,0.04295074939727783,-0.08432638645172119,0.030556408688426018
1772794471522397200,5.807397216796875,0.04778037220239639,-0.09722456336021423,0.03222670778632164
1772794471532441300,5.81744140625,0.05074659734964371,-0.10553708672523499,0.03341474384069443
1772794471542486500,5.827486572265625,0.05140577629208565,-0.10066387802362442,0.04143918678164482
1772794471552531500,5.837531494140625,0.05152002349495888,-0.10026732832193375,0.051822319626808167
1772794471562576400,5.847576416015625,0.05249651148915291,-0.0897245705127716,0.05366704985499382
1772794471572620300,5.857620361328125,0.04927142336964607,-0.0841311365365982,0.044922295957803726
1772794471582665500,5.86766552734375,0.03784588724374771,-0.08918517827987671,0.030387749895453453
1772794471592710100,5.877710205078125,0.03505915403366089,-0.09281133860349655,0.020189441740512848
1772794471602755300,5.88775537109375,0.03600567579269409,-0.07923661172389984,0.01646973006427288
1772794471612799500,5.897799560546875,0.03736947849392891,-0.05179061368107796,0.020517202094197273
1772794471622844400,5.907844482421875,0.04133480042219162,-0.030549991875886917,0.021918322890996933
1772794471632889300,5.917889404296875,0.03597705811262131,-0.01550073642283678,0.01932520419359207
1772794471642934300,5.927934326171875,0.03501368686556816,-0.0024311556480824947,0.00784595962613821
1772794471652978400,5.937978515625,0.0317169614136219,0.006048616021871567,-0.002079908736050129
1772794471663023400,5.9480234375,0.02151726931333542,0.009160516783595085,-0.013540786691009998
1772794471673068300,5.958068359375,0.020940694957971573,0.019216878339648247,-0.025570817291736603
1772794471683112400,5.968112548828125,0.023029636591672897,0.022815978154540062,-0.03380858153104782
1772794471693157400,5.978157470703125,0.029408439993858337,0.022159243002533913,-0.028244707733392715
1772794471703202800,5.988202880859375,0.03012746199965477,0.020393244922161102,-0.025821955874562263
1772794471713247700,5.998247802734375,0.0324673168361187,0.024850578978657722,-0.021787267178297043
1772794471723292000,6.0082919921875,0.03190403804183006,0.034669436514377594,-0.013656942173838615
1772794471733336800,6.0183369140625,0.03198898956179619,0.04823264852166176,0.005757236387580633
1772794471743381800,6.0283818359375,0.02810661494731903,0.0456148162484169,0.01624365895986557
1772794471753426700,6.0384267578125,0.018582884222269058,0.05062182620167732,0.02045837789773941
1772794471763470800,6.048470947265625,0.011147483251988888,0.044440533965826035,0.026640113443136215
1772794471773516000,6.05851611328125,0.0027952776290476322,0.023913949728012085,0.021469319239258766
1772794471783560700,6.068560791015625,0.0009707874851301312,0.009946899488568306,0.024600742384791374
1772794471793606000,6.07860595703125,-0.011889350600540638,-0.007391078397631645,0.0358845591545105
1772794471803649800,6.08864990234375,-0.01067254226654768,-0.027093837037682533,0.05837031081318855
1772794471813694700,6.09869482421875,-0.015044920146465302,-0.03459489345550537,0.0837334543466568
1772794471823739600,6.10873974609375,-0.021551229059696198,-0.036886028945446014,0.09991949051618576
1772794471833784800,6.118784912109375,-0.030804913491010666,-0.045667801052331924,0.10794252902269363
1772794471843829000,6.1288291015625,-0.033719517290592194,-0.04993688687682152,0.11706375330686569
1772794471853873700,6.138873779296875,-0.037093743681907654,-0.05905129015445709,0.12029816210269928
1772794471863918800,6.1489189453125,-0.028781095519661903,-0.053771208971738815,0.11332440376281738
1772794471873963800,6.1589638671875,-0.020506389439105988,-0.037884920835494995,0.0977579653263092
1772794471884008000,6.169008056640625,-0.009534923359751701,-0.0159139446914196,0.07299596816301346
1772794471894052900,6.179052978515625,-0.0032400088384747505,-0.02018299140036106,0.043491605669260025
1772794471904097800,6.189097900390625,0.004558383487164974,-0.02113351970911026,0.013618363067507744
1772794471914142700,6.199142822265625,0.009611199609935284,-0.02281024679541588,-0.00905738864094019
1772794471924186600,6.2091865234375,0.014734301716089249,-0.011792696081101894,-0.029307836666703224
1772794471934231800,6.219231689453125,0.017078416422009468,-0.008568407036364079,-0.04440396651625633
1772794471944276700,6.22927685546875,0.018435725942254066,-0.009959382936358452,-0.06074052304029465
1772794471954322000,6.239322021484375,0.016196539625525475,-0.00603841058909893,-0.06209474056959152
1772794471964365800,6.24936572265625,0.014970174059271812,0.004059711471199989,-0.0545068234205246
1772794471974410800,6.25941064453125,0.009082990698516369,0.015160299837589264,-0.03691478073596954
1772794471984456000,6.2694560546875,0.008056999184191227,0.022870903834700584,-0.015686223283410072
1772794471994500900,6.2795009765625,0.00521434098482132,0.025996655225753784,-0.0026196902617812157
1772794472004544800,6.289544677734375,0.009379102848470211,0.024734042584896088,0.002558669075369835
1772794472014589700,6.299589599609375,0.013443087227642536,0.01662498340010643,-0.0030209198594093323
1772794472024635000,6.309634765625,0.01704401895403862,0.013228338211774826,-0.007235103286802769
1772794472034679800,6.3196796875,0.023636141791939735,0.006626361981034279,-0.013238134793937206
1772794472044723700,6.3297236328125,0.033382758498191833,-0.005032372195273638,-0.011076219379901886
1772794472054769000,6.339768798828125,0.04194987937808037,-0.015502589754760265,0.00017563614528626204
1772794472064813800,6.349813720703125,0.046502843499183655,-0.03337005525827408,0.011722608469426632
1772794472074859000,6.35985888671875,0.048120446503162384,-0.04615136608481407,0.02709357440471649
1772794472084902700,6.369902587890625,0.056379739195108414,-0.04600483551621437,0.04989761486649513
1772794472094947800,6.37994775390625,0.057173892855644226,-0.03521024435758591,0.0703006312251091
1772794472104992800,6.38999267578125,0.050197191536426544,-0.027326170355081558,0.07744984328746796
1772794472115038000,6.400037841796875,0.04776225984096527,-0.03661341220140457,0.07518722116947174
1772794472125081900,6.410081787109375,0.036569975316524506,-0.036544762551784515,0.0678415298461914
1772794472135126800,6.420126708984375,0.02462703362107277,-0.035524770617485046,0.06357168406248093
1772794472145172000,6.430171875,0.018186546862125397,-0.02194131165742874,0.05898671597242355
1772794472155217000,6.440216796875,0.01813674531877041,0.0011674701236188412,0.0646403431892395
1772794472165260800,6.4502607421875,0.008868872188031673,0.025859814137220383,0.06117423251271248
1772794472175305700,6.4603056640625,0.0029412084259092808,0.034420281648635864,0.055326733738183975
1772794472185351000,6.470350830078125,0.0010418626479804516,0.0359981507062912,0.04075874760746956
1772794472195394800,6.480394775390625,0.003105279989540577,0.03841869533061981,0.025572871789336205
1772794472205439700,6.490439697265625,0.003016278613358736,0.04947507753968239,0.00794677622616291
1772794472215485000,6.50048486328125,0.006734583992511034,0.05723206698894501,-0.0025130552239716053
1772794472225529900,6.51052978515625,0.001900742412544787,0.05975125730037689,-0.01691185124218464
1772794472235573800,6.52057373046875,-0.005204837769269943,0.04667060822248459,-0.02786143869161606
1772794472245619000,6.530618896484375,-0.008563831448554993,0.03777485713362694,-0.023676317185163498
1772794472255663900,6.540663818359375,-0.009433886036276817,0.03827552869915962,-0.014837285503745079
1772794472265708800,6.550708740234375,-0.01032636221498251,0.032140135765075684,0.0007853863062337041
1772794472275752700,6.560752685546875,-0.01246488094329834,0.02256634086370468,0.007911738939583302
1772794472285798000,6.5707978515625,-0.01465402077883482,0.01762622594833374,0.014620735310018063
1772794472295842800,6.5808427734375,-0.019870886579155922,0.010854608379304409,0.026751432567834854
1772794472305888000,6.590887939453125,-0.02016487903892994,0.00044319406151771545,0.037266965955495834
1772794472315932000,6.600931884765625,-0.020144371315836906,-0.007239493075758219,0.04819444939494133
1772794472325976800,6.610976806640625,-0.01847163960337639,-0.01619943231344223,0.0516272634267807
1772794472336022000,6.62102197265625,-0.014128823764622211,-0.016056952998042107,0.05058170482516289
1772794472346066700,6.631066650390625,-0.019701028242707253,-0.011586788110435009,0.05901220440864563
1772794472356110800,6.64111083984375,-0.021420365199446678,0.0018086456693708897,0.05993232503533363
1772794472366155800,6.65115576171875,-0.017464227974414825,0.022191522642970085,0.051902517676353455
1772794472376201000,6.661200927734375,-0.01886638253927231,0.031937628984451294,0.030953027307987213
1772794472386245600,6.67124560546875,-0.01854574866592884,0.048228874802589417,0.003571848850697279
1772794472396289800,6.681289794921875,-0.016589656472206116,0.06280674785375595,-0.018949704244732857
1772794472406335000,6.6913349609375,-0.008061621338129044,0.06668335944414139,-0.027600867673754692
1772794472416380000,6.7013798828125,-0.004012017976492643,0.06996490806341171,-0.027720976620912552
1772794472426424800,6.7114248046875,0.008010034449398518,0.07358957827091217,-0.028862254694104195
1772794472436468700,6.72146875,0.005109585355967283,0.06628159433603287,-0.03510177135467529
1772794472446514000,6.731513916015625,-0.00045740348286926746,0.06139608472585678,-0.02867807447910309
1772794472456558600,6.74155859375,0.0007186484290286899,0.05312776938080788,-0.022592484951019287
1772794472466603800,6.751603759765625,-0.0012224086094647646,0.04706704616546631,-0.014190483838319778
1772794472476648000,6.76164794921875,-0.008338641375303268,0.03165772929787636,0.004119281191378832
1772794472486692900,6.77169287109375,-0.011770051904022694,0.014971377328038216,0.015326663851737976
1772794472496737800,6.78173779296875,-0.007575839292258024,0.0054939864203333855,0.021345142275094986
1772794472506782700,6.79178271484375,0.0007394314743578434,0.0006364388391375542,0.014728407375514507
1772794472516827000,6.801826904296875,0.003841747995465994,-0.005419056862592697,-0.0013871794799342752
1772794472526871800,6.811871826171875,0.0033837533555924892,-0.01718347705900669,-0.002663601189851761
1772794472536916700,6.821916748046875,0.004422652535140514,-0.016170144081115723,0.010171237401664257
1772794472546961700,6.831961669921875,0.004912850446999073,-0.02533838525414467,0.021097851917147636
1772794472557005800,6.842005859375,0.0013822978362441063,-0.030057504773139954,0.03146713599562645
