time,seconds_elapsed,z,y,x
1772794305837337600,0.080337646484375,-0.6003501579374074,0.7462356426220387,-1.1964908084210009
1772794305847382500,0.090382568359375,-0.679914108517766,0.8986029636066406,-1.4353180500447749
1772794305857427500,0.100427490234375,-0.6395172161996364,1.0409016027804463,-1.4796218866735695
1772794305867472400,0.110472412109375,-0.44311844578683374,1.086598282007128,-1.430311912320554
1772794305877517600,0.120517578125,-0.1351689334243536,1.095803917247802,-1.3273511579312383
1772794305887561200,0.130561279296875,0.1695984417706728,1.1464905867815016,-1.2313454833768307
1772794305897606400,0.1406064453125,0.3058686144351959,1.2351846231482921,-1.1207398402575404
1772794305907651300,0.1506513671875,0.34205110392868515,1.3483666195616126,-1.0069176462445408
1772794305917696500,0.160696533203125,0.3426549150407314,1.3834095836311577,-0.7757337589807808
1772794305927741400,0.170741455078125,0.47175651125013823,1.40959031907022,-0.705812373753637
1772794305937785300,0.180785400390625,0.717811000713706,1.2662240506649016,-0.5629442641288042
1772794305947830500,0.19083056640625,0.97159345408082,1.0436811504963786,-0.3144735073037445
1772794305957875500,0.20087548828125,1.1881155595898627,0.8562032070335001,-0.16337556693414226
1772794305967920600,0.210920654296875,1.2157412331402302,0.6814984550997615,0.015929806096269747
1772794305977965300,0.22096533203125,1.0779629940003157,0.5620664583809674,0.16669959679031743
1772794305988009500,0.231009521484375,0.795367118602991,0.4566725585605949,0.3503361171931028
1772794305998054400,0.241054443359375,0.5618488701075315,0.2603299022492021,0.41886053163651377
1772794306008099300,0.251099365234375,0.44714521708488464,0.004079743594303727,0.46721842942908404
1772794306018144300,0.261144287109375,0.38594109905958174,-0.24012882574163377,0.51740748817157
1772794306028188400,0.2711884765625,0.32564708161652084,-0.22999496974013744,0.6757667795799672
1772794306038233600,0.281233642578125,0.08270517121553421,-0.3479731874540448,0.7850823828887193
1772794306048278300,0.2912783203125,-0.23389234250485896,-0.4684212293475866,0.6484554326757789
1772794306058323500,0.301323486328125,-0.5379413402974605,-0.604001812312752,0.879843171948567
1772794306068368400,0.311368408203125,-0.7660860790610313,-0.6099799368742853,1.184450607341528
1772794306078412500,0.32141259765625,-0.6941723509728908,-0.5770213778633624,1.2173194422423839
1772794306088457500,0.33145751953125,-0.4717804766476154,-0.6385665644112974,1.1290696425117552
1772794306098502400,0.34150244140625,-0.23513620508611202,-0.7617880896061658,1.1425957713000476
1772794306108547300,0.35154736328125,-0.11326923630535601,-0.9051223554380238,1.1868972698412834
1772794306118592500,0.361592529296875,-0.08645487913787364,-0.9299067411478609,1.2951000165373086
1772794306128636400,0.371636474609375,-0.08835749788880348,-0.8780180754132568,1.364059863255918
1772794306138681300,0.381681396484375,-0.11408347529768943,-0.8638448808930814,1.4263769109591842
1772794306148726500,0.3917265625,-0.15289514425098896,-0.9458977987449616,1.3146028816476463
1772794306158771500,0.401771484375,-0.23113339918553827,-0.9932420990481972,1.0828320613414049
1772794306168815400,0.4118154296875,-0.3438905943155289,-1.0953500360004602,0.8253686544392257
1772794306178860500,0.421860595703125,-0.4083277029126882,-1.0949855866022407,0.5726045112691819
1772794306188905500,0.431905517578125,-0.41173897266089915,-1.1929652646433562,0.5269038134545088
1772794306198950700,0.44195068359375,-0.33288054000139233,-1.2741156806975602,0.4253874857198447
1772794306208995300,0.451995361328125,-0.2196077965646982,-1.3668705367624758,0.21807927182316778
1772794306219039500,0.46203955078125,-0.0867225901633501,-1.2707342215657234,-0.006648351973295211
1772794306229084400,0.47208447265625,-0.08293021214306354,-1.1959032908566296,-0.41895657588951285
1772794306239129600,0.482129638671875,-0.2119575740724802,-1.563714420594275,-0.3047002282429486
1772794306249174300,0.49217431640625,-0.19078502218425272,-1.6648764549985526,-0.29519451407715674
1772794306259219500,0.502219482421875,-0.23790040910243987,-1.8033168113090097,0.016584128119423985
1772794306269263600,0.512263671875,-0.25768179889321324,-1.4803548771232367,0.24718203218877313
1772794306279308300,0.522308349609375,-0.2670516847848892,-1.0250576985690742,0.10415208306573331
1772794306289353500,0.532353515625,-0.37895313986837864,-0.8812780270572751,0.2654725988999009
1772794306299398400,0.5423984375,-0.45547173140347,-0.5334362839631736,0.6140409027028828
1772794306309442600,0.552442626953125,-0.7128308742135763,-0.12908822527118027,0.846833613402769
1772794306319487200,0.5624873046875,-0.9987100090652704,0.0767096571277827,0.7119194584570825
1772794306329532400,0.572532470703125,-1.1759709482878447,0.23228541876487432,0.6204822608619928
1772794306339577300,0.582577392578125,-1.270473524802923,0.3673395667031407,0.5753942150529474
1772794306349622500,0.59262255859375,-1.2422925554573536,0.5920459285158663,0.5723621538806707
1772794306359666400,0.60266650390625,-1.0695721822738646,0.6939445335663854,0.48023280930295587
1772794306369711400,0.61271142578125,-0.9275766176998614,0.35481085145436225,0.23498890556991098
1772794306379756500,0.622756591796875,-0.822061064261198,0.17418138564676044,-0.11904190142266452
1772794306389801500,0.632801513671875,-0.6922475203901529,0.10224529959633946,-0.5281396388597787
1772794306399846700,0.6428466796875,-0.4780424596518278,0.08722527898848056,-0.7142388413153589
1772794306409890300,0.652890380859375,-0.14265315169990062,0.20258710365891455,-0.63878787901178
1772794306419935500,0.662935546875,0.25001930144131185,0.1732784454576671,-0.5904298716213554
1772794306429980400,0.67298046875,0.6720797616302967,0.0890462838705629,-0.5835737951815128
1772794306440025300,0.683025390625,1.0650479828476904,-0.1540971404518932,-0.5540087510664016
1772794306450069500,0.693069580078125,1.3468284502089023,-0.5334567422293126,-0.6479992133408784
1772794306460114400,0.703114501953125,1.583009780433774,-0.678465809405595,-0.6410649570982903
1772794306470159600,0.71315966796875,1.6777806524962187,-0.4259665277168154,-0.2262250227473676
1772794306480204300,0.723204345703125,1.5973913570076226,-0.15763473999351263,0.25194420508928594
1772794306490249500,0.73324951171875,1.5037544574111699,0.2308526825480163,0.652947410332784
1772794306500293400,0.74329345703125,1.308808808416128,0.518625668322295,0.9390157110810279
1772794306510338600,0.753338623046875,1.0204320115298031,0.6104399556014687,1.0768521101489663
1772794306520383200,0.76338330078125,0.8027683347702026,0.6372457641363144,1.0133910800423473
1772794306530428400,0.773428466796875,0.5739508113116025,0.3590775689881295,0.9154831520631909
1772794306540474000,0.78347412109375,0.40952071208953855,0.2374112373460084,0.9430569492958486
1772794306550518300,0.793518310546875,0.22037001310884952,0.17181180697120724,0.7842913055762648
1772794306560563200,0.803563232421875,0.008441080608963966,0.08018003665208816,0.5320915182907134
1772794306570608000,0.813608154296875,-0.1917237643390894,0.05153342255614698,0.35458880620151756
1772794306580653300,0.8236533203125,-0.46997898018360135,0.03927219913713634,0.20986315907649694
1772794306590698200,0.8336982421875,-0.763673172700405,0.04355798669755458,-0.035363355130329725
1772794306600742400,0.843742431640625,-0.8974427607208489,0.07196297405734658,-0.3105030693028122
1772794306610787000,0.853787109375,-0.8923369620144367,0.0018025924425572155,-0.6629989948783069
1772794306620832300,0.863832275390625,-0.6991717666953802,0.061078847677819424,-0.9243911925967783
1772794306630877200,0.873877197265625,-0.5339297665685415,0.033967407259903847,-1.0734737197570503
1772794306640921000,0.883921142578125,-0.38752515338063237,-0.11193006012346594,-1.1934032176692038
1772794306650966300,0.89396630859375,-0.2279085919201374,-0.10993326028306037,-1.2222586522102354
1772794306661011200,0.90401123046875,-0.00027706337571144104,-0.16486622561700642,-1.1587702957052737
1772794306671056400,0.914056396484375,0.25288053609132766,-0.1799300853665918,-0.9811799053326249
1772794306681101300,0.924101318359375,0.4674415706604719,-0.16634305670391766,-0.7884604079544544
1772794306691145200,0.934145263671875,0.6135211896777153,-0.05844597842358052,-0.5499884095091372
1772794306701190100,0.944190185546875,0.6146954941540956,0.01502977481689304,-0.25791611910574136
1772794306711235300,0.9542353515625,0.49102819795310493,0.010504771673120557,0.010288754302263258
1772794306721280300,0.9642802734375,0.38770460160076614,0.08344020749181509,0.20927578764259813
1772794306731324200,0.97432421875,0.2649836463391781,0.24394520569201558,0.28718773323222996
1772794306741369300,0.984369384765625,0.0857592980891466,0.2605139170465991,0.3269298149034381
1772794306751414300,0.994414306640625,-0.14747487276792526,0.2276203860959038,0.31184622754007574
1772794306761459200,1.004459228515625,-0.33693127669692036,0.19286628543771803,0.21598712184950708
1772794306771504000,1.014504150390625,-0.44306408525109287,0.18953447413388638,0.12384747507348656
1772794306781548300,1.02454833984375,-0.39397359886765476,0.1871636168166995,0.006445157551392912
1772794306791593200,1.03459326171875,-0.29031624051630495,0.2114222981519997,-0.025723054799437522
1772794306801638100,1.04463818359375,-0.10785071838796138,0.3082226302154362,-0.01923603086769581
1772794306811683000,1.05468310546875,-0.03068447659909725,0.30506891542486847,0.08318601353503763
1772794306821728300,1.064728271484375,-0.008628127613663673,0.23409939111797137,0.28544271619580686
1772794306831772400,1.0747724609375,0.039541152271628376,0.16609140176409853,0.3365607628840953
1772794306841817000,1.084817138671875,0.07871054862141609,0.08328547358782962,0.2621487882394343
1772794306851862300,1.0948623046875,0.1685083084464073,-0.0527760978273116,0.1211527560967952
1772794306861907200,1.1049072265625,0.2379641219884157,-0.08711748949876054,0.07563800930827856
1772794306871951400,1.114951416015625,0.2692038943827152,-0.15734134653750806,0.01114464047923684
1772794306881996000,1.12499609375,0.19230477909743784,-0.19132512041032312,-0.10794256138987839
1772794306892041200,1.135041259765625,0.09022504532635212,-0.11227863609911873,-0.15065518330447375
1772794306902086100,1.145086181640625,-0.004049567651748657,-0.09436367950104177,-0.16387494955733417
1772794306912131300,1.15513134765625,-0.06215162800848484,-0.10708106745602562,-0.27839484351091087
1772794306922175200,1.16517529296875,-0.14253040210306644,-0.09005228257533163,-0.31361835177913305
1772794306932220200,1.17522021484375,-0.28546704691946506,-0.10731520500546321,-0.29458544226810335
1772794306942265300,1.185265380859375,-0.3543243100464344,-0.13618485073493794,-0.37964682122096416
1772794306952310300,1.195310302734375,-0.35266543692350383,-0.18761813738485797,-0.3923853067629039
1772794306962354200,1.205354248046875,-0.3412485553741455,-0.18494740207195282,-0.2962281679738313
1772794306972399400,1.2153994140625,-0.4021013757437467,-0.1263419405040331,-0.17067644626572728
1772794306982444300,1.2254443359375,-0.4456991099298,-0.04491862579258159,-0.0031768034052103754
1772794306992489200,1.2354892578125,-0.4637719422370195,0.007640632679965347,0.161312332527712
1772794307002534100,1.2455341796875,-0.4117208524823189,0.01263590195029974,0.23199995288699865
1772794307012578300,1.255578369140625,-0.2593266434907913,-0.009697364280372857,0.19768179596066474
1772794307022623200,1.265623291015625,0.029965514674782753,-0.03850791850006208,0.16055603426769374
1772794307032668200,1.275668212890625,0.22258184393942354,-0.046685032676905394,0.17895364154987037
1772794307042713000,1.285713134765625,0.24597090283334253,0.008380564327072352,0.2733416517745703
1772794307052758300,1.29575830078125,0.2343389172285795,0.0670984002282843,0.21083872611038385
1772794307062802400,1.305802490234375,0.2378641687452793,0.05046835060790181,0.10527363444156944
1772794307072847000,1.31584716796875,0.28880992760658264,-0.030745522603951393,0.04531367125846445
1772794307082892300,1.325892333984375,0.3648170624881983,-0.04878584088105708,-0.04670066863745451
1772794307092937200,1.335937255859375,0.39129648861289024,-0.08039280261993408,-0.13277305126376449
1772794307102981400,1.3459814453125,0.28965806886851786,-0.15415471585802734,-0.267536472627148
1772794307113026000,1.356026123046875,0.17322189296483992,-0.18013145315758883,-0.3651500938348472
1772794307123071200,1.3660712890625,0.1551981604963541,-0.159591609682329,-0.3878676101427525
1772794307133116200,1.3761162109375,0.18138298758864402,-0.14990149712665005,-0.32529183843806386
1772794307143161300,1.386161376953125,0.2283750403881073,-0.07958941381517798,-0.21711415311805904
1772794307153205200,1.396205322265625,0.23893910450041292,-0.017619645179621873,-0.03340615664795041
1772794307163250200,1.406250244140625,0.24502397737205028,0.0010754106791689992,0.10784589608237147
1772794307173295400,1.41629541015625,0.2014993084222078,-0.046973201968520874,0.12119169986769557
1772794307183340300,1.42634033203125,0.1651402933180332,-0.11279290576418861,0.14187062302008271
1772794307193384200,1.43638427734375,0.07174480126202105,-0.12887067353036255,0.2486548081550747
1772794307203429000,1.44642919921875,-0.05978606792092323,-0.12589772213418035,0.36603272188827396
1772794307213474300,1.456474365234375,-0.15766192026138304,-0.14228530476819723,0.31672720451466735
1772794307223519200,1.466519287109375,-0.14265490526556968,-0.10083398976000026,0.24155257493443785
1772794307233564200,1.476564208984375,-0.13317922091186046,-0.07924618986807763,0.18196860545687377
1772794307243608300,1.4866083984375,-0.1626835478156805,-0.1268215224482119,0.1285037764467299
1772794307253653200,1.4966533203125,-0.17495441584587096,-0.20438304716497657,0.08015256412327289
1772794307263698400,1.506698486328125,-0.12307108387351036,-0.23038309227488935,0.005123407428339124
1772794307273743000,1.5167431640625,-0.05842530096173286,-0.20819725342458112,-0.07466938347183168
1772794307283787300,1.526787353515625,0.010824760875105857,-0.18438076289882882,-0.08943404107913375
1772794307293832200,1.536832275390625,0.169428345900774,-0.18736202546563,-0.06885134484283625
1772794307303877000,1.546877197265625,0.20946751082241533,-0.14366691358601674,-0.02953925208672881
1772794307313922000,1.556922119140625,0.23216683388650416,-0.14908376926928757,0.039607568571344016
1772794307323967200,1.56696728515625,0.23658465032875536,-0.16959796684663742,-0.004999927179142833
1772794307334011400,1.577011474609375,0.23300854540765284,-0.18238778071701525,-0.045104412421956654
1772794307344056000,1.58705615234375,0.19806816492974758,-0.19491640463424845,-0.08186302130296826
1772794307354101200,1.597101318359375,0.17980477848649024,-0.1814794702330604,-0.13333499599546192
1772794307364146200,1.607146240234375,0.17218378208875654,-0.16899682261571286,-0.15483531853333116
1772794307374190300,1.6171904296875,0.17604454917013646,-0.16656217934731393,-0.11444456369504331
1772794307384235300,1.6272353515625,0.12997604095637796,-0.10451284266952425,-0.058522916117310524
1772794307394280200,1.6372802734375,-0.014632336464524269,-0.06916575368740595,-0.011171528486162423
1772794307404325000,1.6473251953125,-0.14094517873823642,-0.06869293027757667,0.027518706044554708
1772794307414370300,1.657370361328125,-0.22682547285854815,-0.06405707803731783,0.052931598916277287
1772794307424414200,1.667414306640625,-0.2803016269803047,-0.021155308492481706,0.10749730184040963
1772794307434459100,1.677459228515625,-0.26098434756994243,-0.01715998264546506,0.21221374079063535
1772794307444504300,1.68750439453125,-0.2458855626374483,0.02092819433887489,0.32738873765207827
1772794307454549200,1.69754931640625,-0.27679157303273677,0.046710568976961075,0.43718306438848376
1772794307464593200,1.70759326171875,-0.3425812652826309,0.042631857429118826,0.6386280122749507
1772794307474638300,1.717638427734375,-0.47561377120018,0.09468926732675172,0.7914831898417324
1772794307484683300,1.727683349609375,-0.568750320059061,0.18832687017610295,0.8000723006192594
1772794307494728400,1.737728515625,-0.4907610714495182,0.2527733128571883,0.6927602191526442
1772794307504772000,1.747772216796875,-0.25846798083484174,0.13700423169326967,0.44745866694822906
1772794307514817300,1.7578173828125,-0.09706745856702327,0.09531137214731425,0.33853739671930666
1772794307524862200,1.7678623046875,-0.022277298259735106,0.07380558798303827,0.1360669051773846
1772794307534907400,1.777907470703125,0.057069210177659986,0.06474577268753201,-0.1468952462490648
1772794307544952300,1.787952392578125,0.10756897883713244,-0.012530487080756575,-0.2988680880233645
1772794307554996500,1.79799658203125,0.1421831961005926,-0.06135841353787109,-0.479593780747056
1772794307565041700,1.808041748046875,0.05518588064908981,-0.11215584996966645,-0.6222004629567265
1772794307575086300,1.81808642578125,-0.07697451860904693,-0.15548704217402265,-0.6856216725096106
1772794307585131500,1.828131591796875,-0.1514379311800003,-0.2753882455734536,-0.7451163562685251
1772794307595175400,1.838175537109375,-0.016559505134820938,-0.26378428048677743,-0.7649490378551185
1772794307605220400,1.848220458984375,0.11070026260018348,-0.26611349061932416,-0.6655573741242289
1772794307615265300,1.858265380859375,0.20774901646673677,-0.2293741709606722,-0.48303427658975123
1772794307625310500,1.868310546875,0.2852075192004442,-0.17100889309048653,-0.2868215302683413
1772794307635355400,1.87835546875,0.3746709325045347,-0.17340240063089876,-0.14729644746109843
1772794307645399300,1.8883994140625,0.4010568351268768,-0.14422277563679964,-0.04816416531875729
1772794307655444500,1.898444580078125,0.3661065177768469,-0.12556596942916512,0.0460484883390367
1772794307665489400,1.908489501953125,0.29255203674435615,-0.16103117749877274,0.11400412645116448
1772794307675534600,1.91853466796875,0.24119185186326503,-0.20104652315340935,0.15641981124579907
1772794307685578200,1.928578125,0.23043723361492155,-0.19717465015612543,0.14294702007994056
1772794307695623400,1.93862353515625,0.19983049842715261,-0.18287629488632082,0.14660291223898528
1772794307705668400,1.94866845703125,0.1761725594639778,-0.15096176503561437,0.15182926858514548
1772794307715713500,1.958713623046875,0.16179332097768784,-0.07806706308610736,0.1044140219375491
1772794307725758500,1.968758544921875,0.06615384938716888,0.03987495080325752,0.11527078538611531
1772794307735802400,1.97880224609375,0.022385434809327125,0.15350352194029837,0.05068710792511701
1772794307745847600,1.98884765625,0.07908347358703613,0.19944036659840494,0.0030967969715595244
1772794307755892500,1.998892578125,0.26241408811211586,0.17352781710885465,-0.0006871785465627908
1772794307765937400,2.0089375,0.5128776261895894,0.08079813201781362,0.03129113725535571
1772794307775981300,2.018981201171875,0.6860521728813648,-0.0151429163351655,0.10526004430763423
1772794307786026500,2.029026611328125,0.7066811194121837,-0.08564973676744848,0.18413170177489518
1772794307796071400,2.039071533203125,0.6838239754378795,-0.10518456791862844,0.056335342945158476
1772794307806116400,2.049116455078125,0.44064007297456265,-0.029966208794526755,0.03813333130031824
1772794307816160500,2.059160400390625,0.12479659249186516,0.04721307513900101,0.19356720024868845
1772794307826205400,2.069205322265625,-0.13142740880846976,0.10281374713405966,0.17823146475516258
1772794307836250600,2.079250732421875,-0.33264556220173835,0.10423187030367552,0.1595159506302327
1772794307846295300,2.08929541015625,-0.35307577129006384,0.14160240053795278,0.14841134990043936
1772794307856340500,2.099340576171875,-0.297203661942482,0.1482631736014038,0.11633768396526574
1772794307866384400,2.10938427734375,-0.2772165204465389,0.13905593092553317,0.10553221231251954
1772794307876429300,2.11942919921875,-0.2981172696560621,0.17128599299881606,0.10239588704816996
1772794307886474500,2.129474609375,-0.3551560846954584,0.13736184035874902,0.12546112081520258
1772794307896519400,2.13951953125,-0.4031780650645494,0.10758010301934555,0.129649585480988
1772794307906563600,2.1495634765625,-0.32697394630610943,0.07508112434418872,0.14753149832598864
1772794307916608300,2.159608154296875,-0.16294366005659103,0.040157402740139514,0.15430837204977868
1772794307926653400,2.1696533203125,-0.003692424777150154,0.00240001034643501,0.12343582553267478
1772794307936698400,2.179698486328125,0.1401923145443201,-0.0009460304121486843,0.0767359606128186
1772794307946743600,2.18974365234375,0.21727555422484873,-0.006348857570067048,0.06815824801214039
1772794307956787500,2.199787353515625,0.19825638097822665,-0.02479932755064219,0.06695968587733805
1772794307966832400,2.209832275390625,0.152622757050395,-0.061828186474088574,0.026103578549623488
1772794307976877600,2.219877685546875,0.1486234582811594,-0.13376264682300387,-0.03532908753454685
1772794307986922500,2.229922607421875,0.16852292149364947,-0.18350525870593262,-0.025018559791892766
1772794307996966400,2.23996630859375,0.16838731241524219,-0.2034788831331767,-0.051571343413740395
1772794308007011300,2.25001123046875,0.12407412343621253,-0.232258622089494,0.019595073438435792
1772794308017056500,2.260056396484375,0.05926759700477123,-0.24017251875288784,0.024256927769631145
1772794308027101400,2.270101318359375,0.023068156376481054,-0.19469987580673767,0.04385667738318443
1772794308037145300,2.280145263671875,0.0014408464580774306,-0.07568909104154445,0.0508706477984786
1772794308047190500,2.2901904296875,0.01377133572101593,-0.04249022960187867,0.13116671204566954
1772794308057235500,2.3002353515625,0.031253800919651985,-0.011401839243853464,0.2034318839199841
1772794308067280600,2.31028076171875,0.010105798950791358,0.007444950277660973,0.23064532340764998
1772794308077325300,2.3203251953125,-0.09066519030928612,0.03056636207818519,0.17323212209790945
1772794308087369500,2.330369384765625,-0.22815759824514387,0.11564196591922081,0.2008105955056846
1772794308097414400,2.340414306640625,-0.24229542919099328,0.16111587837385014,0.2726803383216262
1772794308107459600,2.35045947265625,-0.14776654919087887,0.083576035765931,-0.10199234774857759
1772794308117504300,2.360504150390625,-0.15098200410604476,0.05574382962568197,-0.285121156091243
1772794308127548400,2.37054833984375,-0.18219898014664648,0.05421699908431619,-0.15171850168704987
1772794308137593600,2.380593505859375,-0.13265139764547348,-0.07913598922556266,-0.2599126266852021
1772794308147638300,2.39063818359375,-0.06402735875248909,-0.1095749848973006,-0.404745460511744
1772794308157683500,2.400683349609375,0.029737551137804984,-0.12909756848826073,-0.4879813776031136
1772794308167728400,2.410728271484375,0.07230594227612018,-0.11959496872816235,-0.476519341737777
1772794308177772500,2.4207724609375,0.06062018065750598,-0.126676168293925,-0.42963104157373305
1772794308187817200,2.430817138671875,0.055640638679265976,-0.0842960388698615,-0.37972441650182004
1772794308197862400,2.4408623046875,0.0942734439343214,-0.08811714979428797,-0.28897753925845027
1772794308207907300,2.4509072265625,0.11591302881240845,-0.08422591450940817,-0.15819105870202183
1772794308217951500,2.460951416015625,0.07225801148116588,-0.011923497630935162,-0.02919569934606552
1772794308227996400,2.470996337890625,-0.0265168355256319,0.07090201659521553,0.11901128708869219
1772794308238041300,2.481041259765625,-0.11873977667093276,0.08218006049604154,0.20391849839314818
1772794308248086500,2.49108642578125,-0.21299276233911513,0.0895534205419477,0.2044244020886719
1772794308258130400,2.50113037109375,-0.2523340081244707,0.0670778140979819,0.16613953348845242
1772794308268175400,2.51117529296875,-0.22968320037722587,0.043005211653001606,0.15022577891126274
1772794308278220300,2.52122021484375,-0.18042378716766833,0.03887772905998863,0.16735402384474873
1772794308288265500,2.531265380859375,-0.08961012829840183,0.05446199595448561,0.14497823364660142
1772794308298310400,2.541310302734375,0.08086684987246989,0.08367129456764087,0.12230682150274515
1772794308308354300,2.551354248046875,0.18998598076105117,0.05684312807051464,0.049935120514035224
1772794308318399500,2.5613994140625,0.2860492307215929,0.01005889106914401,-0.04422960234880447
1772794308328444400,2.5714443359375,0.30332652873694893,-0.04605804161867127,-0.11188055842593311
1772794308338489600,2.581489501953125,0.29458617292046546,-0.056686165676824746,-0.2029642664082348
1772794308348533500,2.591533447265625,0.3566366786420345,0.027436160593945533,-0.2674168648354709
1772794308358578400,2.601578369140625,0.38638358213007445,0.08872623986965045,-0.2360541967138648
1772794308368623600,2.61162353515625,0.36975101175904274,0.0836184866681695,-0.17163652346953748
1772794308378668500,2.62166845703125,0.31022330251336094,0.05909602156383916,-0.14769026908427477
1772794308388712400,2.63171240234375,0.18089958798587322,-0.027981391652859747,-0.17962591478824613
1772794308398757400,2.64175732421875,-0.03153670951426029,-0.045678330719238144,-0.2555507782138884
1772794308408802600,2.651802490234375,-0.23166706767082212,-0.04371336905551143,-0.3002022592365742
1772794308418847200,2.66184716796875,-0.33328736723661423,-0.006114464292302727,-0.27947116750553247
1772794308428892400,2.671892333984375,-0.34825697283148765,0.013693393380288034,-0.19218407532721757
1772794308438936600,2.6819365234375,-0.2792565018415451,0.024919766459381206,-0.10602452587410807
1772794308448981500,2.6919814453125,-0.12350830624699592,0.06413681047633289,-0.05601195620968938
1772794308459026400,2.7020263671875,0.03115852385163307,0.050271549394167954,0.017054010653495787
1772794308469071400,2.7120712890625,0.14644669876396654,-0.009469638205412774,0.042930940840393304
1772794308479115500,2.722115478515625,0.20964462095499037,-0.012987053475528955,0.03383066567033529
1772794308489160400,2.732160400390625,0.1897100864291191,-0.017926281709689646,0.07874941932708024
1772794308499205400,2.742205322265625,0.12961129929721354,-0.0642316674192436,0.14230930669829248
1772794308509250300,2.752250244140625,0.09286007000505923,-0.0669056358688511,0.19455211963281036
1772794308519294500,2.76229443359375,0.075059040376544,-0.05270416510226205,0.22042744238451123
1772794308529339600,2.772339599609375,0.11214753879904746,-0.021658088649157435,0.20096900093778966
1772794308539383300,2.78238330078125,0.17086100905239582,0.05723289457308128,0.19347630709484218
1772794308549428200,2.79242822265625,0.16034546025693416,0.12704327544011174,0.2328387417986989
1772794308559473200,2.80247314453125,0.02990530892014503,0.098011077826377,0.2868051636554301
1772794308569517300,2.812517333984375,-0.10523849006295204,0.0533941383941099,0.2779280297167599
1772794308579562500,2.8225625,-0.1778589051157236,0.04201223682658747,0.2134320305392146
1772794308589607200,2.832607177734375,-0.18976561600863934,0.03384767160406336,0.11716083691641688
1772794308599652400,2.84265234375,-0.11822890453934669,0.0005097578867338597,0.09609393735975026
1772794308609696500,2.852696533203125,-0.026696283745765683,0.012880378230661153,0.09258782893493771
1772794308619741200,2.8627412109375,0.08373392974138259,0.01940145056247711,0.08571984286159276
1772794308629786400,2.872786376953125,0.1353910517424345,0.0425066692800261,0.06938757061138749
1772794308639831300,2.882831298828125,0.10448971752226352,0.07263860829658805,0.00739303286075592
1772794308649875500,2.89287548828125,-0.00941430955529213,0.08973008314995094,-0.03550663605853915
1772794308659920100,2.902920166015625,-0.10419161135852337,0.05921296247439459,-0.07253185998648405
1772794308669965300,2.91296533203125,-0.1126777001529932,0.005157364496868103,-0.11730302186608314
1772794308680010200,2.92301025390625,-0.034217326900362964,-0.06256503111496567,-0.17783347841352223
1772794308690055400,2.933055419921875,0.011890344280004501,-0.08118572482960298,-0.2040266349427402
1772794308700099300,2.943099365234375,-0.01654723017513752,-0.04670083303423598,-0.23197174970582127
1772794308710144300,2.953144287109375,-0.07800561522245407,-0.0037140520870685575,-0.2108849764049053
1772794308720189400,2.963189453125,-0.08093114728033542,0.02352506983112544,-0.19380948457196354
1772794308730234400,2.973234375,-0.07781915273964404,0.046368696736730636,-0.15149711402133106
1772794308740278300,2.9832783203125,-0.02706511705815792,0.05497881376966834,-0.11088540990874171
1772794308750323200,2.9933232421875,-0.005755787047743797,0.057176762205362316,-0.057781011708825825
1772794308760368400,3.003368408203125,0.07517126857936382,0.06367786946138367,-0.051867403750866646
1772794308770413300,3.013413330078125,0.1587187358379364,0.05479386739050969,-0.06400543918162584
1772794308780457200,3.023457275390625,0.13884908324182033,0.014108111661020665,-0.032496786718070506
1772794308790502400,3.03350244140625,0.0676823741286993,0.02585888307355344,-0.08095701237395406
1772794308800547300,3.04354736328125,0.05491349344849586,0.0159442593133077,-0.10863032445833086
1772794308810592500,3.053592529296875,0.06728489924371242,-0.011222601086273789,-0.14123714742213486
1772794308820637200,3.06363720703125,0.09864625219106674,-0.04152308333646506,-0.1918804162055254
1772794308830681300,3.073681396484375,0.09510755667090415,-0.0312734920008108,-0.1717784161582589
1772794308840726300,3.083726318359375,0.0627326427668333,0.009052928896993398,-0.10321049136668443
1772794308850771500,3.093771484375,0.015603811845183372,0.04170866903644055,-0.06358443729057908
1772794308860816100,3.103816162109375,-0.02510755324959755,0.07545012205336242,-0.05710165114253759
1772794308870860300,3.1138603515625,-0.05771919851899147,0.04981120187342167,-0.043808454327285286
1772794308880905500,3.123905517578125,-0.036675241446495054,0.00588522211369127,-0.059145870321244
1772794308890950100,3.1339501953125,-0.027331074517965317,0.0015694778064265847,-0.05224252067357302
1772794308900995300,3.143995361328125,0.0338064080119133,-0.025014358540810643,-0.02889657026901841
1772794308911039200,3.154039306640625,0.08502455407381057,-0.038980559246800835,-0.06470014344751834
1772794308921084400,3.16408447265625,0.12571078472733496,-0.04098773435074836,-0.02738748088032007
1772794308931129300,3.17412939453125,0.12784195153713226,-0.024371494060009716,0.06911606019362806
1772794308941174300,3.18417431640625,0.13060732459723948,0.013500994347035883,0.1542551805578172
1772794308951219200,3.19421923828125,0.14513561616539955,0.039651809571869666,0.13405147370174528
1772794308961263400,3.204263427734375,0.14366379004716873,0.025318711782246827,0.07939780023321509
1772794308971308300,3.214308349609375,0.10119359858632088,-0.0223197856945917,0.034816461837291715
1772794308981353200,3.224353271484375,0.04152209695577621,-0.04747132421638817,-0.07789791706427932
1772794308991398400,3.2343984375,-0.07107493917644024,-0.10446045489516109,-0.2132923298075795
1772794309001442300,3.2444423828125,-0.32149230002462864,-0.25127686375435443,-0.38317061143293973
1772794309011487200,3.2544873046875,-0.621367811524868,-0.3743267952419817,-0.5405307722687721
1772794309021532400,3.264532470703125,-0.7747983778268098,-0.3342099985068664,-0.6143811675079166
1772794309031577300,3.274577392578125,-0.881497003570199,-0.27354148519560695,-0.6204338916756212
1772794309041621200,3.284621337890625,-0.8578414026945829,-0.13139979014918207,-0.580819674167782
1772794309051666200,3.294666259765625,-0.8720721726208924,0.18122849114667622,-0.38812516510039563
1772794309061711400,3.30471142578125,-0.9030372197270393,0.3875514933982864,-0.15347024072520435
1772794309071756300,3.31475634765625,-0.8866676842063664,0.299813004190661,-0.5509047206364571
1772794309081800200,3.32480029296875,-0.7272451840132474,0.439144062263146,-0.5870424211401492
1772794309091845400,3.334845458984375,-0.5568704971730709,0.308415595504269,-0.28817542909532784
1772794309101890300,3.344890380859375,-0.27684768713414665,0.05583404235951602,-0.2918012183770537
1772794309111935500,3.354935546875,0.0879559313505888,0.08460632866173982,-0.14685162630304693
1772794309121980400,3.36498046875,0.35313889965414996,0.16805208911150693,0.02954290534853935
1772794309132024300,3.3750244140625,0.5128010538220406,0.4732724687710404,0.4258120678074658
1772794309142069200,3.3850693359375,0.36519115649759765,0.5881599539279937,0.9841241420909762
1772794309152114400,3.395114501953125,0.2799462376713753,0.6099362438630312,1.3436387142568826
1772794309162159000,3.4051591796875,0.48186932446360586,0.6103912210889161,1.458126240310818
1772794309172203300,3.415203369140625,0.7710410711199045,0.4891398269232362,1.3903943279519677
1772794309182248400,3.42524853515625,1.0650625958949327,0.3011651859845966,1.1876334020961075
1772794309192293400,3.43529345703125,1.2566589344620704,0.09800671217851341,0.9494798219501972
1772794309202338300,3.44533837890625,1.3291665367901324,-0.05328640370331704,0.740403283206746
1772794309212382200,3.45538232421875,1.325200555768609,-0.16044672867432236,0.5258200368057936
1772794309222427400,3.465427490234375,1.2366636096596717,-0.42439021831080315,0.21466990177109838
1772794309232472300,3.475472412109375,1.1059008022397756,-0.5869024281475692,-0.07569792280197143
1772794309242517200,3.485517333984375,1.0848106679379939,-0.5023946644894779,-0.16205116819627582
1772794309252562200,3.495562255859375,1.0292214671850204,-0.4305564858555794,-0.20111673884540796
1772794309262606300,3.5056064453125,0.8332616727113723,-0.3301268573790788,-0.28973288767039773
1772794309272651300,3.5156513671875,0.47940322661101814,-0.15273396233990788,-0.41611441126614807
1772794309282696200,3.5256962890625,0.12413023753762245,-0.035192601673305034,-0.4960382812000811
1772794309292741400,3.535741455078125,-0.11055179404020309,-0.0005711509514600039,-0.5614133282344788
1772794309302785300,3.545785400390625,-0.34275837541520593,-0.11490597066171467,-0.6466171113327145
1772794309312830200,3.555830322265625,-0.40796646838486195,-0.16739070259332656,-0.7424374924480914
1772794309322875100,3.565875244140625,-0.39141865368783474,-0.1687687860134989,-0.7973149647351354
1772794309332920300,3.57592041015625,-0.41429157975316044,-0.037344190216623246,-0.7455161692410707
1772794309342964500,3.585964599609375,-0.47341246176362034,0.08348726150393486,-0.5800454749248921
1772794309353009200,3.596009033203125,-0.568906971925497,0.13969601892735808,-0.4281185181189328
1772794309363054300,3.606054443359375,-0.6681646340131759,0.2337252788422629,-0.2819785472165793
1772794309373099300,3.616099365234375,-0.709487409004569,0.2643262784089893,-0.15988916785679758
1772794309383143400,3.626143310546875,-0.6832254250228404,0.2531483567146584,-0.08764270068295299
1772794309393188400,3.636188232421875,-0.6378647728174924,0.10144271450918167,-0.17190920293107628
1772794309403233300,3.6462333984375,-0.5689087254911661,0.09661408877633511,-0.19181319618821144
1772794309413278500,3.656278564453125,-0.36341362543106076,0.33091884800698607,0.1146145134344697
1772794309423323400,3.666323486328125,-0.29316695377230645,0.1618167018532753,0.21275522725619375
1772794309433367300,3.6763671875,-0.21857845351696012,-0.03009133301153779,0.049018882451951504
1772794309443412200,3.686412109375,-0.030543606823682783,-0.15744462424889205,-0.10309811703339218
1772794309453457400,3.69645751953125,0.1661725589752197,-0.028771774845570326,0.035813290854915976
1772794309463502300,3.70650244140625,0.251902630969882,0.07267894030697643,0.3232923351839185
1772794309473546200,3.716546142578125,0.20402385846376417,-0.0373418886616826,0.3139589088451117
1772794309483591400,3.72659130859375,0.20294483105540273,-0.057000090464204546,0.1954874277215451
1772794309493636400,3.73663623046875,0.2775701561897993,0.0231805307097733,0.2328090773127973
1772794309503681500,3.746681640625,0.32082945220172404,0.014133812357857822,0.2601554224651307
1772794309513725200,3.75672509765625,0.31553426840305326,0.003201353324577212,0.24108210787847636
1772794309523770400,3.766770263671875,0.3191512898564339,-0.023494565095007417,0.22225838413871823
1772794309533815300,3.776815185546875,0.3485813824802637,-0.027481735035032033,0.1787370761897415
1772794309543861200,3.786861328125,0.4063818295419216,-0.03268463744036853,0.15524119592048227
1772794309553906200,3.79690625,0.5011521170824765,-0.04452595494687557,0.08542012926265596
1772794309563950000,3.8069501953125,0.5595324098587036,-0.03828501473069191,0.07857114015072583
1772794309573995000,3.8169951171875,0.5424708004206419,-0.03148980163261294,0.10498064284436404
1772794309584040200,3.827040283203125,0.4770306522607803,-0.05152743120677769,0.12009842473827302
1772794309594085000,3.837085205078125,0.43464813908338545,-0.08473002810664475,0.06173004159554839
1772794309604129000,3.84712890625,0.3826064016789198,-0.09331029799059033,-0.044342926530167456
1772794309614174200,3.85717431640625,0.32540976572930813,-0.10970884041003882,-0.16091916849166155
1772794309624219100,3.86721923828125,0.21408815636038778,-0.1218339798266068,-0.2159939899817109
1772794309634264000,3.87726416015625,0.12299801863729953,-0.11995675124526023,-0.2322124265938997
1772794309644308000,3.887307861328125,0.05113280586600304,-0.08947524987235665,-0.25566388319954275
1772794309654353200,3.897353271484375,0.004928104051947594,-0.03574778787065297,-0.2545754303757101
1772794309664398000,3.907398193359375,-0.02539163088798523,0.0009445143084973097,-0.23086736866049468
1772794309674443000,3.917443115234375,-0.06975801135897636,-0.0035953576108440754,-0.21583295420110224
1772794309684487200,3.927487060546875,-0.13911270261406897,-0.0003683583883568644,-0.18994499116353689
1772794309694532000,3.937531982421875,-0.264002818608284,0.008874028666131198,-0.15009820700883864
1772794309704577300,3.947577392578125,-0.3688753979682922,0.022992935715802014,-0.11945187046304344
1772794309714622000,3.9576220703125,-0.5244534976929426,0.03613656799253076,-0.08424553252533078
1772794309724666000,3.967666015625,-0.6283423267126083,0.05585296625569462,-0.049753334206342696
1772794309734711300,3.977711181640625,-0.6884235781878233,0.06601864216756075,-0.027322818146273492
1772794309744756200,3.987756103515625,-0.7042348953038453,0.10781287059560417,-0.0046679187458008526
1772794309754801200,3.99780126953125,-0.6521621782392263,0.12547061929591,0.06653050067983568
1772794309764846000,4.00784619140625,-0.49316813259124753,0.14651103270445018,0.1017973366331309
1772794309774890200,4.01789013671875,-0.23770517879128455,0.12387966031003743,0.09059775109626353
1772794309784935000,4.027934814453125,-0.03520867602527141,0.0758867233723402,0.06747771840207278
1772794309794980000,4.03797998046875,0.11529869630634784,0.06914941447395831,0.06235686825700104
1772794309805025000,4.04802490234375,0.21222879222929478,0.09523757625874131,0.06864552007243037
1772794309815069200,4.058069091796875,0.3117062345474958,0.06336085766777395,0.06075710491016507
1772794309825114000,4.068114013671875,0.31379648482501504,0.06541395427267999,0.037849618988111615
1772794309835159000,4.078158935546875,0.2836141125291586,0.04220343028344214,-0.005482742260023951
1772794309845204200,4.088204345703125,0.19307167181670665,-0.003785108029283583,-0.04295008393228054
1772794309855248100,4.098248046875,0.08245207323729992,-0.05670735459532589,-0.09789850256368517
1772794309865293000,4.10829296875,0.05516133072972297,-0.07213274113368243,-0.1025162985574454
1772794309875338000,4.118337890625,0.04701075749993324,-0.04999046743046492,-0.0730122639145702
1772794309885383200,4.128383056640625,0.051690439748764035,-0.040665224398113785,-0.0396884517878294
1772794309895427000,4.138427001953125,0.08225976553559303,-0.04278627167269587,0.003730857091397047
1772794309905472000,4.148471923828125,0.12747253370285033,-0.04638046023976058,0.045435251811519264
1772794309915517200,4.15851708984375,0.17447452337443828,-0.02371763326115906,0.048180385801196095
1772794309925562000,4.16856201171875,0.20473405255973337,-0.0032923560762777924,0.11393792934715748
1772794309935607300,4.178607177734375,0.2294856319785118,-0.023644750688038764,0.14565131060257552
1772794309945651000,4.18865087890625,0.24407003764808177,-0.06129431705940514,0.10187127865217625
1772794309955696000,4.198696044921875,0.23679975438416004,-0.10028601875472813,0.05409852380380034
1772794309965741000,4.208740966796875,0.23144319578707218,-0.13679452533219008,-0.04369045397080481
1772794309975786200,4.2187861328125,0.22160452333986758,-0.20241806723494082,-0.08981763356924057
1772794309985830100,4.228830078125,0.18459668893814085,-0.15137619105540215,-0.13637969745360315
1772794309995875000,4.238875,0.11634908214211463,-0.04789901157654822,-0.27465952944010497
1772794310005920300,4.248920166015625,0.010056699112057685,-0.03944236807227135,-0.2193464422147721
1772794310015965000,4.25896484375,-0.17636252907812594,-0.029141594538651405,-0.08597016436085105
1772794310026009000,4.269009033203125,-0.34769758538305756,0.012932218015752731,-0.009411021619662643
1772794310036054000,4.279053955078125,-0.4474129281103611,0.08042319775819778,0.008091025062277912
1772794310046099200,4.28909912109375,-0.46398821533620355,0.155499992987141,-0.03468129115030169
1772794310056144000,4.299143798828125,-0.45593525726199147,0.188531361505948,-0.06068024028167128
1772794310066188000,4.30918798828125,-0.3924415669947862,0.1548721434123814,-0.051433103986829515
1772794310076233200,4.319233154296875,-0.3467453992247581,0.0769358305664733,-0.05951726091690361
1772794310086278100,4.329278076171875,-0.2660866391450167,0.05490801355578005,-0.05793393724821508
1772794310096323000,4.339322998046875,-0.15327917513251305,0.03173621414173394,-0.0507801930360496
1772794310106369000,4.349369140625,-0.027176760739088056,0.06174849056769162,-0.059359659202396865
1772794310116414000,4.3594140625,0.1345329736083746,0.08593056300282478,-0.015508973168581724
1772794310126459100,4.369459228515625,0.20757424442172048,0.09067194884363561,0.07956205088421701
1772794310136504000,4.379504150390625,0.3406850762724876,0.10611910882238298,0.08658990369439125
1772794310146548000,4.3895478515625,0.3842553379297256,0.09446191571112722,0.0637176352161914
1772794310156593200,4.39959326171875,0.3686965342700481,0.09534940260276198,0.09263093742430209
1772794310166638000,4.40963818359375,0.3478846323877573,0.10788907763697206,0.10715966738387941
1772794310176683300,4.419683349609375,0.31146190439760685,0.06811353208757936,0.0387406495437026
1772794310186727200,4.42972705078125,0.30943653604984284,-0.02051642606705427,0.04805559037774801
1772794310196772000,4.439772216796875,0.21377193001806735,-0.06732837305925786,0.04462313171103596
1772794310206817000,4.449817138671875,0.15351532197594642,-0.05670563756227493,-0.032869346357509495
1772794310216862200,4.4598623046875,0.10870061321556568,-0.07902282944098114,0.02020736011788249
1772794310226906000,4.469906005859375,0.0945610287040472,-0.08426748862881213,0.06841594910025596
1772794310236951000,4.479950927734375,0.05898878006339073,-0.03926657311394811,0.07354892807453871
1772794310246996200,4.489996337890625,-0.026586393630504607,-0.02639909089747816,0.12812427560985087
1772794310257041200,4.500041259765625,-0.08709960678219794,0.011388166911527513,0.10509528219997882
1772794310267085000,4.5100849609375,-0.10355682058632373,0.028064978283084928,0.06165573425032198
1772794310277130200,4.520130126953125,-0.11756839480400084,0.029282537379302084,0.0030170827988535162
1772794310287175200,4.530175048828125,-0.08680500774979591,0.043117695584148165,-0.06304638489112258
1772794310297220000,4.54022021484375,-0.040000001955032345,0.04926624480914324,-0.07970986185707152
1772794310307265000,4.55026513671875,-0.013833295041322708,0.027822145970538257,-0.11178009372614324
1772794310317309200,4.56030908203125,-0.026356676527857777,-0.014872246167622507,-0.09425430084243416
1772794310327354000,4.57035400390625,-0.0803875419229269,-0.02813270975705236,-0.03903692907653749
1772794310337399000,4.58039892578125,-0.09096154290735721,-0.023299590512178836,-0.034488252796232695
1772794310347444000,4.59044384765625,-0.046155601975321765,0.0033169790608808397,-0.0635083033144474
1772794310357488000,4.600488037109375,-0.03145955262482166,0.018269706586189566,-0.09116407974213361
1772794310367533300,4.610533203125,-0.04505845438838005,0.039043176154233514,-0.0730621674709022
1772794310377578000,4.620577880859375,-0.10913023680448532,0.06369922277666629,-0.052899450212344525
1772794310387623200,4.630623046875,-0.13886837246418,0.03295461348816752,-0.04069090682864189
1772794310397667000,4.6406669921875,-0.09668576577305793,-0.012268749138340354,-0.045175577962025995
1772794310407712300,4.650712158203125,0.006194762986898422,-0.03573138472512364,-0.08124700829647481
1772794310417757000,4.6607568359375,0.1035363623201847,-0.03468691717348993,-0.10807648996785282
1772794310427802000,4.670802001953125,0.1771095480531454,-0.007770560936257243,-0.06340294324383139
1772794310437846300,4.68084619140625,0.21993512882292268,0.030146862591058015,-0.002295782786980271
1772794310447891000,4.690890869140625,0.21014321812689304,0.04031484005786478,0.004800605214759707
1772794310457936100,4.70093603515625,0.15240706847310065,0.019557444841787217,0.015087532886117696
1772794310467981000,4.71098095703125,0.06421674384474754,0.02092814867310226,0.015575535598769783
1772794310478025200,4.721025146484375,-0.017674188378453255,0.0013146627951413391,0.007312880296632647
1772794310488070000,4.73106982421875,-0.0228963069409132,0.045252369525283574,0.010942980427294968
1772794310498115000,4.741114990234375,-0.005909516304731369,0.04524944691583514,0.019044161557406188
1772794310508160000,4.751159912109375,0.036951135778427124,0.02689567877538502,0.033878085008636115
1772794310518205200,4.761205078125,0.10095978983044623,-0.014522300218790769,0.08310264610052108
1772794310528249000,4.7712490234375,0.1610533162653446,-0.04603584805317223,0.05602474262602627
1772794310538293800,4.781293701171875,0.20210487309992312,-0.06553257568366826,0.031359599381685255
1772794310548338700,4.791338623046875,0.19807810180187224,-0.053916079908981916,0.04722966094762086
1772794310558383600,4.801383544921875,0.17316110268831253,0.003770385384187102,0.08618300339393317
1772794310568427800,4.811427734375,0.1503261705458164,0.05160897201038897,0.11753880338333546
1772794310578472700,4.82147265625,0.1141939499348402,0.07911262661628425,0.1260896279770881
1772794310588517600,4.831517578125,0.09469020804166793,0.03897511588670313,0.12673822807893156
1772794310598562800,4.841562744140625,0.03790916715562343,-0.013132380230352281,0.07883863198049366
1772794310608606700,4.851606689453125,-0.0002028290957212448,-0.05105082667097449,0.016572510746866463
1772794310618651600,4.861651611328125,-0.05229892703592777,-0.07624138202890754,-0.00012903320714831353
1772794310628696600,4.871696533203125,-0.05260170937478542,-0.031689635053649544,-0.042560134766623375
1772794310638741800,4.88174169921875,-0.08845745113193988,-0.0533995086889714,0.03377126363329589
1772794310648786000,4.891785888671875,-0.0892149915009737,-0.05976049508824944,0.07320522920340299
1772794310658830600,4.90183056640625,-0.08400573242008685,-0.0658157765392214,0.0699392131447792
1772794310668875800,4.911875732421875,-0.04506722221672535,-0.06940729822516441,0.10166077770665287
1772794310678920700,4.921920654296875,0.031875147688388825,-0.027576135320216414,0.09050335081107914
1772794310688964900,4.93196484375,0.0612643237799406,-0.0394987744346261,0.11180983127728104
1772794310699009500,4.942009521484375,0.10763795242011547,-0.05062924025803804,0.16719145369417965
1772794310709054700,4.9520546875,0.0853366887629032,-0.08244958901926874,0.2675795811165124
1772794310719099600,4.962099609375,0.07415946118831634,-0.06475695166867226,0.3003646832566708
1772794310729144800,4.972144775390625,0.03954582844674587,-0.03557286969516426,0.2566384273201227
1772794310739188700,4.982188720703125,-0.010702595800161361,-0.04123495057746768,0.1893778588000685
1772794310749233700,4.992233642578125,-0.05726151787936687,-0.016063099920004605,0.1287557053811848
1772794310759278800,5.00227880859375,-0.040838206344842906,0.028619141567125916,0.11850289917513727
1772794310769323800,5.01232373046875,-0.05268237339556217,0.07807568478398025,0.1067018406137824
1772794310779367700,5.02236767578125,0.008167524364590645,0.0901763838790357,0.08569149354994296
1772794310789412900,5.032412841796875,0.11480886696279048,0.08586111449580638,0.06304572730399668
1772794310799457800,5.042457763671875,0.24253566768765447,0.05759118822515011,0.019463702143728733
1772794310809502700,5.052502685546875,0.30365619908273217,0.0003252498989924788,-0.06986337142959237
1772794310819546600,5.062546630859375,0.30549568946957584,-0.03542399927638471,-0.08940181930996477
1772794310829591800,5.072591796875,0.24844518399238585,-0.04365578451622277,-0.09878682970553636
1772794310839636700,5.08263671875,0.18237667480111122,-0.03738335318323224,-0.11961721709258853
1772794310849681700,5.092681640625,0.04676993448138237,-0.053972559336572884,-0.15246099061742424
1772794310859725800,5.102725830078125,-0.06321428880393505,-0.02156396235860884,-0.13643983014300465
1772794310869770800,5.112770751953125,-0.16704349659085274,-0.039090047503262754,-0.1109501457080245
1772794310879816000,5.12281591796875,-0.16923253106772898,-0.036617885236069556,-0.09228723855316638
1772794310889860600,5.132860595703125,-0.11203121894299983,-0.03738905227165669,-0.07775704728886484
1772794310899904800,5.14290478515625,-0.07417407423555851,-0.0031641996519640087,-0.03846636264696717
1772794310909949700,5.15294970703125,-0.05910393087565899,0.0023243147617205977,0.005375628623738885
1772794310919995000,5.162994873046875,-0.02253682597875595,-0.002888597580976784,0.07112257771044969
1772794310930039600,5.17303955078125,-0.0034451720178127285,-0.017982633273117242,0.09785188694298266
1772794310940083700,5.183083740234375,0.0652297202795744,-0.02081318052392453,0.08727598626241087
1772794310950129000,5.19312890625,0.10770809504687785,-0.04919862293303012,0.018028554774075747
1772794310960173800,5.203173828125,0.13150398117601872,-0.04729253358338028,-0.0098529201682657
1772794310970218800,5.21321875,0.1539472836524248,-0.08517718735225498,-0.07328793905079364
1772794310980263700,5.223263671875,0.19038228660225867,-0.0724606944464147,-0.08191679731681943
1772794310990307800,5.233307861328125,0.22205635876059532,-0.09970810926891863,-0.08793854182437062
1772794311000352500,5.2433525390625,0.19982348416447637,-0.11307444438561796,-0.125334425695613
1772794311010397700,5.253397705078125,0.14313479773700236,-0.042462190817482766,-0.20043430953919886
1772794311020442600,5.263442626953125,0.05827449431419372,0.052005533579923206,-0.26687435545660554
1772794311030486800,5.27348681640625,-0.06012509061694145,0.10987173935417086,-0.23244141304418442
1772794311040531700,5.28353173828125,-0.19783318713009357,0.10853175945468246,-0.19255860772803424
1772794311050576600,5.29357666015625,-0.35639819371104237,0.12228249077908694,-0.1005902258656919
1772794311060621800,5.303621826171875,-0.42070553844869135,0.14034202521331607,-0.028661373273655772
1772794311070665700,5.313665771484375,-0.4362403767108917,0.13815182169266044,0.02275273375175893
1772794311080710700,5.323710693359375,-0.3841378490298986,0.0882639013212174,0.07347089440226555
1772794311090755600,5.333755615234375,-0.321717340952158,0.09037636343054473,0.06268493116758764
1772794311100800800,5.34380078125,-0.2644897253423929,0.02583740189410746,0.05738799380324781
1772794311110844700,5.3538447265625,-0.20244506483972072,-0.009074300478585064,0.024402765981107948
1772794311120889600,5.3638896484375,-0.1057803418546915,-0.03171725371293723,0.016271408908441663
1772794311130934800,5.373934814453125,0.00189443544447422,-0.04259432929717004,0.004523980230465531
1772794311140979700,5.383979736328125,0.12545417961776256,-0.036797296923585236,0.029319837182387707
1772794311151023600,5.394023681640625,0.23332068009674548,0.006668627576343715,0.012641089582070707
1772794311161068800,5.40406884765625,0.2881190227329731,0.030560777154192326,0.015953794326633214
1772794311171113700,5.41411376953125,0.28523791433870793,0.028672333059087392,0.017119330974668265
1772794311181158700,5.42415869140625,0.27536300153434273,0.019383257318660616,0.027557722880691287
1772794311191202600,5.43420263671875,0.24679858582913874,-0.02831887997891754,-0.0380790438298136
1772794311201247700,5.444247802734375,0.24482114827632903,-0.07637520100902766,-0.05471366002745926
1772794311211292700,5.454292724609375,0.2467576692968607,-0.13305639824979007,-0.043408129898086185
1772794311221337900,5.464337890625,0.24366496397852896,-0.15392558327727018,-0.06524148378260433
1772794311231381800,5.4743818359375,0.20510931561291218,-0.13362389593943952,-0.060021849438175554
1772794311241426700,5.4844267578125,0.1580991426348686,-0.1093596981788054,-0.008009411193430424
1772794311251472000,5.494471923828125,0.11031506267488002,-0.07824654783885926,0.025173019701242444
1772794311261516800,5.504516845703125,0.022929624688625333,-0.03001896189507097,0.09015088411159813
1772794311271560700,5.514560791015625,-0.11244798305034637,0.017348865414224562,0.13808021776117382
1772794311281605600,5.524605712890625,-0.21291385188400744,0.04926065531857311,0.1454525731600821
1772794311291650800,5.53465087890625,-0.23298224192261693,0.031133499008230862,0.1339800889659673
1772794311301695700,5.54469580078125,-0.23248247570693492,-0.002063691064156592,0.0777620887901634
1772794311311740700,5.55474072265625,-0.18067513158023357,-0.01587513959985226,-0.006526259963586926
1772794311321784800,5.564784912109375,-0.0846352624952793,-0.01950136727299541,-0.06638093614131212
1772794311331829800,5.574829833984375,0.02559153737425804,-0.041412279905751345,-0.08338117078095673
1772794311341875000,5.584875,0.12001695699989795,-0.03316873116288334,-0.09667392920479177
1772794311351919600,5.594919677734375,0.19799568421542643,-0.015300591114908457,-0.10220884004347026
1772794311361963800,5.6049638671875,0.19514847809076308,-0.0187316980747506,-0.10845986326225102
1772794311372008700,5.6150087890625,0.12557225303947925,-0.019403423323854804,-0.07730119328014552
1772794311382053600,5.6250537109375,0.02440904959142208,-0.017104900590516624,-0.06692329938970505
1772794311392098600,5.6350986328125,-0.032818566018342966,-0.01725559764020145,-0.10515241921469569
1772794311402142700,5.645142822265625,-0.047860652327537535,-0.03646189095675945,-0.1071980266328901
1772794311412188000,5.65518798828125,-0.00723228934109211,-0.06328768283370882,-0.09157054165117443
1772794311422232600,5.665232666015625,0.015619009414315222,-0.05864847872573882,-0.0703887835431844
1772794311432277800,5.67527783203125,0.01362754333615303,-0.036210875337757166,-0.06245002643316984
1772794311442321700,5.68532177734375,0.011766425639390945,-0.01772189997769892,-0.03299859876036644
1772794311452366800,5.695366943359375,-0.015838789644837377,-0.015677863462083042,0.029629487653449176
1772794311462411500,5.70541162109375,-0.04181728051006794,0.027263123848289248,0.08978592325672506
1772794311472456700,5.715456787109375,-0.01184767418205738,0.03271671307906508,0.11010916483923792
1772794311482500900,5.7255009765625,0.044425417181849475,0.03481978630553931,0.07782076017484069
1772794311492545800,5.7355458984375,0.08515490245521068,0.01897661274652928,0.03409706152155995
1772794311502590700,5.7455908203125,0.1281283672630787,-0.02258786204624921,-0.0005325725067406893
1772794311512635600,5.7556357421875,0.12302666020989417,-0.019928543176501987,-0.038399069564417
1772794311522679800,5.7656796875,0.07720365118980407,0.0007143222818151116,-0.08037906635552644
1772794311532724700,5.775724853515625,0.027935470151901242,0.034133813335374,-0.04461297564320266
1772794311542770000,5.78577001953125,-0.02599719556570053,0.02672854204755276,-0.02950118509866297
1772794311552814800,5.79581494140625,-0.08592004160881042,0.04834120238609612,-0.04244425330199301
1772794311562860000,5.805860107421875,-0.06906652196347714,0.033784707636758685,-0.038826501196250314
1772794311572904000,5.815904052734375,-0.020870938593149185,0.025303514213114976,-0.01292005265392363
1772794311582948900,5.825948974609375,0.02698620660305023,0.013909429017454384,0.023537015997245905
1772794311592994000,5.835994140625,0.11072013634443283,0.01610741398576647,0.04320785808563232
1772794311603039000,5.8460390625,0.159694887393713,0.027368410853669044,0.02672163738273084
1772794311613083000,5.856082763671875,0.20600421862602233,0.029406894411332905,0.03340169966854155
1772794311623128000,5.866128173828125,0.19186463411450386,0.052902153626084324,0.10984349964037537
1772794311633173000,5.876173095703125,0.15189210468828676,0.060735696795955293,0.15975626219213007
1772794311643218000,5.886218017578125,0.09850012171864508,0.03751516286935657,0.21599165189415215
1772794311653261800,5.89626171875,0.06005962416529655,0.041675424353964624,0.18715448366217313
1772794311663307000,5.90630712890625,0.01703647499680519,0.028616657349094746,0.08757285031713545
1772794311673352000,5.91635205078125,-0.034006314498186106,-0.006210910404101014,-0.022997356162592766
1772794311683397000,5.926397216796875,-0.05038870950043201,-0.062075384434498844,-0.10231434624455868
1772794311693441000,5.93644091796875,-0.06783668790757656,-0.06555672374423593,-0.14961020429618654
1772794311703486000,5.94648583984375,-0.009832827228307724,-0.046860535374283786,-0.18368951096534727
1772794311713531100,5.95653125,0.07320902859568595,-0.021026713676750658,-0.20453860305286942
1772794311723575800,5.966575927734375,0.09764671975970268,-0.006360694138333201,-0.23156594538390635
1772794311733620000,5.976619873046875,0.12256430339515209,0.007736402938328683,-0.24922413247562944
1772794311743665000,5.986664794921875,0.14351765957474708,0.010259820468723773,-0.2285587263919413
1772794311753710000,5.9967099609375,0.1602437534481287,-0.005544080525822937,-0.1780269551590085
1772794311763754800,6.006754638671875,0.20236089368760585,-0.03171718064770102,-0.1324153969325125
1772794311773799000,6.016798828125,0.2174643547952175,-0.031040961886569855,-0.09003434505984187
1772794311783844000,6.026843994140625,0.16093056666851044,-0.00018134791627526283,-0.06327997445128858
1772794311793889000,6.036888916015625,0.06018120471835136,0.04133987225666642,-0.05426876580417156
1772794311803934000,6.046933837890625,-0.050447746211290355,0.07875676238331944,0.0275922096721828
1772794311813977900,6.056977783203125,-0.13852642715871333,0.14035061037857086,0.09871807531826197
1772794311824023000,6.06702294921875,-0.244146025493741,0.12020933776684105,0.14903474249579013
1772794311834067700,6.077067626953125,-0.2933200985074043,0.09696798024792223,0.06956796867959202
1772794311844113000,6.08711279296875,-0.2808849798262119,0.0414470954908058,-0.008734291401878
1772794311854157000,6.097156982421875,-0.2131681189060211,-0.0007683540239930152,-0.04548040612749755
1772794311864202000,6.107201904296875,-0.12671382429003714,0.010910210668854415,-0.04788629822544753
1772794311874247000,6.117246826171875,-0.04122515983581543,0.023116160236671564,-0.03243248931020498
1772794311884291800,6.127291748046875,0.006185410636663437,0.05726999344676733,-0.03343706324286759
1772794311894336000,6.1373359375,0.026954057899117468,0.06866316532697528,-0.039914880954846736
1772794311904381000,6.147380859375,0.03990881654024124,0.06358907693307847,-0.01709792286045849
1772794311914425900,6.15742578125,0.045052609169483185,0.06605619769897311,-0.0007224690556526184
1772794311924470800,6.167470703125,0.06416881304979324,0.05235091295149177,0.012773045398667453
1772794311934515000,6.177514892578125,0.11734686100780964,0.005060717455670237,-0.02744863648302853
1772794311944560000,6.18756005859375,0.1697200223237276,-0.0679105568613857,-0.06288206117488443
1772794311954604800,6.197604736328125,0.20308453178703784,-0.10800254794880747,-0.12281257906779647
1772794311964650000,6.20764990234375,0.19720131896734236,-0.12013334992118178,-0.14498115625604988
1772794311974695000,6.21769482421875,0.14733926368951797,-0.09098229343444109,-0.10243899553753436
1772794311984738800,6.22773876953125,0.08382979133129119,-0.0056740635810419915,-0.003728665134310722
1772794311994784000,6.237783935546875,-0.0010164835661649703,0.05054280408360064,0.07483078457862138
1772794312004829000,6.247828857421875,-0.07994622789621353,0.0819098926519975,0.1411976191293448
1772794312014873900,6.257873779296875,-0.11675298676788806,0.09158259741514921,0.17978665830790996
1772794312024917800,6.267917724609375,-0.13018120813965797,0.0467485628997907,0.13215981473624705
1772794312034963000,6.277962890625,-0.1411252114802599,0.009125482676550745,0.11246814905554056
1772794312045008000,6.2880078125,-0.13496961145997047,0.014245309908315539,0.06426672046631575
1772794312055053000,6.298052978515625,-0.059192778202891344,0.016066680116578937,0.054271250022202726
1772794312065097000,6.308096923828125,0.06104454354941845,0.03896123349182307,0.014092384368926287
1772794312075142000,6.318141845703125,0.11705109293162821,0.08283588492311537,0.018556597236171365
1772794312085187000,6.32818701171875,0.09701660516262053,0.11442633391860872,0.034173487758636475
1772794312095232000,6.33823193359375,0.08432429684996605,0.11940324554834514,0.01242832361422479
1772794312105276000,6.34827587890625,0.10783844342827796,0.0802498504852876,0.007025953114032745
1772794312115320800,6.35832080078125,0.12678455143868922,0.022953699683956802,-0.024593977704271672
1772794312125366000,6.368365966796875,0.16947861478328705,-0.024490480797179043,-0.08109042949527502
1772794312135411000,6.378410888671875,0.16274901426732538,-0.05155596318151801,-0.14606997440606354
1772794312145454800,6.388454833984375,0.14216916757524012,-0.051167731048911806,-0.18388664097264407
1772794312155500000,6.3985,0.09110007459521294,-0.02334302779510617,-0.16613215389959513
1772794312165545000,6.408544921875,0.02173427742421627,0.01514945567380637,-0.11761113796718418
1772794312175590100,6.418590087890625,-0.03246376123130321,0.048480245530605315,-0.07351977504529059
1772794312185633800,6.4286337890625,-0.06117430740892887,0.0728919985357672,-0.025125235036760566
1772794312195679000,6.438678955078125,-0.09158815037310122,0.06636040480993688,-0.027567221361398695
1772794312205724000,6.448723876953125,-0.10125906503796576,0.048403965424001216,0.0054038318049162625
1772794312215769000,6.45876904296875,-0.10532441478073597,0.040060207709670066,-0.010800430151447653
1772794312225813000,6.46881298828125,-0.08072247296571732,0.02423825960177928,-0.019428338569402695
1772794312235858000,6.47885791015625,-0.06989654304683209,0.03767718503065407,0.02959806960187852
1772794312245903000,6.488903076171875,-0.04827507834732532,0.03574015255346894,0.06390409769900143
1772794312255947800,6.49894775390625,0.034438276174664495,0.03593275251612067,0.05191423856727779
1772794312265992000,6.508991943359375,0.12043430562913417,0.03258552444744855,0.050159357723966236
1772794312276036900,6.519036865234375,0.13653554560244083,0.009312200887687503,0.04408924403004348
1772794312286082000,6.52908203125,0.10524258171617984,-0.017263890544511377,0.05542348879724741
1772794312296126700,6.539126708984375,0.08699380832016468,-0.0026219825340434906,0.09046696432344616
1772794312306171000,6.5491708984375,0.06037818859517574,0.00938946737498045,0.08938800998032093
1772794312316216000,6.559216064453125,0.03420622098445892,0.023718473511375484,0.059279506638273596
1772794312326261000,6.569260986328125,0.021487024664878843,0.01793009936828166,0.030443434384837743
1772794312336306000,6.579305908203125,0.013273323071002959,0.010880838443897664,-0.007498246800899505
1772794312346350000,6.58935009765625,0.00008241758644580841,0.01389339119810611,-0.041114758263900875
1772794312356395000,6.59939501953125,-0.02181494144499302,0.02492050624489784,-0.07247201955802739
1772794312366440000,6.60943994140625,-0.035762218254804606,0.05418569063059985,-0.04708996021598577
1772794312376484900,6.61948486328125,-0.04147650424838066,0.06712042939700186,-0.017755875312536955
1772794312386529000,6.629529052734375,-0.02486263857781887,0.052068735009245574,-0.04154072859100997
1772794312396574000,6.639573974609375,0.017256255227327346,0.029744784596189854,-0.055091115037724375
1772794312406619000,6.649618896484375,0.07644844890832901,0.024613559187576173,-0.05663549493551254
1772794312416663800,6.659663818359375,0.10678981115818023,0.023457228759303686,-0.037063948503136636
1772794312426708000,6.6697080078125,0.13591127622425556,-0.015983568410389126,-0.024244506679475305
1772794312436753200,6.679753173828125,0.09930383931696414,-0.01241940965540707,-0.011699863209202886
1772794312446797800,6.6897978515625,0.007160977670550346,-0.007480747676827013,-0.012098799398913979
1772794312456843000,6.699843017578125,-0.039105098941922184,0.01111972523368895,0.024955577558279037
1772794312466887000,6.709886962890625,-0.05624328074753284,0.02422908991463482,0.04548325567170977
1772794312476932000,6.71993212890625,-0.04324409844279289,0.07635309877507389,0.022043124177679417
1772794312486976800,6.729976806640625,-0.032120062360167505,0.09480645483247935,0.019784166269749402
1772794312497022000,6.74002197265625,-0.024797172126173973,0.06888316475320606,0.004918824766948819
1772794312507066000,6.750066162109375,-0.02227846730351448,0.027607809100113807,-0.0076197542887181035
1772794312517110800,6.76011083984375,-0.03880056303739547,0.015285283947922288,-0.021287629635259507
1772794312527156000,6.770156005859375,-0.036790976780653,-0.007058759405091404,-0.024228140066564083
1772794312537201000,6.780200927734375,0.00561491727232933,-0.030733978296630084,-0.003910378376767039
1772794312547246300,6.790246337890625,0.042376667958497996,-0.04235281215887517,0.00013582827411592007
1772794312557290500,6.80029052734375,0.06840250509679317,-0.020596103707142172,0.005912365848943591
1772794312567335400,6.81033544921875,0.08697919527292251,-0.00006725654993206262,0.017673603856563566
1772794312577380400,6.82038037109375,0.07492927651703357,0.05862907990552484,0.04853942837193608
1772794312587425500,6.830425537109375,0.05122048414945602,0.058934200331941244,0.046925417304039
1772794312597469400,6.840469482421875,0.015262451061606406,0.05393767068628221,0.033332653020322324
1772794312607514400,6.850514404296875,0.012023615270853041,0.03726038439068943,0.020620690159127115
1772794312617559600,6.8605595703125,0.021657705056667326,-0.0051594285897910595,-0.001569587404280901
1772794312627604500,6.8706044921875,0.08255027291476726,-0.07423088245671242,-0.014346432195231318
1772794312637648400,6.8806484375,0.15537468610703944,-0.10932689188774675,-0.031671295679360625
1772794312647693300,6.890693359375,0.16065467233657835,-0.07057663426548243,-0.016483298093453048
1772794312657738500,6.900738525390625,0.12249883694350719,-0.050789654984138906,0.014687354587391017
1772794312667783400,6.910783447265625,0.05623860457241535,0.000676803283020854,0.06504508442766964
1772794312677827300,6.920827392578125,0.02864449520409107,0.061853010388091205,0.09363054292090237
1772794312687872500,6.93087255859375,-0.034821722534298896,0.07854063541460782,0.10677329841479659
1772794312697917400,6.94091748046875,-0.08102642434835433,0.053954219962283965,0.05916903200112283
1772794312707962600,6.950962646484375,-0.11267010136842727,0.006585406272299588,0.019890841514617202
1772794312718006300,6.96100634765625,-0.12086743634939193,-0.04346281922738999,-0.04791793547272682
1772794312728051500,6.971051513671875,-0.05500175625383854,-0.06308996830452233,-0.08291092292070389
1772794312738096400,6.981096435546875,0.01628477984666824,-0.07018730615433305,-0.09174071058630942
1772794312748141600,6.9911416015625,0.10656301666498183,-0.05780252942088991,-0.07491108327321708
1772794312758185500,7.001185546875,0.15461597669422625,-0.037001112399995324,-0.06722630092427134
1772794312768230400,7.01123046875,0.17899872280061244,-0.010619739822298288,-0.026605536722391843
1772794312778275600,7.021275634765625,0.12838380332887173,0.013048903197981417,0.017488529613241554
1772794312788320500,7.031320556640625,0.031763504007458684,0.027597251173481344,0.06264138428680599
1772794312798364400,7.041364501953125,-0.057310033196210856,0.04788856324777007,0.06775105545073747
1772794312808409300,7.051409423828125,-0.06593231559097766,0.006399491778761148,0.037794381669536234
1772794312818454500,7.06145458984375,-0.03254617881774902,-0.00153798668961972,-0.00521546962596476
1772794312828499200,7.071499267578125,0.0005558803170919418,-0.0329868352573365,-0.05890804297737777
1772794312838543400,7.08154345703125,0.06420622245073318,-0.028897812378033995,-0.07130063769109547
1772794312848588500,7.091588623046875,0.06015548575520515,-0.019111929563991725,-0.09859517959095537
1772794312858633500,7.101633544921875,0.04828735330700874,0.01336081869136542,-0.06364924615509808
1772794312868678400,7.111678466796875,0.021390578553080557,0.03704718003142625,-0.0361665612719953
1772794312878722300,7.121722412109375,0.010828268006443978,0.020888291586749253,-0.04017652756571769
1772794312888767500,7.131767578125,0.01944938135743141,0.023858904895372686,-0.033862156787142154
1772794312898812400,7.1418125,0.08387187690734862,0.00573521918375045,-0.010261647099629043
1772794312908857300,7.151857421875,0.16729834813475608,-0.009185030844062567,-0.059477586493641134
1772794312918901500,7.161901611328125,0.1664735877484083,-0.023025778539478778,-0.04156878564171493
1772794312928946400,7.171946533203125,0.09744272162020205,-0.03676967826429754,-0.04261347238905728
1772794312938991600,7.18199169921875,0.02445347325503826,-0.0457663103967905,-0.0339022696018219
1772794312949036300,7.192036376953125,0.011651859349012373,-0.03275251504480839,-0.012303528190776705
1772794312959080400,7.20208056640625,-0.014513093999028205,-0.016900792853161692,-0.0030978929501026867
1772794312969125600,7.212125732421875,-0.03763970256447792,0.003451857486926019,0.0005052461083978415
1772794312979170300,7.22217041015625,-0.06137655198276042,0.002443045770563185,0.010059548656269908
1772794312989215500,7.232215576171875,-0.13428513632714748,-0.002456708969734609,-0.0030504736118018624
1772794312999259400,7.24225927734375,-0.15569149697124957,-0.010419102683663367,-0.02330298804566264
1772794313009304600,7.2523046875,-0.13309271167218684,0.003523571016266942,-0.06922682709172367
1772794313019349200,7.262349365234375,-0.09993863008916377,0.015760755972564218,-0.05548405987806618
1772794313029394400,7.27239453125,-0.0464940401494503,0.01670892354287207,-0.048475204029306766
1772794313039438600,7.2824384765625,0.007248071432113647,0.015260697495937347,-0.032599004983529446
1772794313049483500,7.2924833984375,0.045915363478660584,0.027638240770995616,-0.023760522554814815
1772794313059528400,7.302528564453125,0.08211246601939201,0.00214388016089797,-0.005014978617802262
1772794313069573400,7.312573486328125,0.11241934147775172,-0.02678319484423846,-0.005191358098015189
1772794313079617500,7.322617431640625,0.16139526157081127,-0.0442750489257276,-0.012191592248901723
1772794313089662500,7.332662353515625,0.18458733658790588,-0.03544102347642183,-0.0067402680404484265
1772794313099707400,7.342707275390625,0.1899105774372816,-0.0012491598108783364,-0.010114420648664236
1772794313109752300,7.35275244140625,0.15981003820598125,0.04002816860359162,0.004249693333730101
1772794313119796500,7.36279638671875,0.09706628952324389,0.0973283014602959,0.058691842943429946
1772794313129841400,7.37284130859375,0.014241291320323942,0.10138944995198398,0.07482296659834682
1772794313139886300,7.38288623046875,-0.04989946467876434,0.0855215803431347,0.0432657988179475
1772794313149931500,7.392931640625,-0.06882160729169845,0.05295096120387315,0.0012955197032541036
1772794313159975400,7.402975341796875,-0.06901742212474346,-0.010712021215632557,-0.02889766624756157
1772794313170020400,7.413020263671875,-0.003238251268863678,-0.047634771149791776,-0.07815949060991406
1772794313180065300,7.423065185546875,0.04623217434287071,-0.05921652440465986,-0.1088256278347224
1772794313190110500,7.4331103515625,0.05768938790261745,-0.02021587221790105,-0.09693952133841811
1772794313200154600,7.443154541015625,0.08576572782993316,-0.00310439575612545,-0.10328436032049357
1772794313210199300,7.45319921875,0.10360884303450583,0.03466189233008772,-0.06386800347231328
1772794313220244500,7.463244384765625,0.03193886057436466,0.04013893550168723,-0.044943011315166946
1772794313230289400,7.473289306640625,-0.04201367986500263,0.0564198794234544,0.024696342100203036
1772794313240333300,7.483333251953125,-0.09619593642950057,0.030761743086390195,0.04073050818666815
1772794313250378500,7.49337841796875,-0.16599369527697563,0.013962912770360707,0.028467385071516034
1772794313260423400,7.50342333984375,-0.21998832031488416,0.014135383260436354,-0.009130889504030347
1772794313270468400,7.51346826171875,-0.2190291198939085,0.004544767290167511,0.0065017831094563005
1772794313280512300,7.52351220703125,-0.24448037201464173,0.02366977553144097,0.050200128125771876
1772794313290557400,7.533557373046875,-0.20323241582512855,0.0663544865258038,0.05872428390830755
1772794313300602400,7.543602294921875,-0.11200316189229488,0.06640395169071853,0.02921630374267697
1772794313310647600,7.5536474609375,0.014799509724974631,0.0374424264267087,0.04553805459886789
1772794313320691500,7.56369140625,0.12448270423710346,0.019514847809076308,0.01508512173332274
1772794313330736400,7.573736328125,0.17864567157924174,-0.01804404460415244,-0.06441475063487886
1772794313340781600,7.583781494140625,0.2043587895065546,-0.042532662237808105,-0.09066277915649115
1772794313350826500,7.593826416015625,0.20247838258743284,-0.035204949698224665,-0.0835105693142861
1772794313360870400,7.603870361328125,0.1770791529148817,-0.008024462632089852,-0.09322956090457737
1772794313370915300,7.613915283203125,0.2013911718726158,0.0076744070854038,-0.04390818837471306
1772794313380960500,7.62396044921875,0.2563812376886606,0.014866729742288589,0.00461355821006
1772794313391005400,7.63400537109375,0.3036684740424156,0.03777480018623173,0.030164763573929665
1772794313401049300,7.64404931640625,0.31077684474289413,0.02714497736133635,0.020645678469911215
1772794313411094500,7.654094482421875,0.29729367831349374,0.01459076234512031,-0.00422207467444241
1772794313421139500,7.664139404296875,0.2493015085607767,0.013949907158315181,-0.031728067367896434
1772794313431183400,7.674183349609375,0.19401392110288143,0.011341405160352588,-0.04124956362470984
1772794313441228300,7.684228271484375,0.15533143148720263,-0.004369154994934797,-0.06125526369065046
1772794313451273500,7.6942734375,0.1327595341950655,-0.006395327060297131,-0.05537373137138783
1772794313461318400,7.704318359375,0.10753332300186157,0.012545154926925896,-0.036917744965478776
1772794313471362300,7.7143623046875,0.07206044308245181,0.02964227406978607,-0.0231555423989892
1772794313481407500,7.724407470703125,0.017284896799921987,0.053644569491222496,0.02493351185694337
1772794313491452400,7.734452392578125,-0.0474830511868,0.06916435631476342,0.08324190844073891
1772794313501497600,7.74449755859375,-0.11475216833949088,0.050840691051632164,0.09004654695428907
1772794313511541200,7.754541259765625,-0.1369102241337299,-0.002778342139534652,0.059360535985231395
1772794313521586400,7.76458642578125,-0.10128419947922229,-0.042881731403805315,0.014406637949869036
1772794313531631400,7.77463134765625,-0.09075696024596691,-0.06049173197224736,-0.0037855829533189533
1772794313541676300,7.78467626953125,-0.08702478798031807,-0.030772666339203714,-0.0411500487729907
1772794313551720400,7.794720458984375,-0.09196633603572844,0.011995485154911875,-0.00822656107544899
1772794313561765400,7.804765380859375,-0.1047474916756153,0.006390066363289952,0.007963380094617604
1772794313571810300,7.814810302734375,-0.07752864536046981,0.002410458675213158,-0.010227744830027223
1772794313581855200,7.824855224609375,-0.05862170031666755,-0.03244772341195494,-0.03756554134972393
1772794313591899400,7.8348994140625,0.014034955093264578,-0.052116008217073975,-0.053815688274428244
1772794313601944300,7.8449443359375,0.04308569301068783,-0.04345149411577731,-0.03884177183061838
1772794313611989200,7.8549892578125,0.07148702710866928,-0.016462401435896754,-0.014676540932431816
1772794313622034400,7.865034423828125,0.052583589196205135,0.013876951519958674,0.005925882917642593
1772794313632078300,7.875078369140625,0.05337444731295109,0.02259611841794103,0.017537848647683856
1772794313642123500,7.88512353515625,0.020420272216200828,0.04249218409694731,0.062264294602721926
1772794313652168200,7.895168212890625,-0.10289397276341915,0.08343249910939485,0.08251900099366903
1772794313662213400,7.90521337890625,-0.23723989936709403,0.06784487121403217,0.07849836717545985
1772794313672257500,7.915257568359375,-0.22442074980437754,0.007643025566451251,0.01042721292488277
1772794313682302200,7.92530224609375,-0.1328898825764656,-0.012574782880209386,-0.11023242589272558
1772794313692347400,7.935347412109375,-0.0473784217685461,-0.0001860240913927555,-0.12522029779665172
1772794313702392300,7.945392333984375,0.014224924707412719,-0.003217208480834961,-0.12215747615993022
1772794313712436500,7.9554365234375,0.07733224600553512,0.005804521560296416,-0.14429974986314772
1772794313722481200,7.965481201171875,0.15627368077337742,0.006339797480776906,-0.1534826618153602
1772794313732526300,7.9755263671875,0.25676234596073627,-0.05576660314649343,-0.1341097797602415
1772794313742571300,7.9855712890625,0.3313870865732431,-0.08505319564640522,-0.11584566266462207
1772794313752615400,7.995615478515625,0.35548692408502097,-0.10842632631883024,-0.048069253576919435
