time,seconds_elapsed,z,y,x
1772794305837337600,0.080337646484375,0.4037497043609619,0.13239391148090363,-0.02071315236389637
1772794305847382500,0.090382568359375,0.3303966224193573,0.12226516753435135,0.08865936845541
1772794305857427500,0.100427490234375,0.2510562837123871,0.10834082216024399,0.19187204539775848
1772794305867472400,0.110472412109375,0.1761738657951355,0.09185191243886948,0.2619321644306183
1772794305877517600,0.120517578125,0.09862180799245834,0.06810662895441055,0.2923230826854706
1772794305887561200,0.130561279296875,0.028332188725471497,0.014700295403599739,0.2794622778892517
1772794305897606400,0.1406064453125,-0.031476281583309174,-0.00900157168507576,0.265098512172699
1772794305907651300,0.1506513671875,-0.04316664859652519,-0.004266361705958843,0.2585434913635254
1772794305917696500,0.160696533203125,-0.04169471934437752,0.06342373788356781,0.2536137104034424
1772794305927741400,0.170741455078125,-0.038235120475292206,0.14653077721595764,0.23508228361606598
1772794305937785300,0.180785400390625,-0.031796928495168686,0.20379619300365448,0.17799688875675201
1772794305947830500,0.19083056640625,-0.031224478036165237,0.20005211234092712,0.0698055624961853
1772794305957875500,0.20087548828125,-0.028863318264484406,0.1678134799003601,-0.05362369865179062
1772794305967920600,0.210920654296875,-0.020790275186300278,0.13050886988639832,-0.1462131291627884
1772794305977965300,0.22096533203125,-0.005446739494800568,0.07544907182455063,-0.1903688758611679
1772794305988009500,0.231009521484375,0.0060191163793206215,0.0074906968511641026,-0.19320593774318695
1772794305998054400,0.241054443359375,-0.0016063128132373095,-0.07169706374406815,-0.17407645285129547
1772794306008099300,0.251099365234375,-0.022490119561553,-0.16819553077220917,-0.17154596745967865
1772794306018144300,0.261144287109375,-0.030628738924860954,-0.2828552722930908,-0.1759020984172821
1772794306028188400,0.2711884765625,-0.04054712876677513,-0.3433016240596771,-0.16860872507095337
1772794306038233600,0.281233642578125,-0.09519599378108978,-0.3969382345676422,-0.12882083654403687
1772794306048278300,0.2912783203125,-0.12347539514303207,-0.4348545968532562,-0.04960034787654877
1772794306058323500,0.301323486328125,-0.1221960112452507,-0.43267080187797546,0.0544634684920311
1772794306068368400,0.311368408203125,-0.09451903402805328,-0.46396565437316895,0.14683467149734497
1772794306078412500,0.32141259765625,-0.09379518777132034,-0.48897674679756165,0.20253895223140717
1772794306088457500,0.33145751953125,-0.11155406385660172,-0.5316146016120911,0.20464517176151276
1772794306098502400,0.34150244140625,-0.13744691014289856,-0.5809536576271057,0.16264553368091583
1772794306108547300,0.35154736328125,-0.14224578440189362,-0.5968341827392578,0.08800244331359863
1772794306118592500,0.361592529296875,-0.10035718977451324,-0.5757341980934143,0.018817782402038574
1772794306128636400,0.371636474609375,-0.04079063609242439,-0.5466948747634888,-0.040620435029268265
1772794306138681300,0.381681396484375,0.007019230164587498,-0.5445206165313721,-0.10103558003902435
1772794306148726500,0.3917265625,0.014442269690334797,-0.5526404976844788,-0.15517748892307281
1772794306158771500,0.401771484375,0.004529185127466917,-0.5005869269371033,-0.21463921666145325
1772794306168815400,0.4118154296875,-0.02337058074772358,-0.4108853340148926,-0.26887068152427673
1772794306178860500,0.421860595703125,-0.04282310605049133,-0.31845688819885254,-0.2749781012535095
1772794306188905500,0.431905517578125,-0.06046357750892639,-0.2585870027542114,-0.2554924786090851
1772794306198950700,0.44195068359375,-0.08406611531972885,-0.2274751514196396,-0.2304542511701584
1772794306208995300,0.451995361328125,-0.12232937663793564,-0.15149949491024017,-0.21521849930286407
1772794306219039500,0.46203955078125,-0.20261222124099731,-0.06216800957918167,-0.19367645680904388
1772794306229084400,0.47208447265625,-0.24168846011161804,0.007558180019259453,-0.16346010565757751
1772794306239129600,0.482129638671875,-0.2779359519481659,0.039944346994161606,-0.13028857111930847
1772794306249174300,0.49217431640625,-0.21899525821208954,0.041528716683387756,-0.10955502837896347
1772794306259219500,0.502219482421875,-0.17864544689655304,0.0698397159576416,-0.10969484597444534
1772794306269263600,0.512263671875,-0.18352110683918,0.035377878695726395,-0.1539590060710907
1772794306279308300,0.522308349609375,-0.187632218003273,0.07331700623035431,-0.22314554452896118
1772794306289353500,0.532353515625,-0.13708463311195374,0.09473254531621933,-0.28044000267982483
1772794306299398400,0.5423984375,-0.05976240709424019,0.01784016564488411,-0.2568265497684479
1772794306309442600,0.552442626953125,-0.010801749303936958,-0.06614219397306442,-0.182125061750412
1772794306319487200,0.5624873046875,-0.0021962772589176893,-0.16130812466144562,-0.06906083226203918
1772794306329532400,0.572532470703125,-0.008508842438459396,-0.22087259590625763,0.052681319415569305
1772794306339577300,0.582577392578125,-0.01391719002276659,-0.25002995133399963,0.16279664635658264
1772794306349622500,0.59262255859375,-0.039906468242406845,-0.24957849085330963,0.25235551595687866
1772794306359666400,0.60266650390625,-0.04601309821009636,-0.29617607593536377,0.33557823300361633
1772794306369711400,0.61271142578125,-0.09250812232494354,-0.29012683033943176,0.42823633551597595
1772794306379756500,0.622756591796875,-0.1799415647983551,-0.23305954039096832,0.49524280428886414
1772794306389801500,0.632801513671875,-0.2675606608390808,-0.16677479445934296,0.5447056889533997
1772794306399846700,0.6428466796875,-0.3214494585990906,-0.12535437941551208,0.5959438681602478
1772794306409890300,0.652890380859375,-0.34961479902267456,-0.08736667782068253,0.62436443567276
1772794306419935500,0.662935546875,-0.36478549242019653,-0.06339424103498459,0.6093910932540894
1772794306429980400,0.67298046875,-0.3899361789226532,-0.030855679884552956,0.5398688316345215
1772794306440025300,0.683025390625,-0.44021639227867126,-0.050834447145462036,0.4312417209148407
1772794306450069500,0.693069580078125,-0.5094088315963745,-0.13422010838985443,0.30466580390930176
1772794306460114400,0.703114501953125,-0.5145689845085144,-0.16117262840270996,0.13742755353450775
1772794306470159600,0.71315966796875,-0.4670630991458893,-0.15826380252838135,-0.025917885825037956
1772794306480204300,0.723204345703125,-0.392219215631485,-0.17009596526622772,-0.16530746221542358
1772794306490249500,0.73324951171875,-0.29382988810539246,-0.1742784082889557,-0.29697683453559875
1772794306500293400,0.74329345703125,-0.17786385118961334,-0.17221978306770325,-0.3980506956577301
1772794306510338600,0.753338623046875,-0.05367942899465561,-0.18451373279094696,-0.46843576431274414
1772794306520383200,0.76338330078125,0.022656086832284927,-0.1485818326473236,-0.5222969055175781
1772794306530428400,0.773428466796875,0.08857985585927963,-0.11173924058675766,-0.5662724375724792
1772794306540474000,0.78347412109375,0.1576867699623108,-0.10131536424160004,-0.6019289493560791
1772794306550518300,0.793518310546875,0.1979062706232071,-0.10488804429769516,-0.6255470514297485
1772794306560563200,0.803563232421875,0.21650844812393188,-0.09170353412628174,-0.6416999101638794
1772794306570608000,0.813608154296875,0.22543029487133026,-0.10878904163837433,-0.624687910079956
1772794306580653300,0.8236533203125,0.23199233412742615,-0.13170208036899567,-0.5618506073951721
1772794306590698200,0.8336982421875,0.22586296498775482,-0.1086185947060585,-0.47234803438186646
1772794306600742400,0.843742431640625,0.17547328770160675,-0.060800209641456604,-0.36587005853652954
1772794306610787000,0.853787109375,0.11200867593288422,-0.041307367384433746,-0.2501530349254608
1772794306620832300,0.863832275390625,0.053810618817806244,-0.04216330870985985,-0.15443584322929382
1772794306630877200,0.873877197265625,-0.0035580573603510857,-0.035897739231586456,-0.08163406699895859
1772794306640921000,0.883921142578125,-0.045405637472867966,-0.00995428953319788,-0.03262151777744293
1772794306650966300,0.89396630859375,-0.08230659365653992,0.03933864086866379,-0.0033794757910072803
1772794306661011200,0.90401123046875,-0.10204168409109116,0.08761429786682129,-0.0033397949300706387
1772794306671056400,0.914056396484375,-0.1085326075553894,0.12362144887447357,-0.03637273237109184
1772794306681101300,0.924101318359375,-0.12014026194810867,0.10909843444824219,-0.09005966782569885
1772794306691145200,0.934145263671875,-0.11469119787216187,0.08508998155593872,-0.15390433371067047
1772794306701190100,0.944190185546875,-0.0932447612285614,0.07304530590772629,-0.21915684640407562
1772794306711235300,0.9542353515625,-0.07777532190084457,0.07510899007320404,-0.26255011558532715
1772794306721280300,0.9642802734375,-0.054664406925439835,0.05244549363851547,-0.2972564101219177
1772794306731324200,0.97432421875,-0.03664867579936981,0.021173907443881035,-0.3189689517021179
1772794306741369300,0.984369384765625,-0.0250729788094759,-0.0012416532263159752,-0.31481945514678955
1772794306751414300,0.994414306640625,-0.030027564615011215,-0.002974200528115034,-0.29061248898506165
1772794306761459200,1.004459228515625,-0.04534606635570526,0.024058748036623,-0.25136706233024597
1772794306771504000,1.014504150390625,-0.07650896906852722,0.05335027351975441,-0.20750294625759125
1772794306781548300,1.02454833984375,-0.11816827207803726,0.06272220611572266,-0.17637111246585846
1772794306791593200,1.03459326171875,-0.1560019999742508,0.035715509206056595,-0.1647404134273529
1772794306801638100,1.04463818359375,-0.1944950520992279,0.020598342642188072,-0.15506035089492798
1772794306811683000,1.05468310546875,-0.20477981865406036,-0.002407529391348362,-0.131675586104393
1772794306821728300,1.064728271484375,-0.2008838802576065,-0.02415010891854763,-0.1117173284292221
1772794306831772400,1.0747724609375,-0.19145222008228302,-0.030958114191889763,-0.09732396900653839
1772794306841817000,1.084817138671875,-0.19665071368217468,-0.015852930024266243,-0.08043872565031052
1772794306851862300,1.0948623046875,-0.20525901019573212,0.01209055632352829,-0.07247301936149597
1772794306861907200,1.1049072265625,-0.2044541984796524,0.030070887878537178,-0.08291607350111008
1772794306871951400,1.114951416015625,-0.2023586928844452,0.02853163704276085,-0.10390539467334747
1772794306881996000,1.12499609375,-0.2084229737520218,0.053782932460308075,-0.1284666806459427
1772794306892041200,1.135041259765625,-0.20624788105487823,0.06558254361152649,-0.1449652910232544
1772794306902086100,1.145086181640625,-0.21345865726470947,0.05738932639360428,-0.15016351640224457
1772794306912131300,1.15513134765625,-0.22704850137233734,0.03674929589033127,-0.14826415479183197
1772794306922175200,1.16517529296875,-0.23609259724617004,0.019570842385292053,-0.12568800151348114
1772794306932220200,1.17522021484375,-0.25325602293014526,0.0185051541775465,-0.09653589874505997
1772794306942265300,1.185265380859375,-0.28129538893699646,0.02963956631720066,-0.06679904460906982
1772794306952310300,1.195310302734375,-0.31059449911117554,0.004302194807678461,-0.0427846722304821
1772794306962354200,1.205354248046875,-0.3340947926044464,-0.031115982681512833,-0.01738637499511242
1772794306972399400,1.2153994140625,-0.34437939524650574,-0.06604094803333282,0.025939831510186195
1772794306982444300,1.2254443359375,-0.3422837555408478,-0.0849376767873764,0.07081303000450134
1772794306992489200,1.2354892578125,-0.32232359051704407,-0.08863648027181625,0.12400317192077637
1772794307002534100,1.2455341796875,-0.3073638081550598,-0.07172460854053497,0.16080805659294128
1772794307012578300,1.255578369140625,-0.2881559133529663,-0.062128596007823944,0.17040376365184784
1772794307022623200,1.265623291015625,-0.26726794242858887,-0.08857937902212143,0.14013667404651642
1772794307032668200,1.275668212890625,-0.25326696038246155,-0.08376513421535492,0.10702399164438248
1772794307042713000,1.285713134765625,-0.2213556319475174,-0.09445665776729584,0.08604121208190918
1772794307052758300,1.29575830078125,-0.19934698939323425,-0.0931202843785286,0.062247734516859055
1772794307062802400,1.305802490234375,-0.18295657634735107,-0.09581620246171951,0.04698649421334267
1772794307072847000,1.31584716796875,-0.16746021807193756,-0.10144548863172531,0.023180417716503143
1772794307082892300,1.325892333984375,-0.16363245248794556,-0.10112830251455307,-0.01116423960775137
1772794307092937200,1.335937255859375,-0.16430580615997314,-0.0840006098151207,-0.03787445276975632
1772794307102981400,1.3459814453125,-0.1693224012851715,-0.04793288931250572,-0.05857786908745766
1772794307113026000,1.356026123046875,-0.18447625637054443,-0.01403430849313736,-0.07369906455278397
1772794307123071200,1.3660712890625,-0.18839509785175323,0.007082428317517042,-0.08902475982904434
1772794307133116200,1.3761162109375,-0.19765572249889374,0.01497768796980381,-0.107988640666008
1772794307143161300,1.386161376953125,-0.20124220848083496,0.02772410959005356,-0.12217795848846436
1772794307153205200,1.396205322265625,-0.19518272578716278,0.027941318228840828,-0.1325676292181015
1772794307163250200,1.406250244140625,-0.19364768266677856,0.02517322637140751,-0.14131584763526917
1772794307173295400,1.41629541015625,-0.1929064840078354,0.011987119913101196,-0.14312922954559326
1772794307183340300,1.42634033203125,-0.19992950558662415,0.006760133896023035,-0.14993174374103546
1772794307193384200,1.43638427734375,-0.1872139275074005,0.006796673405915499,-0.14066295325756073
1772794307203429000,1.44642919921875,-0.17220887541770935,0.015533439815044403,-0.12413617968559265
1772794307213474300,1.456474365234375,-0.16213472187519073,0.011558352038264275,-0.10738881677389145
1772794307223519200,1.466519287109375,-0.16027183830738068,-0.014916665852069855,-0.09196112304925919
1772794307233564200,1.476564208984375,-0.15415309369564056,-0.030344415456056595,-0.07613726705312729
1772794307243608300,1.4866083984375,-0.14124847948551178,-0.016330063343048096,-0.050175707787275314
1772794307253653200,1.4966533203125,-0.12953321635723114,0.003377435263246298,-0.03510180115699768
1772794307263698400,1.506698486328125,-0.11815699934959412,0.005305830854922533,-0.019847745075821877
1772794307273743000,1.5167431640625,-0.11858735978603363,0.015236224979162216,-0.011259582825005054
1772794307283787300,1.526787353515625,-0.11078749597072601,-0.005816861987113953,-0.013451897539198399
1772794307293832200,1.536832275390625,-0.10706055909395218,-0.021618884056806564,-0.02503550611436367
1772794307303877000,1.546877197265625,-0.08955293893814087,-0.0237685889005661,-0.03724583238363266
1772794307313922000,1.556922119140625,-0.06396953016519547,-0.01904216967523098,-0.04991353675723076
1772794307323967200,1.56696728515625,-0.04715060442686081,-0.009615643881261349,-0.06412123888731003
1772794307334011400,1.577011474609375,-0.03761918470263481,-0.00918479822576046,-0.08707600831985474
1772794307344056000,1.58705615234375,-0.034083571285009384,-0.004078719764947891,-0.1008078008890152
1772794307354101200,1.597101318359375,-0.041553206741809845,-0.0016752169467508793,-0.1091698631644249
1772794307364146200,1.607146240234375,-0.04394339397549629,0.0004595732316374779,-0.1208595409989357
1772794307374190300,1.6171904296875,-0.0437108650803566,-0.010714197531342506,-0.13291972875595093
1772794307384235300,1.6272353515625,-0.040082842111587524,-0.013941416516900063,-0.1270783543586731
1772794307394280200,1.6372802734375,-0.03257722407579422,-0.022170262411236763,-0.10954178869724274
1772794307404325000,1.6473251953125,-0.021235087886452675,-0.020796604454517365,-0.07835644483566284
1772794307414370300,1.657370361328125,-0.011471149511635303,-0.011338495649397373,-0.04560983180999756
1772794307424414200,1.667414306640625,0.007108659483492374,0.00037355395033955574,-0.01895185559988022
1772794307434459100,1.677459228515625,0.03514082729816437,0.00006542634218931198,0.0030309411231428385
1772794307444504300,1.68750439453125,0.06266406923532486,0.000555181410163641,0.015371231362223625
1772794307454549200,1.69754931640625,0.09562966972589493,-0.01227550394833088,0.028383852913975716
1772794307464593200,1.70759326171875,0.1408000886440277,-0.018804775550961494,0.051789842545986176
1772794307474638300,1.717638427734375,0.19525915384292603,0.004382997751235962,0.10006580501794815
1772794307484683300,1.727683349609375,0.24437344074249268,0.033107053488492966,0.15858477354049683
1772794307494728400,1.737728515625,0.2799995541572571,0.029875678941607475,0.1974194496870041
1772794307504772000,1.747772216796875,0.2992808520793915,0.020359139889478683,0.208055317401886
1772794307514817300,1.7578173828125,0.31185275316238403,-0.018918653950095177,0.2215239405632019
1772794307524862200,1.7678623046875,0.3049607574939728,-0.048391327261924744,0.2340133637189865
1772794307534907400,1.777907470703125,0.2812838852405548,-0.09851542860269547,0.2290356159210205
1772794307544952300,1.787952392578125,0.24883140623569489,-0.15430624783039093,0.20341041684150696
1772794307554996500,1.79799658203125,0.2101103812456131,-0.17947323620319366,0.18435454368591309
1772794307565041700,1.808041748046875,0.17717932164669037,-0.18532127141952515,0.1865852177143097
1772794307575086300,1.81808642578125,0.14366963505744934,-0.14073212444782257,0.199586883187294
1772794307585131500,1.828131591796875,0.10601439327001572,-0.0880872830748558,0.21588994562625885
1772794307595175400,1.838175537109375,0.06846412271261215,-0.04128430783748627,0.21494977176189423
1772794307605220400,1.848220458984375,0.030702095478773117,-0.010747967287898064,0.20453868806362152
1772794307615265300,1.858265380859375,0.004924996756017208,0.008684422820806503,0.1924191266298294
1772794307625310500,1.868310546875,-0.007716230116784573,0.009156601503491402,0.1832975447177887
1772794307635355400,1.87835546875,-0.018991619348526,-0.007134641520678997,0.16722220182418823
1772794307645399300,1.8883994140625,-0.025295855477452278,-0.027366675436496735,0.15117238461971283
1772794307655444500,1.898444580078125,-0.02421179786324501,-0.034573033452034,0.1392650455236435
1772794307665489400,1.908489501953125,-0.019065504893660545,-0.027926314622163773,0.12554338574409485
1772794307675534600,1.91853466796875,-0.013349572196602821,-0.011281666345894337,0.11837906390428543
1772794307685578200,1.928578125,0.0007422779453918338,0.022928500548005104,0.11543760448694229
1772794307695623400,1.93862353515625,0.02226615883409977,0.06797267496585846,0.11176487803459167
1772794307705668400,1.94866845703125,0.035964664071798325,0.10265661776065826,0.11160482466220856
1772794307715713500,1.958713623046875,0.04955393075942993,0.11576773226261139,0.11004519462585449
1772794307725758500,1.968758544921875,0.061676640063524246,0.1612691581249237,0.11919315904378891
1772794307735802400,1.97880224609375,0.06197509169578552,0.21149979531764984,0.13272300362586975
1772794307745847600,1.98884765625,0.05902031436562538,0.25510773062705994,0.12768617272377014
1772794307755892500,1.998892578125,0.05302753672003746,0.2511869966983795,0.07671661674976349
1772794307765937400,2.0089375,0.04954811558127403,0.2039150595664978,-0.005089572165161371
1772794307775981300,2.018981201171875,0.051001738756895065,0.1715133935213089,-0.10339190065860748
1772794307786026500,2.029026611328125,0.05743007734417915,0.10714186728000641,-0.18452005088329315
1772794307796071400,2.039071533203125,0.048041682690382004,0.06090954691171646,-0.2562306225299835
1772794307806116400,2.049116455078125,0.0514550544321537,0.03292691335082054,-0.27203860878944397
1772794307816160500,2.059160400390625,0.062392428517341614,0.01063828356564045,-0.25483107566833496
1772794307826205400,2.069205322265625,0.08059007674455643,0.02406700700521469,-0.2152775377035141
1772794307836250600,2.079250732421875,0.09463141858577728,0.0317998081445694,-0.17958977818489075
1772794307846295300,2.08929541015625,0.10176016390323639,0.026857778429985046,-0.15845945477485657
1772794307856340500,2.099340576171875,0.10037131607532501,-0.0049601770006120205,-0.1440279483795166
1772794307866384400,2.10938427734375,0.10009195655584335,-0.03915489837527275,-0.14029046893119812
1772794307876429300,2.11942919921875,0.09405086934566498,-0.07938482612371445,-0.1303580105304718
1772794307886474500,2.129474609375,0.09918197989463806,-0.09247665852308273,-0.10810569673776627
1772794307896519400,2.13951953125,0.1066979393362999,-0.08439353853464127,-0.07759002596139908
1772794307906563600,2.1495634765625,0.11786084622144699,-0.07293502241373062,-0.057709790766239166
1772794307916608300,2.159608154296875,0.11815750598907471,-0.07872813940048218,-0.05171425640583038
1772794307926653400,2.1696533203125,0.11800704151391983,-0.09681074321269989,-0.05831276997923851
1772794307936698400,2.179698486328125,0.10497462004423141,-0.14643895626068115,-0.08066847920417786
1772794307946743600,2.18974365234375,0.0991968959569931,-0.1864556223154068,-0.10056363046169281
1772794307956787500,2.199787353515625,0.09510098397731781,-0.20449607074260712,-0.12299177795648575
1772794307966832400,2.209832275390625,0.09810955822467804,-0.20500154793262482,-0.134896919131279
1772794307976877600,2.219877685546875,0.10108910501003265,-0.19891798496246338,-0.15131141245365143
1772794307986922500,2.229922607421875,0.091498002409935,-0.20068365335464478,-0.1622530072927475
1772794307996966400,2.23996630859375,0.09560517221689224,-0.19086335599422455,-0.1744621992111206
1772794308007011300,2.25001123046875,0.10035758465528488,-0.15210343897342682,-0.17372530698776245
1772794308017056500,2.260056396484375,0.1099647507071495,-0.1126471757888794,-0.1706627458333969
1772794308027101400,2.270101318359375,0.11771588027477264,-0.07291227579116821,-0.15496394038200378
1772794308037145300,2.280145263671875,0.11999306082725525,-0.03157474100589752,-0.13891980051994324
1772794308047190500,2.2901904296875,0.12579528987407684,-0.004083727486431599,-0.12346787750720978
1772794308057235500,2.3002353515625,0.12926551699638367,0.007992159575223923,-0.11867015808820724
1772794308067280600,2.31028076171875,0.13961057364940643,0.016792042180895805,-0.11631406098604202
1772794308077325300,2.3203251953125,0.14456990361213684,0.03194905072450638,-0.09983723610639572
1772794308087369500,2.330369384765625,0.16526639461517334,0.03646577149629593,-0.053413275629282
1772794308097414400,2.340414306640625,0.16762666404247284,-0.0018052412196993828,-0.03005164861679077
1772794308107459600,2.35045947265625,0.14523880183696747,-0.022772308439016342,-0.018394993618130684
1772794308117504300,2.360504150390625,0.12679068744182587,-0.010570976883172989,0.011011214926838875
1772794308127548400,2.37054833984375,0.11572419106960297,-0.022535761818289757,0.04111478850245476
1772794308137593600,2.380593505859375,0.09540112316608429,-0.017059342935681343,0.06183185800909996
1772794308147638300,2.39063818359375,0.07153254002332687,-0.012496547773480415,0.06424202769994736
1772794308157683500,2.400683349609375,0.04487023875117302,-0.017532426863908768,0.06340114027261734
1772794308167728400,2.410728271484375,0.02111111395061016,-0.012435670010745525,0.0590364933013916
1772794308177772500,2.4207724609375,0.0015573875280097127,-0.006498685106635094,0.054673969745635986
1772794308187817200,2.430817138671875,-0.01135814469307661,0.0030546062625944614,0.04270518943667412
1772794308197862400,2.4408623046875,-0.023222772404551506,-0.001973760314285755,0.032002516090869904
1772794308207907300,2.4509072265625,-0.03153263404965401,-0.030667191371321678,0.019360758364200592
1772794308217951500,2.460951416015625,-0.0361013188958168,-0.047151412814855576,0.018726201727986336
1772794308227996400,2.470996337890625,-0.031719885766506195,-0.06208908185362816,0.02940627560019493
1772794308238041300,2.481041259765625,-0.02549387514591217,-0.07051671296358109,0.044412389397621155
1772794308248086500,2.49108642578125,-0.0263812392950058,-0.07088449597358704,0.06760453432798386
1772794308258130400,2.50113037109375,-0.03180285170674324,-0.06790147721767426,0.09072365611791611
1772794308268175400,2.51117529296875,-0.03359169512987137,-0.06163479760289192,0.10660462081432343
1772794308278220300,2.52122021484375,-0.021270059049129486,-0.04412515461444855,0.12077461928129196
1772794308288265500,2.531265380859375,-0.008782496675848961,-0.02427155338227749,0.12297732383012772
1772794308298310400,2.541310302734375,0.0041753798723220825,-0.011357884854078293,0.1149609386920929
1772794308308354300,2.551354248046875,0.015285597182810307,-0.006861509755253792,0.09393961727619171
1772794308318399500,2.5613994140625,0.034450653940439224,0.0010679424740374088,0.06810581684112549
1772794308328444400,2.5714443359375,0.039149269461631775,0.02218201570212841,0.048398952931165695
1772794308338489600,2.581489501953125,0.035067666321992874,0.04229937493801117,0.032491013407707214
1772794308348533500,2.591533447265625,0.02631492167711258,0.04216887801885605,0.0014971473719924688
1772794308358578400,2.601578369140625,0.018037857487797737,0.01682000607252121,-0.02419988438487053
1772794308368623600,2.61162353515625,0.015933694317936897,0.007415586616843939,-0.05993551015853882
1772794308378668500,2.62166845703125,0.013233238831162453,-0.013791270554065704,-0.07815887033939362
1772794308388712400,2.63171240234375,-0.0038746409118175507,-0.03278280422091484,-0.08412329107522964
1772794308398757400,2.64175732421875,-0.025857960805296898,-0.034662358462810516,-0.06412012875080109
1772794308408802600,2.651802490234375,-0.04980377107858658,-0.0271085686981678,-0.029604235664010048
1772794308418847200,2.66184716796875,-0.06695805490016937,-0.019301887601614,0.015230764634907246
1772794308428892400,2.671892333984375,-0.0714351013302803,0.0018025999888777733,0.055576588958501816
1772794308438936600,2.6819365234375,-0.07519271969795227,0.034376420080661774,0.08140077441930771
1772794308448981500,2.6919814453125,-0.07377991080284119,0.04777052253484726,0.090897336602211
1772794308459026400,2.7020263671875,-0.0683935359120369,0.050308987498283386,0.08370694518089294
1772794308469071400,2.7120712890625,-0.07028811424970627,0.04003264755010605,0.06497000902891159
1772794308479115500,2.722115478515625,-0.076528400182724,0.025938987731933594,0.043028153479099274
1772794308489160400,2.732160400390625,-0.0694718211889267,0.02633873000741005,0.03433746099472046
1772794308499205400,2.742205322265625,-0.06076032668352127,0.03266645222902298,0.025852020829916
1772794308509250300,2.752250244140625,-0.047609638422727585,0.04899536073207855,0.020245002582669258
1772794308519294500,2.76229443359375,-0.03069104254245758,0.06637658923864365,0.015509750694036484
1772794308529339600,2.772339599609375,-0.018522795289754868,0.05741611868143082,0.006936502642929554
1772794308539383300,2.78238330078125,-0.005562829319387674,0.03640760853886604,-0.012156041339039803
1772794308549428200,2.79242822265625,0.012766110710799694,0.02189764380455017,-0.021132225170731544
1772794308559473200,2.80247314453125,0.0371374748647213,0.026390980929136276,-0.014504455961287022
1772794308569517300,2.812517333984375,0.06324230879545212,0.03467154875397682,0.002208743942901492
1772794308579562500,2.8225625,0.08345039933919907,0.053631603717803955,0.021586209535598755
1772794308589607200,2.832607177734375,0.10104936361312866,0.07972899079322815,0.04524306580424309
1772794308599652400,2.84265234375,0.11294804513454437,0.11688423901796341,0.06315590441226959
1772794308609696500,2.852696533203125,0.12571629881858826,0.14088571071624756,0.060657329857349396
1772794308619741200,2.8627412109375,0.12683533132076263,0.1277485340833664,0.050909969955682755
1772794308629786400,2.872786376953125,0.12577645480632782,0.09796321392059326,0.0367526076734066
1772794308639831300,2.882831298828125,0.11438928544521332,0.0670359805226326,0.03814779594540596
1772794308649875500,2.89287548828125,0.11106140911579132,0.05860041826963425,0.05019593983888626
1772794308659920100,2.902920166015625,0.10783234238624573,0.042995307594537735,0.061575934290885925
1772794308669965300,2.91296533203125,0.09744282066822052,0.03404469043016434,0.06362123787403107
1772794308680010200,2.92301025390625,0.08801105618476868,0.017151249572634697,0.050742875784635544
1772794308690055400,2.933055419921875,0.07514346390962601,0.0025491383858025074,0.037427868694067
1772794308700099300,2.943099365234375,0.06373254209756851,-0.009834243915975094,0.04171342775225639
1772794308710144300,2.953144287109375,0.05306258052587509,-0.010196167975664139,0.06065968796610832
1772794308720189400,2.963189453125,0.04278242960572243,-0.0012466716580092907,0.07695461809635162
1772794308730234400,2.973234375,0.03394872695207596,0.007502078544348478,0.0957498773932457
1772794308740278300,2.9832783203125,0.029528185725212097,0.013906343840062618,0.1080702692270279
1772794308750323200,2.9933232421875,0.027830952778458595,0.01822279393672943,0.11166048049926758
1772794308760368400,3.003368408203125,0.017355717718601227,-0.0013251779600977898,0.09475187212228775
1772794308770413300,3.013413330078125,0.008267947472631931,-0.023693067952990532,0.0681287869811058
1772794308780457200,3.023457275390625,-0.002626757137477398,-0.0358286127448082,0.05852200835943222
1772794308790502400,3.03350244140625,-0.006607118062674999,-0.04166466370224953,0.06226721405982971
1772794308800547300,3.04354736328125,-0.010068333707749844,-0.033973824232816696,0.05451266095042229
1772794308810592500,3.053592529296875,-0.020923910662531853,-0.0408698134124279,0.05228998512029648
1772794308820637200,3.06363720703125,-0.02702169492840767,-0.04090151563286781,0.04088194668292999
1772794308830681300,3.073681396484375,-0.03479013592004776,-0.04902362450957298,0.03267541527748108
1772794308840726300,3.083726318359375,-0.03555707260966301,-0.056784335523843765,0.03559500351548195
1772794308850771500,3.093771484375,-0.03777096047997475,-0.060455504804849625,0.03926936537027359
1772794308860816100,3.103816162109375,-0.03732240945100784,-0.053595785051584244,0.04649985209107399
1772794308870860300,3.1138603515625,-0.030840273946523666,-0.0364689975976944,0.051758263260126114
1772794308880905500,3.123905517578125,-0.026284003630280495,-0.012018987908959389,0.05605592206120491
1772794308890950100,3.1339501953125,-0.02613699622452259,0.00615681940689683,0.059030674397945404
1772794308900995300,3.143995361328125,-0.02949841320514679,0.014668218791484833,0.06046607345342636
1772794308911039200,3.154039306640625,-0.03695499524474144,0.02091705985367298,0.05419193208217621
1772794308921084400,3.16408447265625,-0.038487210869789124,0.025081291794776917,0.043682344257831573
1772794308931129300,3.17412939453125,-0.028527256101369858,0.027229398488998413,0.038749370723962784
1772794308941174300,3.18417431640625,-0.015352490358054638,0.02526877261698246,0.03063669241964817
1772794308951219200,3.19421923828125,-0.008379269391298294,0.013951404020190239,0.021831482648849487
1772794308961263400,3.204263427734375,-0.0040329694747924805,-0.002532550599426031,0.009616932831704617
1772794308971308300,3.214308349609375,-0.0027847455348819494,-0.015037689357995987,0.004867451265454292
1772794308981353200,3.224353271484375,-0.007704830728471279,-0.025442123413085938,0.002380517777055502
1772794308991398400,3.2343984375,-0.02440524660050869,-0.022776564583182335,0.00993803609162569
1772794309001442300,3.2444423828125,-0.05198216065764427,0.023577984422445297,0.03760135546326637
1772794309011487200,3.2544873046875,-0.08492972701787949,0.09087046980857849,0.09224169701337814
1772794309021532400,3.264532470703125,-0.12794926762580872,0.16180963814258575,0.1601942926645279
1772794309031577300,3.274577392578125,-0.1755138486623764,0.21981008350849152,0.24066224694252014
1772794309041621200,3.284621337890625,-0.19852963089942932,0.2621604800224304,0.31096938252449036
1772794309051666200,3.294666259765625,-0.17742887139320374,0.3653140366077423,0.40174829959869385
1772794309061711400,3.30471142578125,-0.1483115404844284,0.4447718858718872,0.49802955985069275
1772794309071756300,3.31475634765625,-0.13170699775218964,0.5137094259262085,0.5874944925308228
1772794309081800200,3.32480029296875,-0.06925759464502335,0.6207842230796814,0.6347067356109619
1772794309091845400,3.334845458984375,-0.08100639283657074,0.7134909629821777,0.6200830936431885
1772794309101890300,3.344890380859375,-0.10402235388755798,0.7019833326339722,0.5569722652435303
1772794309111935500,3.354935546875,-0.17698818445205688,0.6575141549110413,0.4446460008621216
1772794309121980400,3.36498046875,-0.20807209610939026,0.5231174230575562,0.32887980341911316
1772794309132024300,3.3750244140625,-0.16809271275997162,0.39674004912376404,0.2778097093105316
1772794309142069200,3.3850693359375,-0.07119014114141464,0.3533955216407776,0.2757161855697632
1772794309152114400,3.395114501953125,0.06333571672439575,0.33381277322769165,0.2825682461261749
1772794309162159000,3.4051591796875,0.18784776329994202,0.2904492914676666,0.26601725816726685
1772794309172203300,3.415203369140625,0.26805952191352844,0.20866017043590546,0.22060556709766388
1772794309182248400,3.42524853515625,0.3113577365875244,0.12944763898849487,0.1393410712480545
1772794309192293400,3.43529345703125,0.3275691866874695,0.01714613288640976,0.05583285912871361
1772794309202338300,3.44533837890625,0.32545942068099976,-0.08283452689647675,-0.022299226373434067
1772794309212382200,3.45538232421875,0.29591670632362366,-0.20282964408397675,-0.0728343054652214
1772794309222427400,3.465427490234375,0.24100300669670105,-0.29196637868881226,-0.08834763616323471
1772794309232472300,3.475472412109375,0.21382704377174377,-0.2742387652397156,-0.1654253751039505
1772794309242517200,3.485517333984375,0.20692886412143707,-0.21970310807228088,-0.2876788079738617
1772794309252562200,3.495562255859375,0.1911506950855255,-0.195282444357872,-0.41021034121513367
1772794309262606300,3.5056064453125,0.17314685881137848,-0.1939534842967987,-0.479716420173645
1772794309272651300,3.5156513671875,0.15313851833343506,-0.16723477840423584,-0.5044529438018799
1772794309282696200,3.5256962890625,0.14189206063747406,-0.11936632543802261,-0.49124929308891296
1772794309292741400,3.535741455078125,0.12906627357006073,-0.053067199885845184,-0.45017027854919434
1772794309302785300,3.545785400390625,0.09875865280628204,0.004180213436484337,-0.39577531814575195
1772794309312830200,3.555830322265625,0.05600053817033768,0.038600772619247437,-0.35016068816185
1772794309322875100,3.565875244140625,0.00832113716751337,0.04402824118733406,-0.30995193123817444
1772794309332920300,3.57592041015625,-0.029526110738515854,0.03163149207830429,-0.2713696360588074
1772794309342964500,3.585964599609375,-0.05655929446220398,0.002224387601017952,-0.22669599950313568
1772794309353009200,3.596009033203125,-0.08073759824037552,-0.028796646744012833,-0.17080503702163696
1772794309363054300,3.606054443359375,-0.0951378345489502,-0.058100633323192596,-0.10338030755519867
1772794309373099300,3.616099365234375,-0.10704189538955688,-0.07998861372470856,-0.03880104422569275
1772794309383143400,3.626143310546875,-0.11931007355451584,-0.10367875546216965,0.02153671346604824
1772794309393188400,3.636188232421875,-0.148934006690979,-0.10466039925813675,0.0746563971042633
1772794309403233300,3.6462333984375,-0.15195317566394806,-0.10202201455831528,0.11346518248319626
1772794309413278500,3.656278564453125,-0.12616471946239471,-0.1382111757993698,0.1447666585445404
1772794309423323400,3.666323486328125,-0.11458033323287964,-0.14551480114459991,0.1778465211391449
1772794309433367300,3.6763671875,-0.13645634055137634,-0.13594020903110504,0.1957235336303711
1772794309443412200,3.686412109375,-0.1526639461517334,-0.12697631120681763,0.17863985896110535
1772794309453457400,3.69645751953125,-0.13732945919036865,-0.1514667421579361,0.15502960979938507
1772794309463502300,3.70650244140625,-0.10581624507904053,-0.16670875251293182,0.14237071573734283
1772794309473546200,3.716546142578125,-0.08726973086595535,-0.14356641471385956,0.1388830542564392
1772794309483591400,3.72659130859375,-0.07494126260280609,-0.12128615379333496,0.12469299137592316
1772794309493636400,3.73663623046875,-0.05656225234270096,-0.10265760868787766,0.09735458344221115
1772794309503681500,3.746681640625,-0.03103165701031685,-0.06973039358854294,0.08177310973405838
1772794309513725200,3.75672509765625,-0.00621792022138834,-0.017373180016875267,0.06645087897777557
1772794309523770400,3.766770263671875,0.018060509115457535,0.04575295373797417,0.046897534281015396
1772794309533815300,3.776815185546875,0.04318130761384964,0.09333565086126328,0.02910122647881508
1772794309543861200,3.786861328125,0.05423801764845848,0.12253706157207489,-0.004592173732817173
1772794309553906200,3.79690625,0.05984450504183769,0.13508693873882294,-0.04851995036005974
1772794309563950000,3.8069501953125,0.0710303857922554,0.1456095576286316,-0.09398969262838364
1772794309573995000,3.8169951171875,0.08363459259271622,0.1662948727607727,-0.136017307639122
1772794309584040200,3.827040283203125,0.09838514775037766,0.18773065507411957,-0.16708767414093018
1772794309594085000,3.837085205078125,0.1047746017575264,0.19974364340305328,-0.19617979228496552
1772794309604129000,3.84712890625,0.10156691074371338,0.2176651656627655,-0.2189183086156845
1772794309614174200,3.85717431640625,0.0905906930565834,0.24570879340171814,-0.23861052095890045
1772794309624219100,3.86721923828125,0.08065379410982132,0.2663143277168274,-0.24590687453746796
1772794309634264000,3.87726416015625,0.06795957684516907,0.2790953814983368,-0.24764378368854523
1772794309644308000,3.887307861328125,0.05935711786150932,0.28778374195098877,-0.23898622393608093
1772794309654353200,3.897353271484375,0.04279012605547905,0.25892892479896545,-0.23424392938613892
1772794309664398000,3.907398193359375,0.030818618834018707,0.2175542116165161,-0.23277904093265533
1772794309674443000,3.917443115234375,0.01784529536962509,0.16691340506076813,-0.22898456454277039
1772794309684487200,3.927487060546875,0.005454542115330696,0.11648944020271301,-0.2213965803384781
1772794309694532000,3.937531982421875,-0.002468894701451063,0.06306829303503036,-0.20429189503192902
1772794309704577300,3.947577392578125,-0.01220913976430893,0.017840899527072906,-0.1721576601266861
1772794309714622000,3.9576220703125,-0.018157577142119408,-0.010978233069181442,-0.12780511379241943
1772794309724666000,3.967666015625,-0.02069450542330742,-0.03158603981137276,-0.0771922618150711
1772794309734711300,3.977711181640625,-0.021566422656178474,-0.048174869269132614,-0.01290115900337696
1772794309744756200,3.987756103515625,-0.013561079278588295,-0.041503217071294785,0.05709470435976982
1772794309754801200,3.99780126953125,0.0010892354184761643,-0.03246605023741722,0.11853862553834915
1772794309764846000,4.00784619140625,0.01253319252282381,-0.03809965401887894,0.1596035659313202
1772794309774890200,4.01789013671875,0.02135651186108589,-0.0498385988175869,0.17408184707164764
1772794309784935000,4.027934814453125,0.024385230615735054,-0.06530719995498657,0.16951929032802582
1772794309794980000,4.03797998046875,0.033118799328804016,-0.07660246640443802,0.1514553278684616
1772794309805025000,4.04802490234375,0.043628811836242676,-0.08875250071287155,0.1277892291545868
1772794309815069200,4.058069091796875,0.05383617803454399,-0.1028645858168602,0.10086067765951157
1772794309825114000,4.068114013671875,0.05593613162636757,-0.11680090427398682,0.06965078413486481
1772794309835159000,4.078158935546875,0.05620111525058746,-0.1168629601597786,0.047569986432790756
1772794309845204200,4.088204345703125,0.05145733058452606,-0.1087484210729599,0.03951707482337952
1772794309855248100,4.098248046875,0.0456971749663353,-0.08965063095092773,0.0416601225733757
1772794309865293000,4.10829296875,0.040668096393346786,-0.06434468179941177,0.04146457090973854
1772794309875338000,4.118337890625,0.03278939798474312,-0.050458963960409164,0.04579540342092514
1772794309885383200,4.128383056640625,0.02868916466832161,-0.028803788125514984,0.049321237951517105
1772794309895427000,4.138427001953125,0.01929752714931965,-0.013087674975395203,0.04611452296376228
1772794309905472000,4.148471923828125,0.013250403106212616,0.00005806516855955124,0.036754392087459564
1772794309915517200,4.15851708984375,0.006163198966532946,0.0040261754766106606,0.016352448612451553
1772794309925562000,4.16856201171875,0.0053575299680233,0.013033941388130188,-0.0019172194879502058
1772794309935607300,4.178607177734375,0.010089168325066566,0.025781961157917976,-0.01958995684981346
1772794309945651000,4.18865087890625,0.01814921572804451,0.03244588151574135,-0.0364961214363575
1772794309955696000,4.198696044921875,0.020880021154880524,0.0335465669631958,-0.05833350867033005
1772794309965741000,4.208740966796875,0.024812422692775726,0.03601377457380295,-0.07797089964151382
1772794309975786200,4.2187861328125,0.022746874019503593,0.012268494814634323,-0.09947619587182999
1772794309985830100,4.228830078125,-0.001092744991183281,-0.011257967911660671,-0.11710208654403687
1772794309995875000,4.238875,-0.0308810006827116,-0.03280293941497803,-0.12635017931461334
1772794310005920300,4.248920166015625,-0.04130933806300163,-0.0556812584400177,-0.11566155403852463
1772794310015965000,4.25896484375,-0.04153997078537941,-0.06286486983299255,-0.08692524582147598
1772794310026009000,4.269009033203125,-0.03866435959935188,-0.058308687061071396,-0.04455089196562767
1772794310036054000,4.279053955078125,-0.03707525134086609,-0.0565805621445179,0.002378532662987709
1772794310046099200,4.28909912109375,-0.04463610798120499,-0.05648047477006912,0.04762560501694679
1772794310056144000,4.299143798828125,-0.04376738518476486,-0.056662898510694504,0.09089025110006332
1772794310066188000,4.30918798828125,-0.04293331131339073,-0.06087740510702133,0.12768934667110443
1772794310076233200,4.319233154296875,-0.03642561286687851,-0.05059733986854553,0.15913303196430206
1772794310086278100,4.329278076171875,-0.031310733407735825,-0.03201768919825554,0.18155434727668762
1772794310096323000,4.339322998046875,-0.02509145624935627,-0.020995397120714188,0.19988808035850525
1772794310106369000,4.349369140625,-0.025318901985883713,-0.022386472672224045,0.19601275026798248
1772794310116414000,4.3594140625,-0.018176835030317307,-0.021747581660747528,0.18371054530143738
1772794310126459100,4.369459228515625,-0.006810332648456097,-0.025314945727586746,0.15831692516803741
1772794310136504000,4.379504150390625,0.0007985848933458328,-0.04038284718990326,0.126369908452034
1772794310146548000,4.3895478515625,0.011114547029137611,-0.047239940613508224,0.09238249808549881
1772794310156593200,4.39959326171875,0.022526459768414497,-0.06104443594813347,0.05982828512787819
1772794310166638000,4.40963818359375,0.03700069710612297,-0.05419414862990379,0.031075388193130493
1772794310176683300,4.419683349609375,0.040700361132621765,-0.04786594584584236,0.002730834297835827
1772794310186727200,4.42972705078125,0.045892663300037384,-0.053813692182302475,-0.020539185032248497
1772794310196772000,4.439772216796875,0.04478345438838005,-0.033476196229457855,-0.03306536376476288
1772794310206817000,4.449817138671875,0.038413260132074356,-0.00814921222627163,-0.03443886712193489
1772794310216862200,4.4598623046875,0.04626026377081871,0.01122102327644825,-0.03726714476943016
1772794310226906000,4.469906005859375,0.05075877159833908,0.022911231964826584,-0.04072731360793114
1772794310236951000,4.479950927734375,0.07117323577404022,0.042953114956617355,-0.03257644549012184
1772794310246996200,4.489996337890625,0.08958711475133896,0.062533900141716,-0.02435009367763996
1772794310257041200,4.500041259765625,0.10901673883199692,0.08181305229663849,-0.011163449846208096
1772794310267085000,4.5100849609375,0.11762391030788422,0.09417305886745453,0.012769505381584167
1772794310277130200,4.520130126953125,0.11381665617227554,0.0857313722372055,0.029019048437476158
1772794310287175200,4.530175048828125,0.09291625022888184,0.05353262647986412,0.034940507262945175
1772794310297220000,4.54022021484375,0.06281640380620956,0.02289455384016037,0.02852015756070614
1772794310307265000,4.55026513671875,0.045112017542123795,0.002139902673661709,0.014919739216566086
1772794310317309200,4.56030908203125,0.036758482456207275,-0.009441385976970196,0.008771564811468124
1772794310327354000,4.57035400390625,0.03395022079348564,-0.01390707865357399,0.013834844343364239
1772794310337399000,4.58039892578125,0.028372760862112045,-0.021226776763796806,0.022090908139944077
1772794310347444000,4.59044384765625,0.015295146033167839,-0.03611517325043678,0.02669517509639263
1772794310357488000,4.600488037109375,-0.002126720268279314,-0.054784730076789856,0.030162876471877098
1772794310367533300,4.610533203125,-0.01154370978474617,-0.06732023507356644,0.040529798716306686
1772794310377578000,4.620577880859375,-0.012690466828644276,-0.04561493918299675,0.05944490060210228
1772794310387623200,4.630623046875,-0.009486235678195953,-0.019915757700800896,0.07895852625370026
1772794310397667000,4.6406669921875,-0.006829465739428997,0.0019466648809611797,0.08958986401557922
1772794310407712300,4.650712158203125,-0.016481783241033554,0.008888622745871544,0.09187813103199005
1772794310417757000,4.6607568359375,-0.030103322118520737,-0.003713721875101328,0.07864701002836227
1772794310427802000,4.670802001953125,-0.03534689173102379,-0.013632616028189659,0.05233817920088768
1772794310437846300,4.68084619140625,-0.031650692224502563,-0.02602936513721943,0.027917789295315742
1772794310447891000,4.690890869140625,-0.02871258743107319,-0.0309468861669302,0.008760267868638039
1772794310457936100,4.70093603515625,-0.02305550128221512,-0.026338286697864532,-0.0009794451761990786
1772794310467981000,4.71098095703125,-0.01596803031861782,-0.01711016520857811,0.008447612635791302
1772794310478025200,4.721025146484375,-0.011200971901416779,-0.005275344476103783,0.019804131239652634
1772794310488070000,4.73106982421875,-0.007942656055092812,0.013813285157084465,0.030756263062357903
1772794310498115000,4.741114990234375,-0.009777041152119637,0.01871989294886589,0.035097215324640274
1772794310508160000,4.751159912109375,-0.011919993907213211,0.017953865230083466,0.03606851026415825
1772794310518205200,4.761205078125,-0.015401278622448444,0.026150809600949287,0.02676182985305786
1772794310528249000,4.7712490234375,-0.021657127887010574,0.021959468722343445,0.006254801992326975
1772794310538293800,4.781293701171875,-0.02896643988788128,0.01664619706571102,-0.016437459737062454
1772794310548338700,4.791338623046875,-0.029147449880838394,0.014036355540156364,-0.0336647629737854
1772794310558383600,4.801383544921875,-0.03032616525888443,0.0008451859466731548,-0.05044614151120186
1772794310568427800,4.811427734375,-0.023676397278904915,-0.00497052539139986,-0.05942445993423462
1772794310578472700,4.82147265625,-0.0189045462757349,-0.0058083562180399895,-0.07132825255393982
1772794310588517600,4.831517578125,-0.013311035931110382,-0.013620521873235703,-0.07410646229982376
1772794310598562800,4.841562744140625,-0.010555995628237724,-0.015123076736927032,-0.07532752305269241
1772794310608606700,4.851606689453125,-0.012167751789093018,-0.012174532748758793,-0.07040295749902725
1772794310618651600,4.861651611328125,-0.020387599244713783,-0.016208423301577568,-0.057649876922369
1772794310628696600,4.871696533203125,-0.02458864077925682,-0.02031511813402176,-0.03901783004403114
1772794310638741800,4.88174169921875,-0.019316913560032845,-0.020662928000092506,-0.03130904212594032
1772794310648786000,4.891785888671875,-0.011082664132118225,-0.018275722861289978,-0.018964987248182297
1772794310658830600,4.90183056640625,-0.003919294103980064,-0.01131102442741394,-0.010292936116456985
1772794310668875800,4.911875732421875,0.0011311245616525412,-0.026851100847125053,-0.004704292863607407
1772794310678920700,4.921920654296875,0.00038224365562200546,-0.04543490335345268,-0.008027651347219944
1772794310688964900,4.93196484375,0.00035063072573393583,-0.06515754014253616,-0.016040118411183357
1772794310699009500,4.942009521484375,0.008468744345009327,-0.07758758217096329,-0.03338342159986496
1772794310709054700,4.9520546875,0.03184184804558754,-0.07721387594938278,-0.041377581655979156
1772794310719099600,4.962099609375,0.04952337220311165,-0.07141857594251633,-0.04448549076914787
1772794310729144800,4.972144775390625,0.05577187240123749,-0.06807012856006622,-0.04704825207591057
1772794310739188700,4.982188720703125,0.053174491971731186,-0.049858104437589645,-0.04121539741754532
1772794310749233700,4.992233642578125,0.0489426888525486,-0.03753688186407089,-0.029485847800970078
1772794310759278800,5.00227880859375,0.044942352920770645,-0.031195098534226418,-0.01298383716493845
1772794310769323800,5.01232373046875,0.05011739581823349,-0.011343469843268394,0.0021749897859990597
1772794310779367700,5.02236767578125,0.05970211327075958,0.009576193988323212,0.009097077883780003
1772794310789412900,5.032412841796875,0.06781496852636337,0.01834220439195633,-0.001831201370805502
1772794310799457800,5.042457763671875,0.06907225400209427,0.010631287470459938,-0.03367462009191513
1772794310809502700,5.052502685546875,0.07087868452072144,0.0044853524304926395,-0.067406065762043
1772794310819546600,5.062546630859375,0.06849516183137894,0.003518091980367899,-0.0877227857708931
1772794310829591800,5.072591796875,0.06311112642288208,-0.007748208474367857,-0.10780443996191025
1772794310839636700,5.08263671875,0.055056922137737274,-0.010942935943603516,-0.11280772089958191
1772794310849681700,5.092681640625,0.04559563845396042,0.00020607514306902885,-0.10965483635663986
1772794310859725800,5.102725830078125,0.041005413979291916,0.012816675007343292,-0.08686776459217072
1772794310869770800,5.112770751953125,0.040112774819135666,0.0356663353741169,-0.06326393783092499
1772794310879816000,5.12281591796875,0.03662749379873276,0.04814457520842552,-0.040568478405475616
1772794310889860600,5.132860595703125,0.029776256531476974,0.04917559027671814,-0.0369379036128521
1772794310899904800,5.14290478515625,0.027452915906906128,0.049325261265039444,-0.028257597237825394
1772794310909949700,5.15294970703125,0.032811932265758514,0.04723430424928665,-0.017677772790193558
1772794310919995000,5.162994873046875,0.03950365632772446,0.052494313567876816,-0.009849942289292812
1772794310930039600,5.17303955078125,0.04665486887097359,0.05792732536792755,-0.013729861006140709
1772794310940083700,5.183083740234375,0.05143524333834648,0.052423905581235886,-0.02337050437927246
1772794310950129000,5.19312890625,0.050696615129709244,0.04945388808846474,-0.03329142928123474
1772794310960173800,5.203173828125,0.04126875847578049,0.04785146191716194,-0.04536620154976845
1772794310970218800,5.21321875,0.0366816520690918,0.06430640071630478,-0.06358693540096283
1772794310980263700,5.223263671875,0.04565863311290741,0.07024046033620834,-0.09177064150571823
1772794310990307800,5.233307861328125,0.05151287466287613,0.0821034386754036,-0.11508456617593765
1772794311000352500,5.2433525390625,0.05195655673742294,0.07737606763839722,-0.13522951304912567
1772794311010397700,5.253397705078125,0.039373233914375305,0.06459273397922516,-0.13800524175167084
1772794311020442600,5.263442626953125,0.027720041573047638,0.04073507711291313,-0.1317116618156433
1772794311030486800,5.27348681640625,0.008635636419057846,0.009026631712913513,-0.1087898313999176
1772794311040531700,5.28353173828125,-0.003875895170494914,-0.002529356861487031,-0.0779336541891098
1772794311050576600,5.29357666015625,-0.01304208766669035,-0.0008965260349214077,-0.03150460124015808
1772794311060621800,5.303621826171875,-0.014647974632680416,0.0028311009518802166,0.0169990211725235
1772794311070665700,5.313665771484375,-0.015279294922947884,0.002718561328947544,0.060748979449272156
1772794311080710700,5.323710693359375,-0.01940346509218216,0.002981148660182953,0.0855182334780693
1772794311090755600,5.333755615234375,-0.022999349981546402,-0.0027846521697938442,0.11213771253824234
1772794311100800800,5.34380078125,-0.024710962548851967,0.002872701268643141,0.13603052496910095
1772794311110844700,5.3538447265625,-0.03056160919368267,0.004571001045405865,0.16089855134487152
1772794311120889600,5.3638896484375,-0.03398137539625168,0.0007403101772069931,0.16842783987522125
1772794311130934800,5.373934814453125,-0.04326224699616432,-0.0021821907721459866,0.16432520747184753
1772794311140979700,5.383979736328125,-0.045452430844306946,-0.005690372548997402,0.14437945187091827
1772794311151023600,5.394023681640625,-0.04277891293168068,-0.02095619961619377,0.1145785003900528
1772794311161068800,5.40406884765625,-0.040054500102996826,-0.02762981504201889,0.08739402145147324
1772794311171113700,5.41411376953125,-0.03536222502589226,-0.030245035886764526,0.06700055301189423
1772794311181158700,5.42415869140625,-0.020736942067742348,-0.03543154150247574,0.05152386054396629
1772794311191202600,5.43420263671875,-0.01604561135172844,-0.015654806047677994,0.029489627107977867
1772794311201247700,5.444247802734375,-0.009468935430049896,-0.00450281985104084,0.007254627998918295
1772794311211292700,5.454292724609375,-0.013608829118311405,0.00029049767181277275,-0.020009635016322136
1772794311221337900,5.464337890625,-0.01354464702308178,0.007961466908454895,-0.04097617045044899
1772794311231381800,5.4743818359375,-0.011040650308132172,0.012466900050640106,-0.05580407753586769
1772794311241426700,5.4844267578125,-0.009317850694060326,0.010892439633607864,-0.06233920902013779
1772794311251472000,5.494471923828125,-0.009047497995197773,0.0013153417967259884,-0.0667160376906395
1772794311261516800,5.504516845703125,-0.0043566059321165085,-0.009378049522638321,-0.06375540047883987
1772794311271560700,5.514560791015625,0.005936272442340851,-0.009613005444407463,-0.04141978174448013
1772794311281605600,5.524605712890625,0.010577096603810787,-0.0008115246891975403,-0.007537446916103363
1772794311291650800,5.53465087890625,0.017815619707107544,0.004925725515931845,0.022910436615347862
1772794311301695700,5.54469580078125,0.016544759273529053,0.015377834439277649,0.04780646786093712
1772794311311740700,5.55474072265625,0.005577538162469864,0.022734029218554497,0.06284093111753464
1772794311321784800,5.564784912109375,-0.000032410549465566874,0.01895606890320778,0.06963705271482468
1772794311331829800,5.574829833984375,-0.004740236792713404,0.019804811105132103,0.06331588327884674
1772794311341875000,5.584875,-0.014720965176820755,0.012097088620066643,0.04779843986034393
1772794311351919600,5.594919677734375,-0.019436493515968323,-0.004022819921374321,0.02359018661081791
1772794311361963800,5.6049638671875,-0.025407833978533745,-0.01937061734497547,0.004021812230348587
1772794311372008700,5.6150087890625,-0.020495261996984482,-0.01868271641433239,-0.0017184377647936344
1772794311382053600,5.6250537109375,-0.020223621279001236,-0.014340698719024658,0.009014900773763657
1772794311392098600,5.6350986328125,-0.021187737584114075,-0.015522878617048264,0.01850750856101513
1772794311402142700,5.645142822265625,-0.024859171360731125,-0.010732118040323257,0.02350599505007267
1772794311412188000,5.65518798828125,-0.024495024234056473,-0.009382796473801136,0.02138908952474594
1772794311422232600,5.665232666015625,-0.027376830577850342,-0.007969989441335201,0.022211473435163498
1772794311432277800,5.67527783203125,-0.02938906103372574,-0.006017089821398258,0.022944604977965355
1772794311442321700,5.68532177734375,-0.027261730283498764,-0.008630449883639812,0.025487923994660378
1772794311452366800,5.695366943359375,-0.017651068046689034,-0.005918561480939388,0.02837197110056877
1772794311462411500,5.70541162109375,-0.0031978273764252663,-0.003583235666155815,0.036576371639966965
1772794311472456700,5.715456787109375,0.005794607102870941,-0.00383212068118155,0.04156230762600899
1772794311482500900,5.7255009765625,0.011788317002356052,-0.010874051600694656,0.03254857286810875
1772794311492545800,5.7355458984375,0.021162107586860657,-0.013513630256056786,0.023445121943950653
1772794311502590700,5.7455908203125,0.018198542296886444,-0.025011830031871796,0.01217489130795002
1772794311512635600,5.7556357421875,0.017414260655641556,-0.03911704570055008,0.0015593034913763404
1772794311522679800,5.7656796875,0.015058962628245354,-0.042342666536569595,-0.004468495491892099
1772794311532724700,5.775724853515625,0.02083730697631836,-0.04459138214588165,-0.000025921734049916267
1772794311542770000,5.78577001953125,0.027301594614982605,-0.0391811728477478,0.009449605830013752
1772794311552814800,5.79581494140625,0.028823675587773323,-0.030622247606515884,0.02159137837588787
1772794311562860000,5.805860107421875,0.032919615507125854,-0.02019011229276657,0.02766205370426178
1772794311572904000,5.815904052734375,0.037138450890779495,-0.006378593854606152,0.028034623712301254
1772794311582948900,5.825948974609375,0.04335426911711693,0.00417604623362422,0.02391711063683033
1772794311592994000,5.835994140625,0.04613470286130905,0.009150996804237366,0.013482089154422283
1772794311603039000,5.8460390625,0.04380204156041145,0.009454596787691116,-0.002761063165962696
1772794311613083000,5.856082763671875,0.044677164405584335,-0.0004525221884250641,-0.011498209089040756
1772794311623128000,5.866128173828125,0.051891934126615524,-0.010659885592758656,-0.029317421838641167
1772794311633173000,5.876173095703125,0.06441827118396759,-0.0056259846314787865,-0.03644369915127754
1772794311643218000,5.886218017578125,0.07656921446323395,-0.005888838320970535,-0.0414363257586956
1772794311653261800,5.89626171875,0.0844264030456543,-0.016793042421340942,-0.04638117179274559
1772794311663307000,5.90630712890625,0.07674425095319748,-0.02452925778925419,-0.04053047299385071
1772794311673352000,5.91635205078125,0.06467825174331665,-0.02846764773130417,-0.03339974209666252
1772794311683397000,5.926397216796875,0.05642591416835785,-0.02359885536134243,-0.023545514792203903
1772794311693441000,5.93644091796875,0.04414460435509682,-0.018804803490638733,-0.013712862506508827
1772794311703486000,5.94648583984375,0.03340247645974159,-0.013905651867389679,-0.013817524537444115
1772794311713531100,5.95653125,0.02109096385538578,-0.013799695298075676,-0.024670317769050598
1772794311723575800,5.966575927734375,0.011317161843180656,-0.01688257046043873,-0.037171460688114166
1772794311733620000,5.976619873046875,-0.0033055292442440987,-0.01646493747830391,-0.04543578252196312
1772794311743665000,5.986664794921875,-0.009950648993253708,-0.012310406193137169,-0.057693514972925186
1772794311753710000,5.9967099609375,-0.007237707730382681,-0.007038626354187727,-0.07412019371986389
1772794311763754800,6.006754638671875,-0.012863369658589363,-0.011785977520048618,-0.0935218557715416
1772794311773799000,6.016798828125,-0.014778614044189453,-0.01115332543849945,-0.10919567197561264
1772794311783844000,6.026843994140625,-0.016720058396458626,-0.012906750664114952,-0.11264420300722122
1772794311793889000,6.036888916015625,-0.023243838921189308,-0.028166014701128006,-0.11401994526386261
1772794311803934000,6.046933837890625,-0.023694712668657303,-0.02902701497077942,-0.10016484558582306
1772794311813977900,6.056977783203125,-0.01213881652802229,-0.022245708853006363,-0.0781533345580101
1772794311824023000,6.06702294921875,0.005421268753707409,-0.0029897212516516447,-0.043318916112184525
1772794311834067700,6.077067626953125,0.004730465356260538,0.018650807440280914,-0.007945707067847252
1772794311844113000,6.08711279296875,-0.0003175563469994813,0.026353469118475914,0.019819077104330063
1772794311854157000,6.097156982421875,-0.013657544739544392,0.026712996885180473,0.043150462210178375
1772794311864202000,6.107201904296875,-0.02216634340584278,0.01904682256281376,0.05525772646069527
1772794311874247000,6.117246826171875,-0.028913874179124832,0.014584794640541077,0.058310505002737045
1772794311884291800,6.127291748046875,-0.03761015832424164,0.009214529767632484,0.05287712439894676
1772794311894336000,6.1373359375,-0.04163675755262375,0.008374573662877083,0.0534600131213665
1772794311904381000,6.147380859375,-0.040711041539907455,0.001833318267017603,0.04821758344769478
1772794311914425900,6.15742578125,-0.034065090119838715,0.0035511115565896034,0.04880819469690323
1772794311924470800,6.167470703125,-0.025240972638130188,0.008924571797251701,0.04323846101760864
1772794311934515000,6.177514892578125,-0.023447386920452118,0.014576064422726631,0.03451957553625107
1772794311944560000,6.18756005859375,-0.019525349140167236,0.01998680830001831,0.01768466830253601
1772794311954604800,6.197604736328125,-0.026749366894364357,0.020319653674960136,-0.005702410824596882
1772794311964650000,6.20764990234375,-0.04171979799866676,0.01696513593196869,-0.02587505616247654
1772794311974695000,6.21769482421875,-0.042108647525310516,0.00919291190803051,-0.039022207260131836
1772794311984738800,6.22773876953125,-0.043419189751148224,-0.0011934158392250538,-0.037393420934677124
1772794311994784000,6.237783935546875,-0.031045448035001755,-0.0007422827184200287,-0.021588284522294998
1772794312004829000,6.247828857421875,-0.019084125757217407,0.0007237875834107399,-0.009241870604455471
1772794312014873900,6.257873779296875,-0.009585398249328136,-0.0014527584426105022,0.006343938875943422
1772794312024917800,6.267917724609375,-0.0019607683643698692,0.001376050990074873,0.024680068716406822
1772794312034963000,6.277962890625,0.0009287717984989285,0.010150209069252014,0.043376676738262177
1772794312045008000,6.2880078125,0.004534958396106958,0.024049513041973114,0.059196118265390396
1772794312055053000,6.298052978515625,0.0050937519408762455,0.029993265867233276,0.058399152010679245
1772794312065097000,6.308096923828125,0.002800237387418747,0.020960355177521706,0.049791015684604645
1772794312075142000,6.318141845703125,0.0014452524483203888,0.005421930458396673,0.036856234073638916
1772794312085187000,6.32818701171875,0.009223546832799911,0.0054123434238135815,0.03447749838232994
1772794312095232000,6.33823193359375,0.01418148074299097,0.0008219019509851933,0.03428255394101143
1772794312105276000,6.34827587890625,0.019179169088602066,0.001403536181896925,0.02195824310183525
1772794312115320800,6.35832080078125,0.023194219917058945,0.0027895397506654263,0.00912237074226141
1772794312125366000,6.368365966796875,0.01679464429616928,0.00818723440170288,-0.005366024561226368
1772794312135411000,6.378410888671875,0.012024342082440853,0.003965445328503847,-0.02489524334669113
1772794312145454800,6.388454833984375,0.005032478366047144,0.003151583019644022,-0.03853489086031914
1772794312155500000,6.3985,-0.0009671221487224102,0.004790703300386667,-0.03793533518910408
1772794312165545000,6.408544921875,-0.007622361648827791,0.0006636031903326511,-0.03418879956007004
1772794312175590100,6.418590087890625,-0.006755555048584938,-0.009609810076653957,-0.025353461503982544
1772794312185633800,6.4286337890625,-0.011535130441188812,-0.00850672833621502,-0.014922392554581165
1772794312195679000,6.438678955078125,-0.00965034868568182,-0.007650146260857582,-0.002976135117933154
1772794312205724000,6.448723876953125,-0.009460198692977428,-0.0077992831356823444,0.008739111013710499
1772794312215769000,6.45876904296875,-0.011383747681975365,-0.011195875704288483,0.015572212636470795
1772794312225813000,6.46881298828125,-0.016506336629390717,-0.011044608429074287,0.024006178602576256
1772794312235858000,6.47885791015625,-0.009372611530125141,-0.005275992676615715,0.03550528734922409
1772794312245903000,6.488903076171875,-0.007634100504219532,0.0017073480412364006,0.034156929701566696
1772794312255947800,6.49894775390625,-0.007701848167926073,-0.004594230093061924,0.029693011194467545
1772794312265992000,6.508991943359375,-0.01010481920093298,-0.01646420545876026,0.01543391216546297
1772794312276036900,6.519036865234375,-0.012223598547279835,-0.021510574966669083,0.001478873542509973
1772794312286082000,6.52908203125,-0.006856529973447323,-0.021890873089432716,-0.007912497967481613
1772794312296126700,6.539126708984375,-0.0022513398434966803,-0.0248578991740942,-0.013675614260137081
1772794312306171000,6.5491708984375,0.004410823807120323,-0.02402326464653015,-0.012789314612746239
1772794312316216000,6.559216064453125,0.0019696978852152824,-0.02522057294845581,-0.011492357589304447
1772794312326261000,6.569260986328125,0.00010388699593022466,-0.021377097815275192,-0.006328222341835499
1772794312336306000,6.579305908203125,-0.005525602959096432,-0.02016923762857914,-0.0019608607981354
1772794312346350000,6.58935009765625,-0.010221554897725582,-0.024409256875514984,-0.004110564477741718
1772794312356395000,6.59939501953125,-0.015058523043990135,-0.02061697654426098,0.0014278931776061654
1772794312366440000,6.60943994140625,-0.011141279712319374,-0.01556629128754139,0.009731096215546131
1772794312376484900,6.61948486328125,-0.00843020249158144,-0.013971539214253426,0.012743359431624413
1772794312386529000,6.629529052734375,-0.002493749838322401,-0.0034576449543237686,0.015183613635599613
1772794312396574000,6.639573974609375,-0.0017311517149209976,-0.001364072784781456,0.014365876093506813
1772794312406619000,6.649618896484375,-0.00005069712642580271,-0.0020218738354742527,0.007605175022035837
1772794312416663800,6.659663818359375,0.0036378707736730576,-0.005400050897151232,-0.004003739915788174
1772794312426708000,6.6697080078125,0.0006836261600255966,-0.017447926104068756,-0.011729571036994457
1772794312436753200,6.679753173828125,-0.010081995278596878,-0.023737501353025436,-0.021992472931742668
1772794312446797800,6.6897978515625,-0.011208511888980865,-0.028130117803812027,-0.01628451980650425
1772794312456843000,6.699843017578125,-0.015374415554106236,-0.027812467887997627,-0.007553428877145052
1772794312466887000,6.709886962890625,-0.016558989882469177,-0.029304903000593185,-0.0012609115801751614
1772794312476932000,6.71993212890625,-0.020069025456905365,-0.03879470378160477,0.0023520849645137787
1772794312486976800,6.729976806640625,-0.02484007738530636,-0.04596952348947525,0.004623495042324066
1772794312497022000,6.74002197265625,-0.024836482480168343,-0.045429375022649765,0.009913184680044651
1772794312507066000,6.750066162109375,-0.026003478094935417,-0.04631940275430679,0.012180333957076073
1772794312517110800,6.76011083984375,-0.029322177171707153,-0.04815065488219261,0.014502757228910923
1772794312527156000,6.770156005859375,-0.028926432132720947,-0.044975101947784424,0.02130739949643612
1772794312537201000,6.780200927734375,-0.03161846473813057,-0.04182057827711105,0.02422824688255787
1772794312547246300,6.790246337890625,-0.028120938688516617,-0.04144959896802902,0.01869073510169983
1772794312557290500,6.80029052734375,-0.02698661759495735,-0.041150327771902084,0.012468709610402584
1772794312567335400,6.81033544921875,-0.025148237124085426,-0.040724754333496094,0.005730646196752787
1772794312577380400,6.82038037109375,-0.01985570602118969,-0.034568000584840775,0.006897035986185074
1772794312587425500,6.830425537109375,-0.013415650464594364,-0.03247981518507004,0.01216876320540905
1772794312597469400,6.840469482421875,-0.009587456472218037,-0.02262706868350506,0.015368329361081123
1772794312607514400,6.850514404296875,-0.005026526283472776,-0.0042456649243831635,0.023252883926033974
1772794312617559600,6.8605595703125,-0.000729651190340519,0.010162241756916046,0.02504267543554306
1772794312627604500,6.8706044921875,-0.0050897784531116486,0.014889884740114212,0.018446823582053185
1772794312637648400,6.8806484375,-0.0117335245013237,0.015783537179231644,0.003042911645025015
1772794312647693300,6.890693359375,-0.016716565936803818,0.01870795525610447,-0.013982410542666912
1772794312657738500,6.900738525390625,-0.011646021157503128,0.026466162875294685,-0.015707952901721
1772794312667783400,6.910783447265625,-0.01000578049570322,0.024290358647704124,-0.01230310183018446
1772794312677827300,6.920827392578125,-0.003989287652075291,0.013028020039200783,-0.007437501102685928
1772794312687872500,6.93087255859375,-0.0026625008322298527,0.012477012351155281,0.0030465649906545877
1772794312697917400,6.94091748046875,-0.00047079194337129593,0.00485908892005682,0.01300092600286007
1772794312707962600,6.950962646484375,0.0017553443321958184,0.003690226934850216,0.024960383772850037
1772794312718006300,6.96100634765625,-0.002119513461366296,0.011869756504893303,0.03399576619267464
1772794312728051500,6.971051513671875,-0.002313391538336873,0.010030044242739677,0.03731566295027733
1772794312738096400,6.981096435546875,-0.00015883194282650948,0.015764739364385605,0.03148399293422699
1772794312748141600,6.9911416015625,0.0031046057119965553,0.02349269948899746,0.019070729613304138
1772794312758185500,7.001185546875,-0.000639975187368691,0.017849769443273544,0.004303305875509977
1772794312768230400,7.01123046875,0.002525458112359047,0.011301057413220406,-0.005039329640567303
1772794312778275600,7.021275634765625,0.004488598555326462,0.0006686081178486347,-0.006298239808529615
1772794312788320500,7.031320556640625,0.01037311926484108,-0.0013593891635537148,-0.0030140294693410397
1772794312798364400,7.041364501953125,0.014593174681067467,0.0004149163141846657,0.01043135765939951
1772794312808409300,7.051409423828125,0.01877114176750183,0.0003222385421395302,0.0169606301933527
1772794312818454500,7.06145458984375,0.020711468532681465,-0.0007060114294290543,0.018236320465803146
1772794312828499200,7.071499267578125,0.01568581722676754,-0.0020277383737266064,0.013063929043710232
1772794312838543400,7.08154345703125,0.008907927200198174,0.0001886412501335144,0.007253705523908138
1772794312848588500,7.091588623046875,0.004040734842419624,0.008026057854294777,0.0044930726289749146
1772794312858633500,7.101633544921875,0.005613936111330986,0.018676523119211197,0.002199028618633747
1772794312868678400,7.111678466796875,0.0031875302083790302,0.025700876489281654,0.007596723269671202
1772794312878722300,7.121722412109375,0.006960288621485233,0.02983778715133667,0.012730198912322521
1772794312888767500,7.131767578125,0.008499063551425934,0.03644615411758423,0.01575768180191517
1772794312898812400,7.1418125,0.01011422835290432,0.030223248526453972,0.007963329553604126
1772794312908857300,7.151857421875,0.007963992655277252,0.019944513216614723,-0.008762920275330544
1772794312918901500,7.161901611328125,0.004274857230484486,0.010206444188952446,-0.021036863327026367
1772794312928946400,7.171946533203125,0.00603281008079648,0.017598047852516174,-0.02568328008055687
1772794312938991600,7.18199169921875,0.006639018189162016,0.025789350271224976,-0.02526329830288887
1772794312949036300,7.192036376953125,0.009159965440630913,0.024938736110925674,-0.024458490312099457
1772794312959080400,7.20208056640625,0.007068361155688763,0.01737498864531517,-0.024621929973363876
1772794312969125600,7.212125732421875,0.0020544277504086494,0.0044589233584702015,-0.013978341594338417
1772794312979170300,7.22217041015625,0.004399226978421211,-0.004630559589713812,-0.00765234837308526
1772794312989215500,7.232215576171875,0.0007347174687311053,-0.0034542412031441927,0.0077777402475476265
1772794312999259400,7.24225927734375,-0.003894572611898184,-0.011854591779410839,0.023387746885418892
1772794313009304600,7.2523046875,-0.0032237223349511623,-0.00987879280000925,0.04044875502586365
1772794313019349200,7.262349365234375,-0.003217873629182577,-0.011048826389014721,0.05129273235797882
1772794313029394400,7.27239453125,-0.003926274832338095,-0.008956380188465118,0.059380482882261276
1772794313039438600,7.2824384765625,-0.0023595162201672792,-0.008240042254328728,0.05710698291659355
1772794313049483500,7.2924833984375,0.003519678022712469,-0.002084412146359682,0.056168217211961746
1772794313059528400,7.302528564453125,0.004329279065132141,0.00023919623345136642,0.045102786272764206
1772794313069573400,7.312573486328125,0.00716421427205205,0.005369509570300579,0.03567706048488617
1772794313079617500,7.322617431640625,0.0014629915822297335,0.006295176222920418,0.01762162707746029
1772794313089662500,7.332662353515625,-0.0006297203944995999,0.005521527491509914,0.0020232261158525944
1772794313099707400,7.342707275390625,-0.003178621642291546,0.001000652089715004,-0.015192892402410507
1772794313109752300,7.35275244140625,-0.003579427022486925,-0.004314485006034374,-0.027621598914265633
1772794313119796500,7.36279638671875,0.0018708427669480443,-0.007034647278487682,-0.02390398271381855
1772794313129841400,7.37284130859375,0.010341026820242405,-0.0031972983852028847,-0.01431101094931364
1772794313139886300,7.38288623046875,0.012133991345763206,0.006534912157803774,0.0012583272764459252
1772794313149931500,7.392931640625,0.013550525531172752,0.018075719475746155,0.007912235334515572
1772794313159975400,7.402975341796875,0.005330413579940796,0.018695438280701637,0.008635017089545727
1772794313170020400,7.413020263671875,-0.004758972208946943,0.018496233969926834,0.012582621537148952
1772794313180065300,7.423065185546875,-0.010554961860179901,0.013632882386446,0.0075890072621405125
1772794313190110500,7.4331103515625,-0.018827538937330246,0.013297589495778084,0.0019130120053887367
1772794313200154600,7.443154541015625,-0.024075791239738464,0.003287872765213251,-0.005659047048538923
1772794313210199300,7.45319921875,-0.028554964810609818,-0.012999754399061203,-0.0171417985111475
1772794313220244500,7.463244384765625,-0.026309024542570114,-0.01052764244377613,-0.015286332927644253
1772794313230289400,7.473289306640625,-0.023078611120581627,-0.013157513923943043,-0.0031593628227710724
1772794313240333300,7.483333251953125,-0.023533571511507034,-0.02212614193558693,0.0072048199363052845
1772794313250378500,7.49337841796875,-0.02489205077290535,-0.03156411647796631,0.02515345998108387
1772794313260423400,7.50342333984375,-0.032589785754680634,-0.03954607993364334,0.04488946869969368
1772794313270468400,7.51346826171875,-0.0320851169526577,-0.03732447326183319,0.06880465149879456
1772794313280512300,7.52351220703125,-0.025782940909266472,-0.044529028236866,0.0979740172624588
1772794313290557400,7.533557373046875,-0.024716611951589584,-0.04931739345192909,0.11706941574811935
1772794313300602400,7.543602294921875,-0.020779022946953773,-0.05523572862148285,0.12098552286624908
1772794313310647600,7.5536474609375,-0.013852142728865147,-0.05667996034026146,0.11405357718467712
1772794313320691500,7.56369140625,-0.014363119378685951,-0.049407076090574265,0.0989549458026886
1772794313330736400,7.573736328125,-0.01868889294564724,-0.046629130840301514,0.08142761886119843
1772794313340781600,7.583781494140625,-0.02484521083533764,-0.04177872836589813,0.06578085571527481
1772794313350826500,7.593826416015625,-0.027160828933119774,-0.02346017211675644,0.04840026795864105
1772794313360870400,7.603870361328125,-0.021124128252267838,-0.0012317192740738392,0.04038636386394501
1772794313370915300,7.613915283203125,-0.018818097189068794,0.0054208566434681416,0.031215501949191093
1772794313380960500,7.62396044921875,-0.012502186000347137,0.010956074111163616,0.01190164778381586
1772794313391005400,7.63400537109375,-0.007837393321096897,0.020972754806280136,-0.01027369499206543
1772794313401049300,7.64404931640625,-0.003639666363596916,0.026994699612259865,-0.03363657742738724
1772794313411094500,7.654094482421875,-0.005009330343455076,0.032048314809799194,-0.05482868105173111
1772794313421139500,7.664139404296875,-0.003468242008239031,0.04337520897388458,-0.06942189484834671
1772794313431183400,7.674183349609375,-0.004152674227952957,0.05259294435381889,-0.08431828767061234
1772794313441228300,7.684228271484375,-0.006009921431541443,0.0615149661898613,-0.09110713750123978
1772794313451273500,7.6942734375,-0.006776911672204733,0.06945358216762543,-0.09480946511030197
1772794313461318400,7.704318359375,-0.009138962253928185,0.06617505848407745,-0.09668916463851929
1772794313471362300,7.7143623046875,-0.012492414563894272,0.05575784295797348,-0.09581218659877777
1772794313481407500,7.724407470703125,-0.010193850845098495,0.04533279314637184,-0.0888252705335617
1772794313491452400,7.734452392578125,-0.005146894138306379,0.04301876947283745,-0.07630468159914017
1772794313501497600,7.74449755859375,0.002117420546710491,0.04378027468919754,-0.06452883780002594
1772794313511541200,7.754541259765625,0.001420737593434751,0.035259224474430084,-0.057193953543901443
1772794313521586400,7.76458642578125,0.001547770225442946,0.02777174673974514,-0.052995216101408005
1772794313531631400,7.77463134765625,-0.003187329974025488,0.01736730895936489,-0.04317108169198036
1772794313541676300,7.78467626953125,-0.010651493445038795,0.0013672071509063244,-0.027877872809767723
1772794313551720400,7.794720458984375,-0.006211204454302788,0.0043286425061523914,-0.013830496929585934
1772794313561765400,7.804765380859375,-0.0021960707381367683,0.008490515872836113,-0.006469599902629852
1772794313571810300,7.814810302734375,0.007524999789893627,0.016505567356944084,-0.005611529108136892
1772794313581855200,7.824855224609375,0.012692034244537354,0.01959717459976673,-0.008013092912733555
1772794313591899400,7.8348994140625,0.01089786272495985,0.016925757750868797,-0.015040642581880093
1772794313601944300,7.8449443359375,0.007548332214355469,0.0017447229474782944,-0.016374090686440468
1772794313611989200,7.8549892578125,0.01309170201420784,0.004401758313179016,-0.018830057233572006
1772794313622034400,7.865034423828125,0.011480696499347687,-0.005048987455666065,-0.016584891825914383
1772794313632078300,7.875078369140625,0.010463635437190533,0.006874783430248499,-0.0016671938356012106
1772794313642123500,7.88512353515625,-0.009656771086156368,-0.0024612974375486374,0.029693469405174255
1772794313652168200,7.895168212890625,-0.0031147159170359373,0.025280587375164032,0.050626181066036224
1772794313662213400,7.90521337890625,0.009393474087119102,0.02533021569252014,0.07324200868606567
1772794313672257500,7.915257568359375,0.00035257451236248016,0.008697444573044777,0.0868062898516655
1772794313682302200,7.92530224609375,-0.01503559947013855,-0.0016004601493477821,0.08598276227712631
1772794313692347400,7.935347412109375,-0.016573041677474976,-0.002467851620167494,0.07599324733018875
1772794313702392300,7.945392333984375,-0.018460506573319435,-0.00916709192097187,0.07031256705522537
1772794313712436500,7.9554365234375,-0.023750077933073044,-0.02155372127890587,0.04371850565075874
1772794313722481200,7.965481201171875,-0.02155637927353382,-0.028318412601947784,0.003711933735758066
1772794313732526300,7.9755263671875,-0.025429947301745415,-0.052274346351623535,-0.03539977967739105
1772794313742571300,7.9855712890625,-0.024985620751976967,-0.057706404477357864,-0.058975838124752045
1772794313752615400,7.995615478515625,-0.037042286247015,-0.02422807365655899,-0.05322607234120369
