time,seconds_elapsed,z,y,x
1772794187467035400,0.060035400390625,-0.4216086247682571,0.126210550943017,-0.06714695207774639
1772794187477080000,0.070080078125,-0.37214229080975053,0.05832680902332067,-0.21704408355653285
1772794187487125200,0.080125244140625,-0.177968210709095,-0.002083418677933514,-0.2397016498381272
1772794187497169200,0.090169189453125,0.05407002836167812,0.005904219075106084,-0.16632815139573068
1772794187507214000,0.100214111328125,0.2359294012904167,0.08658460646476596,-0.02626114373151213
1772794187517259000,0.110259033203125,0.3418628878802061,0.1387483628137037,0.08038969734739512
1772794187527304200,0.12030419921875,0.4380044637739658,0.1768063273228705,0.07364778533913195
1772794187537348400,0.130348388671875,0.5662105724483728,0.12880674144867807,0.021782975404150782
1772794187547393000,0.14039306640625,0.6430126570999622,0.049529279659502205,0.060624089647643264
1772794187557438200,0.150438232421875,0.6520756689995527,0.010769779284857213,0.11633311738800257
1772794187567483100,0.160483154296875,0.6198468855679035,-0.012935067559964954,0.0953624082148075
1772794187577527300,0.17052734375,0.6186626442193984,-0.012339658950082957,0.05254570487122982
1772794187587572200,0.180572265625,0.5794850645631552,-0.015980938061885535,0.025708405219577252
1772794187597617200,0.1906171875,0.49244800162315366,-0.020924458878673613,0.0599418064719066
1772794187607662000,0.200662109375,0.36794074746668337,0.06672814214378595,0.1304117289599031
1772794187617707300,0.210707275390625,0.2618868493676185,0.19171921602813527,0.22750344518534837
1772794187627751200,0.220751220703125,0.2574012283861637,0.2381356791630387,0.20082758317310362
1772794187637796000,0.230796142578125,0.3083779669076204,0.115714985489659,0.27717143919579684
1772794187647841300,0.24084130859375,0.3059334963649511,0.046618031855300064,0.2962133722634986
1772794187657886200,0.25088623046875,0.08045593098402024,0.006795414027478545,0.2223282345045358
1772794187667930000,0.26093017578125,-0.2336070958226919,-0.09283646993376314,0.11241703992281109
1772794187677975300,0.270975341796875,-0.4036801693677902,-0.12079451724365353,0.0073498513061553234
1772794187688020200,0.281020263671875,-0.5138339040011167,-0.22231135643497107,0.017477387164719402
1772794187698065400,0.2910654296875,-0.4695511101603508,-0.25439558029677717,-0.05310684588532895
1772794187708109000,0.301109130859375,-0.39741292566657066,-0.36168804374746977,-0.09582001578919588
1772794187718154200,0.311154296875,-0.35646892085969445,-0.5003812788404524,-0.12635343001242727
1772794187728199200,0.32119921875,-0.269245395436883,-0.5674889583537355,-0.18740381878074258
1772794187738244400,0.331244384765625,-0.15936170991659163,-0.5914786500219256,-0.19650044068899006
1772794187748288300,0.341288330078125,-0.08219663717150688,-0.6160969584498555,-0.17576430745664984
1772794187758333200,0.351333251953125,-0.07771276975572108,-0.6053158905860037,-0.25862258687466383
1772794187768378400,0.36137841796875,-0.06929974619746208,-0.5803752183359115,-0.3390565617552027
1772794187778423000,0.371423095703125,-0.07795300825238227,-0.5544676007498055,-0.3870014217674732
1772794187788467200,0.38146728515625,-0.06108487555980682,-0.6097655634712428,-0.4153587340606376
1772794187798512000,0.39151220703125,-0.04881751466095447,-0.6560626197438687,-0.3968777593439445
1772794187808557300,0.401557373046875,0.005094108268618583,-0.4145598022352904,-0.2283859271083027
1772794187818602000,0.41160205078125,-0.057870005166530604,-0.5043400994688272,-0.23307076045628636
1772794187828647200,0.421647216796875,-0.15244097074270246,-0.5886536191964522,-0.2418694223312661
1772794187838691300,0.43169140625,-0.1746305907189846,-0.37750042030941694,-0.2347972919879481
1772794187848736300,0.441736328125,-0.184904147452116,-0.30333116837944835,-0.16257495460836216
1772794187858781200,0.45178125,-0.16137012712955473,-0.29030301570855077,-0.05171665190225467
1772794187868826000,0.461826171875,-0.013515899655222891,-0.29359270490370687,-0.14744204821055754
1772794187878870300,0.471870361328125,0.08483049280643462,-0.20985744172176346,-0.017784845678694546
1772794187888915200,0.481915283203125,-0.02329495086967945,-0.22107819791082292,0.07712105094026774
1772794187898960100,0.491960205078125,-0.1310071375697851,-0.14682194355083628,-0.09157371998894959
1772794187909005000,0.502005126953125,-0.24295009370744228,-0.12068201504619791,-0.24392332265377042
1772794187919049200,0.51204931640625,-0.32551439514756203,-0.11392042108993046,-0.2649648685734719
1772794187929094100,0.52209423828125,-0.42120588918626306,-0.0679223386307247,-0.16570764487721024
1772794187939139000,0.53213916015625,-0.48820437270402905,-0.05959018002264201,-0.11112473508995026
1772794187949184300,0.542184326171875,-0.4259492843210697,-0.11531509945187716,-0.1765689383704215
1772794187959228200,0.552228271484375,-0.17285890487134456,-0.19889840520881116,-0.34262693105526265
1772794187969273000,0.562273193359375,0.06421031410396098,-0.27562092181816694,-0.4225854339111596
1772794187979318000,0.572318115234375,0.05597556972205638,-0.3344153483532369,-0.378645864017494
1772794187989363200,0.58236328125,-0.03060439710021019,-0.293053830520343,-0.35732151910103854
1772794187999407400,0.592407470703125,-0.09799801741540431,-0.22606782289166003,-0.3212618522696197
1772794188009452000,0.6024521484375,-0.06849836668670177,-0.22699807121278717,-0.2558325908299535
1772794188019497200,0.612497314453125,0.03405541433691978,-0.22649812233401462,-0.19076091065630316
1772794188029542100,0.622542236328125,0.1170651214569807,-0.27814669570242984,-0.11404160891734062
1772794188039587300,0.63258740234375,0.15663374625742435,-0.31529519895017144,-0.027494448386132714
1772794188049631200,0.64263134765625,0.18988193586468696,-0.2745635765186511,0.05658573750965297
1772794188059676200,0.65267626953125,0.24938275710344313,-0.24636770186489446,0.11398038024939595
1772794188069721300,0.662721435546875,0.42374680584073066,-0.22944007580373435,0.0423733069576323
1772794188079766300,0.672766357421875,0.45228257997334,-0.16269414227493106,0.3665521426524967
1772794188089810200,0.68281005859375,0.3898538885891437,-0.12247048763185739,0.5005327430751174
1772794188099855000,0.692855224609375,0.3649585167855024,-0.03749773681052029,0.450743460772559
1772794188109900300,0.702900390625,0.2901490672558546,-0.04307279699649662,0.3625903263494372
1772794188119945200,0.7129453125,0.24398002127707002,-0.06104194973353296,0.2544805186338723
1772794188129989000,0.722989013671875,0.2133686099141836,-0.06245068402029574,0.2045512433387339
1772794188140034300,0.733034423828125,0.15546704056560992,-0.08299030829984694,0.19849654640965161
1772794188150079200,0.743079345703125,0.15451543892920017,-0.07234298635087907,0.14348733750171958
1772794188160124400,0.75312451171875,0.21677228087782857,-0.019063231584057212,0.08487798520997167
1772794188170169000,0.763169189453125,0.2891559645652771,0.021719554779119788,0.03883731485120952
1772794188180213200,0.773213134765625,0.3569979131698608,0.08938402792494743,0.012051160864904523
1772794188190258200,0.783258056640625,0.3736801679015159,0.12217837281748652,-0.012904343628138302
1772794188200303000,0.79330322265625,0.35450901896357534,0.12062274087332188,-0.05222505808211863
1772794188210348000,0.80334814453125,0.37480361897349357,0.1140569526169449,-0.132992612298578
1772794188220392200,0.81339208984375,0.39211423473656176,0.06812339589446782,-0.2077707899071276
1772794188230437400,0.823437255859375,0.3358616016387939,0.04346672821752727,-0.24065401865951716
1772794188240482000,0.83348193359375,0.18280279125869273,0.11197983581563457,-0.20569931739531455
1772794188250527200,0.84352734375,-0.0545154340416193,0.2196729159564711,-0.15164426740705966
1772794188260571100,0.853571044921875,-0.2839128032147884,0.3223589267913252,-0.04656440197192132
1772794188270616300,0.8636162109375,-0.42266544034481046,0.41526627000421285,0.0004275777623057365
1772794188280661000,0.873660888671875,-0.4245452627420425,0.490407508771494,-0.0018517653465270996
1772794188290706200,0.8837060546875,-0.3602145371288061,0.5669015869198367,0.035612653716281056
1772794188300750300,0.893750244140625,-0.27199381736218925,0.5912805336339398,0.05059409587942063
1772794188310795000,0.903794921875,-0.20024375540316103,0.5396915814982727,0.017107348275929687
1772794188320840200,0.913840087890625,-0.16717442949414252,0.43141723087076095,-0.043590719923377035
1772794188330885000,0.923885009765625,-0.1542050578057766,0.2799514253031462,-0.14112141208797693
1772794188340929300,0.93392919921875,-0.13094985442459584,0.13132550107026472,-0.2281671697910875
1772794188350974200,0.94397412109375,-0.0424070630967617,0.00574047988075763,-0.2949700576715171
1772794188361019100,0.95401904296875,0.06612111616134643,0.023472663790453225,-0.27797406081557274
1772794188371064000,0.96406396484375,0.21801672798097133,-0.06660431483471765,-0.3209499733088538
1772794188381109200,0.974109130859375,0.2866717465341091,-0.25199841949455437,-0.39849651965219524
1772794188391153200,0.984153076171875,0.3527110296308994,-0.25599654922001064,-0.40433337257951496
1772794188401198000,0.994197998046875,0.2948620672523975,-0.3424809101806953,-0.39129875363521277
1772794188411243300,1.0042431640625,0.20109306570887564,-0.4105830806240439,-0.37251506964489817
1772794188421288200,1.0142880859375,0.12901099531650542,-0.42265396910272535,-0.3386242347525433
1772794188431332400,1.024332275390625,0.09588906243741512,-0.4583732980638742,-0.29396778529379514
1772794188441377300,1.034377197265625,0.029233693268895147,-0.4074135837424546,-0.18681641081422568
1772794188451422500,1.04442236328125,-0.009558101940155028,-0.32702136564441026,-0.12766458567623049
1772794188461467400,1.05446728515625,0.029066520008444785,-0.20427560473512857,-0.13743709755204617
1772794188471511300,1.06451123046875,-0.0020499182671308517,-0.11331574232820421,0.14778189289048313
1772794188481556500,1.074556396484375,-0.0802040020495653,0.022069171934388575,0.3656337126333266
1772794188491601400,1.084601318359375,-0.0876858822375536,0.1930962948013097,0.3681399598332122
1772794188501646600,1.094646484375,-0.11725976724624633,0.2610362786865793,0.38743922866284847
1772794188511691300,1.104691162109375,-0.16216156976819038,0.3126669693384319,0.42757125949971375
1772794188521735400,1.1147353515625,-0.15072656804025172,0.3104159024760127,0.3499563606278971
1772794188531780600,1.124780517578125,-0.17379180180728435,0.33983956535905596,0.37931587223354724
1772794188541825500,1.134825439453125,-0.2862655038207769,0.3203568297212943,0.43189642922244964
1772794188551870500,1.144870361328125,-0.33293197792768475,0.33921620929632335,0.34374702112637456
1772794188561914400,1.154914306640625,-0.30582769790291786,0.3620460999375209,0.2708530132966116
1772794188571959600,1.16495947265625,-0.23678455681502816,0.3756032449185848,0.25200353406108916
1772794188582004500,1.17500439453125,-0.15357845034003256,0.36893227925468236,0.2240619264293462
1772794188592049400,1.18504931640625,-0.06370820980072021,0.3443302278418094,0.12668324648868293
1772794188602093600,1.195093505859375,0.05059153859615326,0.28144674189481883,0.011343487519584595
1772794188612138500,1.205138427734375,0.18071955524384975,0.17497790631931273,-0.06996204603109508
1772794188622183400,1.215183349609375,0.2748462841838598,0.13505909810801967,-0.0822528608707711
1772794188632228400,1.225228271484375,0.39006607003509997,-0.01131823434731923,-0.14436192837916315
1772794188642272500,1.2352724609375,0.434497916957736,-0.13759577697878703,-0.1553453869473189
1772794188652317400,1.2453173828125,0.3826747907400131,-0.14218646576991303,-0.15769005037732423
1772794188662362400,1.2553623046875,0.31098668810129165,-0.17007745745927094,-0.15608119040857998
1772794188672407300,1.2654072265625,0.27173779677450655,-0.21738423876371232,-0.22282748926356433
1772794188682452500,1.275452392578125,0.33983401240110395,-0.263682591944281,-0.36020142191890625
1772794188692496600,1.28549658203125,0.29397125589251516,-0.34230942607130854,-0.24894896879605946
1772794188702541300,1.295541259765625,0.16833178283572195,-0.3177101511374116,-0.1824037089385092
1772794188712586500,1.30558642578125,0.08378478314578533,-0.15919552303683013,-0.10436974440440534
1772794188722631400,1.31563134765625,0.05487959117889404,-0.08356310321912169,0.04552618149798363
1772794188732675600,1.325675537109375,0.021688100194931028,-0.06719286444555037,0.07548318407274782
1772794188742720300,1.33572021484375,-0.009805354699492454,-0.018061826856015248,0.05695303645208478
1772794188752765400,1.345765380859375,0.00859773247539997,0.031932264153508,0.011558847303315996
1772794188762810400,1.355810302734375,0.0214759187489748,0.02536867470408324,-0.00165828860104084
1772794188772854300,1.365854248046875,0.07693944729566574,0.06609932445464656,0.051551798463054
1772794188782899500,1.3758994140625,0.08347615558803081,0.1073624416806735,0.1040575366500765
1772794188792944400,1.3859443359375,0.001975099465250969,0.15028247753456234,0.13991853910423815
1772794188802989600,1.395989501953125,-0.06638707362115383,0.22820457919202744,0.18486830895375458
1772794188813033200,1.406033203125,-0.15360475382506847,0.32953082771468906,0.14562113466002047
1772794188823078400,1.416078369140625,-0.22672142796218395,0.33065215989481656,0.11445724051352589
1772794188833123300,1.426123291015625,-0.2778524802625179,0.26597536079026757,0.13940576727651058
1772794188843168500,1.43616845703125,-0.29014205299317836,0.1962780666425824,0.1546217123152688
1772794188853212400,1.44621240234375,-0.2643774971395731,0.06674535814006813,0.08239953933246433
1772794188863257300,1.45625732421875,-0.23116554788947105,-0.031413640257017685,-0.023581403128243982
1772794188873302500,1.466302490234375,-0.178839148324728,-0.14011569651099853,-0.11630036589587106
1772794188883347500,1.476347412109375,-0.10005436542332172,-0.0985783837197814,-0.09557544817728922
1772794188893392400,1.486392333984375,0.0004196867167949676,0.0714922330067493,0.14733268781825898
1772794188903436500,1.4964365234375,0.039976036557555196,-0.044355639881268144,0.17014822114054112
1772794188913481500,1.5064814453125,0.05165595295727252,-0.015316994260437786,0.18560951924249527
1772794188923526400,1.5165263671875,-0.07090835043787956,-0.000015891688875854015,0.17693915992230175
1772794188933571300,1.5265712890625,-0.08144260393381118,-0.08468469112757593,0.12961524481996894
1772794188943615500,1.536615478515625,0.03502513615190982,-0.0956101358981803,0.10685904046948999
1772794188953660400,1.546660400390625,0.08074819192886352,-0.16900358115006237,0.08848696948736906
1772794188963705600,1.55670556640625,0.11747487130165099,-0.27449286763630804,-0.008680734583735465
1772794188973750300,1.566750244140625,0.12034019760489463,-0.3045706287802197,-0.07572119407970458
1772794188983794400,1.57679443359375,0.08576514330804348,-0.40832583974916487,-0.14898374296091496
1772794188993839600,1.586839599609375,0.013320669344067573,-0.43995446533057836,-0.2245421111617237
1772794189003884300,1.59688427734375,-0.019876082336902617,-0.31626192509047685,-0.20516334735509006
1772794189013929500,1.606929443359375,-0.011547814452648162,-0.20709663523891939,-0.16915307262334972
1772794189023973400,1.616973388671875,-0.012616320466995238,-0.188258956039045,-0.1722030713111162
1772794189034018600,1.6270185546875,0.05867547633051872,-0.16232611268013714,-0.18402678009569645
1772794189044063200,1.637063232421875,0.09160451698601245,-0.10503381607001647,-0.2059716315306723
1772794189054108400,1.6471083984375,0.04967793088257313,-0.06497581858374178,-0.19868081693537532
1772794189064153300,1.6571533203125,-0.03866963013410568,-0.05883404615940526,-0.16545999025907365
1772794189074197500,1.667197509765625,-0.11444704791307449,-0.04052769735725596,-0.13733685204796492
1772794189084242400,1.677242431640625,-0.11236088928878307,0.02375071354685351,-0.13112232491467146
1772794189094287400,1.687287353515625,-0.08043488819599151,0.0514428033969365,-0.08735898837074636
1772794189104332500,1.69733251953125,-0.01406710379719734,0.05834175086412578,-0.044871078590117394
1772794189114376400,1.70737646484375,0.08444880001246928,0.04882460198886692,-0.0813360017541796
1772794189124421400,1.71742138671875,0.16001111373603344,0.03572029707552865,-0.1215983444398269
1772794189134466300,1.72746630859375,0.1091220534980297,0.027177473125141113,-0.06520875055678188
1772794189144511500,1.737511474609375,-0.05145838455855846,0.04128366682371124,-0.012152794608473776
1772794189154555400,1.747555419921875,-0.175541860345006,0.0506676269065123,-0.014517295250110328
1772794189164600300,1.757600341796875,-0.2059229700833559,0.05579760107295587,-0.04474069367609918
1772794189174645500,1.7676455078125,-0.19204642042219638,0.029715704632177948,-0.1113680423265323
1772794189184690400,1.7776904296875,-0.17335341039001942,-0.01944925349326804,-0.18407339571639894
1772794189194734300,1.787734375,-0.13383856160342691,-0.05411616905834526,-0.2086922156009823
1772794189204779300,1.797779296875,-0.06361351725459098,-0.0474069446101319,-0.18193890443835406
1772794189214824400,1.807824462890625,0.020718378379940984,-0.04022255866453051,-0.15157354025840758
1772794189224869400,1.817869384765625,0.08862813152372837,-0.0019351601805072277,-0.1631831679008901
1772794189234913300,1.827913330078125,0.1276180796533823,0.015604496831772847,-0.14941175911463797
1772794189244958500,1.83795849609375,0.1501876388579607,-0.008407182905939408,-0.10534165817648172
1772794189255003400,1.84800341796875,0.16882395026683805,-0.011756648597470484,-0.06196224291622638
1772794189265048600,1.858048583984375,0.17869769402742386,-0.02960558162147645,-0.037396395327895876
1772794189275093200,1.86809326171875,0.21220716491937636,-0.03264732393755112,-0.04519252909682691
1772794189285137400,1.878137451171875,0.22094752073585985,0.0037160157152917235,0.0619731296364218
1772794189295182600,1.8881826171875,0.1532417657315731,0.02560831954570021,0.1542726431492716
1772794189305227500,1.8982275390625,0.13429215058982372,0.05075244651259854,0.1955576434135437
1772794189315272400,1.9082724609375,0.12453472668528556,0.018269079823460196,0.23913075461499392
1772794189325316400,1.91831640625,0.1797539250820875,-0.05236077219180297,0.22212430943027137
1772794189335361500,1.928361572265625,0.17687281668782234,-0.06985008725633379,0.17420242843478917
1772794189345406500,1.938406494140625,0.14899462968111038,-0.030728028046456163,0.19041326626241206
1772794189355451400,1.948451416015625,0.159372231310606,0.0321717879808275,0.1907186789497733
1772794189365495600,1.95849560546875,0.13624679178893565,0.07523186705964617,0.19153788637816904
1772794189375540500,1.96854052734375,0.09520517182648182,0.1254105962043628,0.16918898418694733
1772794189385585700,1.978585693359375,0.027118893072009084,0.11550760808298363,0.0980701328035444
1772794189395630300,1.98863037109375,-0.006731354081630707,0.14359240531139075,-0.013486600495502352
1772794189405674500,1.998674560546875,-0.12572948942780493,0.0800427744727116,0.0013282529290765523
1772794189415719400,2.008719482421875,-0.1508452259838581,0.024592500416527035,-0.08906104304827749
1772794189425764400,2.018764404296875,-0.10376783298850059,-0.021212080181017518,-0.2123688582871109
1772794189435809300,2.028809326171875,-0.08827741838991641,-0.06418588748218025,-0.2943297870066017
1772794189445853400,2.038853515625,-0.14523673845231533,-0.03054330086300615,-0.26089981109164656
1772794189455898600,2.048898681640625,-0.20635084010660648,0.03025675042303046,-0.19101400863453744
1772794189465943300,2.058943359375,-0.1844505584657192,0.09682934809536672,-0.14194149629920721
1772794189475988500,2.068988525390625,-0.15655132867097854,0.10489362214803695,-0.09486519928239286
1772794189486032400,2.079032470703125,-0.12806699246466158,0.10296892856261693,-0.07072437217310071
1772794189496077600,2.08907763671875,-0.11620178262591362,0.06601847777077928,0.006719079121947288
1772794189506122200,2.099122314453125,-0.12743337073624134,0.008876279988721944,0.11215119206085801
1772794189516167400,2.10916748046875,-0.06649111851751804,-0.057931347998906854,0.14974062574282287
1772794189526212400,2.11921240234375,0.060635962748527526,-0.09506684106802567,0.10731851120740174
1772794189536256500,2.129256591796875,0.18690905753374099,-0.07936212613163515,0.24186120249219237
1772794189546301400,2.139301513671875,0.15870061565935611,-0.08967522029071115,0.3901588628850877
1772794189556346400,2.149346435546875,0.1326759475648403,-0.010457206204347312,0.4144396099217236
1772794189566391600,2.1593916015625,0.09010930999219417,-0.0964942069900222,0.3512533781684935
1772794189576435200,2.169435302734375,0.09871230316460132,-0.22313191557023673,0.2810962114240974
1772794189586480400,2.17948046875,0.20186814173460005,-0.16928864516913888,0.2244758409924805
1772794189596525300,2.189525390625,0.2629687993854284,-0.13582038307040928,0.17512743432521818
1772794189606570500,2.199570556640625,0.2714811916649341,-0.11903074984098784,0.18456614766940474
1772794189616614400,2.209614501953125,0.16635492980480193,-0.06977163802552967,0.20368322833254932
1772794189626659300,2.219659423828125,0.04490180252194404,-0.037850842830818146,0.13077932016327976
1772794189636704500,2.22970458984375,-0.04362812932431698,0.001865885203424841,0.02700849150009453
1772794189646749400,2.23974951171875,-0.10924071144163608,0.006344236193876713,-0.01215476736985147
1772794189656793300,2.24979345703125,-0.19751988339722154,-0.04589285938590765,-0.055634793460369106
1772794189666838500,2.259838623046875,-0.2023375128120184,-0.07638401450314558,-0.11599113554991781
1772794189676883500,2.269883544921875,-0.19458733707666395,-0.09341735682794823,-0.1923752870503813
1772794189686928400,2.279928466796875,-0.163930333006382,-0.10346624709288589,-0.2545537300005555
1772794189696972300,2.28997216796875,-0.13889876760244368,-0.11902498682048171,-0.32652035731971263
1772794189707017500,2.300017578125,-0.05905483103692531,-0.08183970435946249,-0.33941615231521427
1772794189717062400,2.3100625,0.05222177014648914,-0.044212861276557665,-0.35311610330045223
1772794189727107600,2.320107666015625,0.15224515590965748,0.02242473477325402,-0.2990913753852248
1772794189737152300,2.33015234375,0.14558978967368602,0.0683496971973218,-0.2161879051186144
1772794189747196400,2.340196533203125,0.05553367117345333,0.13470778218600898,-0.1068618534810841
1772794189757241600,2.35024169921875,-0.021836568754911422,0.17882058975473045,-0.06772190242148936
1772794189767286500,2.36028662109375,-0.022790508478879926,0.15516743656452744,-0.053639308794215315
1772794189777331500,2.37033154296875,0.023466800305247306,0.11753375274888239,-0.08369155190438031
1772794189787375400,2.380375244140625,0.08621580968499183,0.024756712251622227,-0.09323927858099341
1772794189797420500,2.390420654296875,0.18572247809767722,-0.07955783136682584,-0.1068185988612473
1772794189807465500,2.400465576171875,0.2698708338588476,-0.1271046319722198,-0.11358889671377836
1772794189817510400,2.410510498046875,0.3324976781636476,-0.13155602189050986,-0.0800398975290358
1772794189827554600,2.420554443359375,0.34369828661382196,-0.13623740290608255,-0.044608007207140324
1772794189837599500,2.430599609375,0.35768764899969097,-0.11393392902547493,-0.030894612218439577
1772794189847644400,2.44064453125,0.34348142899274825,-0.059960218911431724,0.03646941667608917
1772794189857689300,2.450689453125,0.31988252674043177,0.005885386510472744,0.08254822708815336
1772794189867733500,2.4607333984375,0.24079496150016783,-0.028034400481730698,0.08469101127050817
1772794189877778400,2.4707783203125,0.08776596173644065,-0.03891822546715848,0.05356945842839777
1772794189887823400,2.4808232421875,-0.11546937669813633,-0.014393002150161191,-0.011119067646563053
1772794189897868300,2.490868408203125,-0.2715671163827181,-0.009127793364645913,-0.049243777249008414
1772794189907912400,2.500912353515625,-0.3914110549032688,-0.012805157569982111,-0.02282287637852132
1772794189917957600,2.51095751953125,-0.41773382916152474,-0.007881583562679588,0.016421631034091114
1772794189928002300,2.521002197265625,-0.4235597588360309,0.009268297813879325,0.04533610228598117
1772794189938047500,2.531047607421875,-0.3611240531891584,0.03474684893349186,0.031694968815892934
1772794189948091400,2.54109130859375,-0.23648118995428083,0.07850212090197019,0.06067644088938832
1772794189958136300,2.55113623046875,-0.09939619377553463,0.08067635966851376,0.08386734686270356
1772794189968181200,2.56118115234375,0.06108312199413776,0.08220237279254942,0.09438530681096016
1772794189978226400,2.571226318359375,0.1889823566764593,0.08119067499935627,0.13167524608969688
1772794189988271400,2.581271240234375,0.23765374086499214,0.06289088380215689,0.15564393150247632
1772794189998315300,2.591315185546875,0.18621289196312427,0.057800410529039795,0.12959537107571958
1772794190008360400,2.6013603515625,0.1379571028381586,0.028661665534600613,0.09416903371177614
1772794190018405400,2.6114052734375,0.09137713797092437,0.0017837050789967178,0.048706017110496755
1772794190028450600,2.621450439453125,0.09256605549454688,-0.012901804611179978,-0.004222586131095886
1772794190038494500,2.631494384765625,0.0992617537409067,-0.03171480602752417,-0.010803571956604719
1772794190048539400,2.641539306640625,0.07785363953113555,-0.047659613330103455,-0.009071998923644423
1772794190058584600,2.65158447265625,0.07862345485985278,-0.035724023402575404,-0.04328581869266927
1772794190068629500,2.66162939453125,0.07399696410298347,-0.01424322754908353,-0.02807904334105551
1772794190078673400,2.67167333984375,0.067996262383461,0.006225578250270336,-0.043031990062072874
1772794190088718300,2.68171826171875,-0.00848667331635952,0.046195970518328244,-0.013526640244945883
1772794190098763500,2.691763427734375,-0.0633516514480114,0.04315636536041274,-0.017038593888655303
1772794190108808400,2.701808349609375,-0.07567337288260459,0.007807422347925603,-0.04962919637002051
1772794190118852400,2.711852294921875,-0.05315642064809799,-0.011916300705168395,-0.06137121822051703
1772794190128897500,2.7218974609375,0.006814940711855888,-0.004467701732274144,-0.030653935330361128
1772794190138942500,2.7319423828125,0.06444003120660781,0.035913353695906695,0.06880472922213375
1772794190148987600,2.741987548828125,0.061571197772026055,-0.06557902690758928,0.011215952149778604
1772794190159031300,2.75203125,0.11263970623016356,-0.10278360772412269,-0.06762443339638412
1772794190169076500,2.762076416015625,0.1506102481842041,-0.18154603266324848,-0.0498573060374707
1772794190179121400,2.772121337890625,0.19429039995670316,-0.1714644913708791,-0.021304361574351786
1772794190189166600,2.78216650390625,0.23961364276111125,-0.07636716383304447,-0.028815102530643344
1772794190199210500,2.79221044921875,0.22902093707621096,-0.020737886798009274,0.06147175598554313
1772794190209255400,2.80225537109375,0.2273807686537504,0.036533239159919316,0.09585581775493919
1772794190219300600,2.812300537109375,0.22070494415163994,0.07098119647838175,0.090379578300938
1772794190229345300,2.82234521484375,0.1626087290138006,0.0956012950045988,0.12504830223061145
1772794190239389400,2.832389404296875,0.08631167127490043,0.12610880760159343,0.12052739074006676
1772794190249434400,2.842434326171875,-0.032839608806371684,0.11122295303372666,0.07798435323871672
1772794190259479600,2.8524794921875,-0.09471475796103476,0.08536741269472986,0.02671908009946346
1772794190269524200,2.862524169921875,-0.0857423469543457,0.05669875116376206,-0.03514342876933515
1772794190279568400,2.872568359375,-0.03219020498692989,0.014921510403137652,-0.07904299544617534
1772794190289613600,2.882613525390625,0.01819850451350212,-0.012590985096339135,-0.12835435803867876
1772794190299658500,2.892658447265625,0.080361238437891,-0.02350565274460241,-0.14513422792591155
1772794190309703400,2.902703369140625,0.12101941204071044,-0.021652645289059726,-0.1606150709785521
1772794190319748400,2.912748291015625,0.15102818133533,-0.009304364641103893,-0.2258295206237584
1772794190329792500,2.92279248046875,0.18340309523940085,0.00039192192703485485,-0.2544051153101027
1772794190339837400,2.93283740234375,0.15324235025346278,0.03163688195310533,-0.2648744138110429
1772794190349882400,2.94288232421875,0.04910626847445965,0.06738247786667198,-0.19993731980249285
1772794190359927300,2.95292724609375,-0.08492284726500511,0.09588953736145049,-0.11142777315713465
1772794190369971500,2.962971435546875,-0.22383038269579408,0.08201775520695373,-0.12043825115188955
1772794190380016400,2.973016357421875,-0.34202596948742864,0.04461598958419636,-0.14682247327379883
1772794190390061300,2.983061279296875,-0.3612508944392204,0.03173084384687245,-0.138312126820907
1772794190400106500,2.9931064453125,-0.282402983173728,0.015018614102061838,-0.1311245534043759
1772794190410150400,3.003150390625,-0.1517728622227907,0.00048460517916828393,-0.06253273628056048
1772794190420195300,3.0131953125,-0.010010521882772445,0.02803056455682963,0.009818798702955246
1772794190430240000,3.023239990234375,0.06292319690287113,0.037215905928146095,0.04026376745775342
1772794190440285000,3.033284912109375,0.14051730871498583,0.035273083030991255,0.10793985797613859
1772794190450329000,3.0433291015625,0.18646949707269667,0.06719097388256341,0.1705524545598775
1772794190460373800,3.053373779296875,0.1360784494847059,0.055655251726508134,0.21508820024840533
1772794190470419000,3.0634189453125,0.022724457505345342,0.07500018632877617,0.1956981478627771
1772794190480464000,3.0734638671875,-0.04800795184373855,0.0783076303763315,0.157507679547742
1772794190490508000,3.083508056640625,-0.07090484330654144,0.05104231457095593,0.10465477189086377
1772794190500553000,3.093552978515625,-0.017752514311671255,-0.02210968660786748,0.03524586623050272
1772794190510598000,3.103597900390625,0.13213468029499054,-0.0685633582143113,-0.05515044400952756
1772794190520643000,3.11364306640625,0.2886567828714847,-0.12666267862468958,-0.11396138328798115
1772794190530687000,3.12368701171875,0.3970154507815838,-0.1269573141897097,-0.1166533257856965
1772794190540732000,3.13373193359375,0.4847334817230701,-0.03710066378433257,-0.0485915238853544
1772794190550776800,3.14377685546875,0.41853637771606444,-0.08106273777075111,-0.06081102705448865
1772794190560822000,3.153822021484375,0.32251988950669763,-0.07393178991228341,-0.02151354734562337
1772794190570866000,3.163865966796875,0.21321429613530635,-0.02147957201078534,0.053470528098568317
1772794190580910800,3.173910888671875,0.07367196993231773,0.000977338865865022,0.0969393752079457
1772794190590956000,3.1839560546875,-0.02907061166167259,0.05353988527404144,0.08374415887445211
1772794190601001000,3.1940009765625,-0.15329612626731395,0.057268386011570686,0.0668519877191633
1772794190611044900,3.204044921875,-0.259806535962224,0.03876079728258774,0.0443540324460715
1772794190621090000,3.214090087890625,-0.2700239785939455,0.010075403812527656,-0.005405439240112901
1772794190631135000,3.224135009765625,-0.20860826364457605,-0.037496969625540076,-0.06285407718941569
1772794190641180200,3.23418017578125,-0.13120704405605793,-0.0724640919798985,-0.11558204329237341
1772794190651225000,3.24422509765625,-0.03301847250461578,-0.09075641225669533,-0.1640877885904163
1772794190661269000,3.25426904296875,0.02347615265548229,-0.06487929940670728,-0.1671748678855598
1772794190671314000,3.26431396484375,-0.03815992704629898,-0.030068609723076224,-0.09534304592721164
1772794190681359000,3.274359130859375,-0.15848200447261332,-0.043099648470804094,-0.07427884978428483
1772794190691403800,3.28440380859375,-0.16629823118150233,0.14501768887415528,-0.00715155225507915
1772794190701448000,3.294447998046875,-0.14323182837069035,0.24770916133541612,0.05701740692518651
1772794190711493000,3.3044931640625,-0.14748480964004992,0.19221355715002864,0.07612045906297862
1772794190721538000,3.3145380859375,-0.19228432083129882,0.05012213098611682,0.05933854334913194
1772794190731583000,3.3245830078125,-0.07449088509976863,0.06445586809655651,0.003034180064126849
1772794190741627000,3.334626953125,0.04211480215191841,0.04843826955240219,-0.04600048447884619
1772794190751672000,3.344672119140625,0.1401747788876295,-0.00033094898741692304,-0.06303608269281685
1772794190761717000,3.354717041015625,0.13934066615104673,-0.001779101969115436,0.03835325766131282
1772794190771762000,3.364761962890625,0.09471241987347602,-0.20196546462923287,-0.04676942302472889
1772794190781806000,3.37480615234375,0.17352467530369758,-0.13147603372316807,-0.10757935410067439
1772794190791851000,3.38485107421875,0.25143735154569147,0.04756693007797003,-0.055243894446641205
1772794190801896000,3.39489599609375,0.24801380683779714,0.037011633794009687,0.0027716566704213616
1772794190811940900,3.40494091796875,0.19888415748775004,-0.024627879973873494,0.0008788286611437797
1772794190821985000,3.414985107421875,0.1321919634401798,-0.08637370366044342,-0.10481924173757433
1772794190832030000,3.425030029296875,0.10008183795213699,-0.0666002049151808,-0.13363207924589515
1772794190842075000,3.435074951171875,0.058214288559556,-0.08038228122591971,-0.12159896549433469
1772794190852119800,3.445119873046875,0.05117021526694297,-0.05921656093727797,-0.11901669391617178
1772794190862164000,3.4551640625,0.0632470220297575,0.00036466859392821787,-0.1303475046172738
1772794190872209200,3.465209228515625,0.08528115918338298,0.031207477559894323,-0.1139556111343205
1772794190882253800,3.47525390625,0.10344459238350391,0.02479439564719796,-0.05521452222168445
1772794190892299000,3.485299072265625,0.0703179833292961,-0.026033399390242993,-0.0358073725707829
1772794190902343000,3.495343017578125,0.09826572844088077,0.04906301385462284,0.020246084693074224
1772794190912388000,3.50538818359375,0.06131985335946083,0.050740993536822494,0.0602975976396352
1772794190922433000,3.51543310546875,-0.035783261042833324,0.07916980016361921,0.03371303064003586
1772794190932478000,3.52547802734375,-0.11066577580869197,0.10917297996766864,0.019324293673038482
1772794190942522000,3.535522216796875,-0.15063713619112967,0.0975089004579,0.01351926065608859
1772794190952566800,3.54556689453125,-0.20714578987658022,0.05179766298290342,-0.02583126441426575
1772794190962612000,3.555612060546875,-0.18676409610509873,-0.016750789923220873,-0.09710874042548238
1772794190972657000,3.565656982421875,-0.13765081336796284,-0.06754524894664064,-0.17659056568033993
1772794190982702000,3.5757021484375,-0.05423486353456974,-0.09035356707684696,-0.18820348125845193
1772794190992746000,3.58574609375,0.06845978824198246,-0.09753270145859569,-0.16714096561595795
1772794191002791000,3.595791015625,0.17575754892230033,-0.078845682775788,-0.1314298199612647
1772794191012836000,3.605836181640625,0.2333335395783186,-0.029303543634712693,-0.036914164768904446
1772794191022881000,3.615881103515625,0.2197697091281414,0.002452690381743014,0.05263020481690764
1772794191032925000,3.625925048828125,0.14073533537983893,-0.020805545206740498,0.06679901542291045
1772794191042969900,3.635969970703125,0.036621465432643885,-0.02318348985183984,0.08415405484959483
1772794191053015000,3.64601513671875,-0.04130640837848186,-0.012987126540765165,0.11056560336984693
1772794191063060000,3.65606005859375,-0.09303133491873741,-0.011413958939909935,0.11423961570747196
1772794191073104000,3.666103759765625,-0.09293664237260818,-0.03131678315326571,0.0906854293797165
1772794191083149000,3.676149169921875,-0.05555763657093048,-0.033491752572171386,0.059642640862241386
1772794191093194000,3.686194091796875,-0.000025718963146209716,-0.036922275010123844,0.06334113005399704
1772794191103239200,3.6962392578125,0.10411036281585692,-0.04941942607685923,0.05719049846976995
1772794191113282800,3.70628271484375,0.15442951421141624,-0.04770279488470405,0.058043096711114045
1772794191123328000,3.716327880859375,0.19194354456961155,-0.038542094764299685,0.023401626114547252
1772794191133373000,3.726373046875,0.17491992905437945,-0.024075470255501566,0.017750614615529774
1772794191143418000,3.736418212890625,0.14884323851168155,-0.01889627751931548,-0.02907148844450712
1772794191153462000,3.7464619140625,0.1356780519902706,0.004636756422556936,-0.04792136953882873
1772794191163507000,3.7565068359375,0.12105039170086383,-0.004625613974034786,-0.044403789871931075
1772794191173552000,3.76655224609375,0.11483984662294387,0.008051277573779225,-0.05318674272112548
1772794191183597000,3.77659716796875,0.10627075572013854,-0.014145210534706711,-0.056254971185326574
1772794191193641000,3.786640869140625,0.027003742259740827,-0.028061471151746807,-0.03676438103467226
1772794191203686000,3.796685791015625,-0.02229191130697727,-0.032953882835805415,-0.04450849235542118
1772794191213731000,3.80673095703125,-0.013496610432863234,-0.02890000433512032,-0.048016427411139005
1772794191223775700,3.816775634765625,0.004600771793723106,-0.016885010762140155,-0.05862301549091935
1772794191233820000,3.82681982421875,0.06624328123629093,-0.014729056570958346,-0.07435118436813354
1772794191243865000,3.836864990234375,0.10512801542580127,-0.040783042091503734,-0.07630341441445052
1772794191253910000,3.846909912109375,0.10751695638895034,-0.054176192149892444,-0.06263078982755542
1772794191263955000,3.856954833984375,0.06516776095926761,-0.03406854781312868,-0.02270114969499409
1772794191274000000,3.866999755859375,0.003158171769976616,-0.041443752756249154,0.013047697621583938
1772794191284044000,3.8770439453125,-0.07410626969635487,-0.0006025872693397104,0.05231485525742173
1772794191294089000,3.8870888671875,-0.13293138363063334,0.02985303074363619,0.04936345810592174
1772794191304134000,3.8971337890625,-0.18044015378057957,0.03198248052038252,0.028614976848661898
1772794191314178800,3.9071787109375,-0.1425882697701454,0.020105781173240394,0.008033668851852416
1772794191324223000,3.917222900390625,-0.10362696321308612,0.0049487815137952565,-0.01798208528384566
1772794191334268200,3.92726806640625,-0.043045945522189134,0.008350205721426755,-0.04006839101612568
1772794191344312800,3.937312744140625,-0.041352585607767105,0.021831600318849086,-0.020220073468983173
1772794191354358000,3.94735791015625,-0.037301264390349385,0.022722630874440073,-0.021216098769009113
1772794191364402200,3.957402099609375,-0.001875146222114563,0.007926847476512193,-0.013355740657448769
1772794191374446800,3.96744677734375,0.02110416282713413,-0.028377660961449145,-0.03467734562754631
1772794191384492000,3.977491943359375,0.02357376781105995,-0.06180383748412132,-0.03681698800474405
1772794191394535200,3.98753515625,0.023332944792509077,-0.05828074139188975,-0.035093013756349684
1772794191404579800,3.997579833984375,0.02920388265252113,-0.05168181805089116,-0.001961801592260599
1772794191414624000,4.0076240234375,0.026945874592661855,-0.016574611372407524,0.02616064249910414
1772794191424669000,4.0176689453125,0.02986146977841854,0.0026559944014996287,0.021409210188314317
1772794191434713900,4.0277138671875,-0.01526186653971672,-0.011102701033651827,-0.025643998213857412
1772794191444758800,4.0377587890625,-0.03279869227409363,-0.06079791184458881,-0.0664847618419677
1772794191454803000,4.047802978515625,-0.0035620763957500455,-0.09933167717196047,-0.15448723574802278
1772794191464848100,4.05784814453125,0.012959434816241264,-0.042572848117724056,-0.15940006916560231
1772794191474892800,4.067892822265625,-0.02512742699384689,0.03936827992275357,-0.10861103523597121
1772794191484938000,4.07793798828125,-0.05187105701267719,0.0940257162509486,-0.05892484798170626
1772794191494982000,4.08798193359375,-0.05450491264760494,0.0849450590968132,-0.0422072296757251
1772794191505026800,4.09802685546875,-0.053365094962716096,0.023828217496164143,-0.06223557996489107
1772794191515071700,4.10807177734375,-0.11477028851807117,-0.028648586857318876,-0.14033574160300194
1772794191525117000,4.118116943359375,-0.12898936800658703,-0.056107123679853974,-0.2137364933785051
1772794191535161000,4.1281611328125,-0.11408522886335849,-0.10309698452223091,-0.22910613114163278
1772794191545205800,4.138205810546875,-0.046967502880096434,-0.06568418604880571,-0.14722623176909982
1772794191555251000,4.1482509765625,0.012096095985174178,-0.03531133268214762,-0.07542655851468444
1772794191565295900,4.1582958984375,0.04859188921153545,0.028600656062364577,0.008001081756502389
1772794191575340000,4.168340087890625,0.03833294552564621,0.08350479716062545,0.052118309772014614
1772794191585385000,4.178385009765625,-0.007760697129368782,0.12796393394898622,0.08027509452439845
1772794191595430000,4.188429931640625,-0.0843605372071266,0.07750683538746088,0.15104418262206018
1772794191605475000,4.19847509765625,-0.04579845910072326,0.07615892790984362,0.12796682002581655
1772794191615520000,4.20852001953125,-0.039870238095521926,0.04677106699254364,0.1252775078766048
1772794191625564000,4.21856396484375,-0.13136603401005267,-0.22550021560415623,-0.01816569822244346
1772794191635608800,4.22860888671875,-0.001035188266634941,-0.04140815171990543,-0.0290686389002949
1772794191645654000,4.238654052734375,0.14638590848743915,0.1441288868082687,0.07998042242676019
1772794191655699000,4.248698974609375,0.17532441820204256,0.06978888142127543,0.12715725720860063
1772794191665742800,4.258742919921875,0.26565993816554545,0.05171824107114225,0.04203691461011767
1772794191675788000,4.2687880859375,0.3219681008428335,0.018369331035763024,-0.030285321213677524
1772794191685833000,4.2788330078125,0.40369770502448077,-0.005832322882674634,-0.0410879433222115
1772794191695878100,4.288878173828125,0.4458201059609651,-0.12789678699690848,-0.09165968123935163
1772794191705921800,4.298921875,0.415804906925559,-0.18574852585438636,-0.17336904635056852
1772794191715967000,4.308967041015625,0.423404860535264,-0.09794446059726178,-0.16695574524216353
1772794191726012000,4.319011962890625,0.3309954569071531,-0.04948620770275593,-0.14481515203937886
1772794191736058000,4.32905810546875,0.21362112337052822,-0.04134184501804411,-0.12310929699204862
1772794191746103000,4.33910302734375,0.10478373203277587,-0.023794497889652846,-0.15652984749153256
1772794191756147000,4.34914697265625,0.08566694363057613,-0.0412864250363782,-0.18148666715882716
1772794191766191900,4.35919189453125,0.012870002967119216,-0.016756306348554788,-0.17194179002642632
1772794191776237000,4.369237060546875,-0.08754968863725662,0.013514438350498675,-0.06891498466357589
1772794191786281700,4.37928173828125,-0.2083925750672817,0.021115999395400285,0.04493877353146672
1772794191796326000,4.389325927734375,-0.23629823460280894,0.03270549756530672,0.0677040014386177
1772794191806371000,4.39937109375,-0.20185703581869602,0.04425659995358437,0.09452281558550894
1772794191816416000,4.409416015625,-0.151820793017745,0.013487769539281725,0.08581227038539946
1772794191826461000,4.4194609375,-0.07816869682967663,-0.010710559910908342,0.06270860430411994
1772794191836504800,4.4295048828125,-0.0200771578669548,-0.07390892049334943,0.11804653370976448
1772794191846550000,4.439550048828125,0.04415244545936584,-0.05420680648386478,0.0922414266500622
1772794191856595000,4.449594970703125,-0.014741057536005972,-0.017636742444895208,0.07783435030877589
1772794191866640000,4.459639892578125,-0.11565174752771853,0.011434380673430859,0.06593596885278821
1772794191876684000,4.46968408203125,-0.18175182090103625,0.06093249800968915,0.012203063490986822
1772794191886729000,4.47972900390625,-0.17627601983845234,0.06169818515256047,-0.09293576558977365
1772794191896774000,4.48977392578125,-0.06416705948412418,0.024223756152391432,-0.138634782904014
1772794191906818800,4.49981884765625,0.07019114207923412,-0.02943772794101387,-0.18529555792249738
1772794191916863000,4.509863037109375,0.16353811881840227,-0.04703446716908365,-0.23280863892138004
1772794191926908000,4.519907958984375,0.22502105378508566,0.008359028348699211,-0.20521526020541786
1772794191936952800,4.529952880859375,0.26069793184399603,0.004446092688664794,-0.1424854669827968
1772794191946997800,4.539997802734375,0.28510172073841095,-0.015135573278926312,-0.13068513907380402
1772794191957042000,4.5500419921875,0.30957389869391916,-0.018986440020799637,-0.09318228769674897
1772794191967087000,4.560087158203125,0.3156751381784677,-0.0554140268491581,-0.03732910224534571
1772794191977131800,4.5701318359375,0.29486498986184595,-0.06485555320493877,-0.022769100364670156
1772794191987177000,4.580177001953125,0.25952538093328475,-0.06323989816922694,0.00010528700537979602
1772794191997222000,4.590221923828125,0.18432605530321597,-0.018991737250424922,0.06671214085705578
1772794192007266000,4.60026611328125,0.036648937961459155,0.08414426410794258,0.1397507082566619
1772794192017311000,4.61031103515625,-0.11571312232613563,0.1334502198729664,0.15412731639444827
1772794192027356000,4.62035595703125,-0.19445523512959478,0.10061079372968525,0.11006970961168408
1772794192037401000,4.630401123046875,-0.17527648740708826,0.023297617750801143,0.07383190973438322
1772794192047444700,4.64044482421875,-0.11734043126702308,-0.06794252290222794,0.044050811715796584
1772794192057490000,4.650489990234375,-0.010132102435827255,-0.10396587631125002,0.03559818679951131
1772794192067534800,4.660534912109375,0.06315232948362827,-0.025627631600946187,0.07021846847757697
1772794192077580000,4.670580078125,0.03366962988972664,0.036156624399870635,0.10004625518210232
1772794192087624000,4.6806240234375,0.019485037192702292,0.056785278669744726,0.04357939481176436
1772794192097668900,4.6906689453125,0.01106558389365673,0.043956776756793256,-0.018219181975349785
1772794192107714000,4.700714111328125,0.056285366323590276,0.020220438795164226,-0.04436674579717219
1772794192117759000,4.710759033203125,0.0546808537364006,0.0337389322662726,-0.043471623588353395
1772794192127803000,4.720802978515625,0.018895839127898214,0.04537102746888995,-0.12688465081229805
1772794192137847800,4.730847900390625,-0.043003859946131706,0.0981902885844931,-0.13631781119853256
1772794192147893000,4.74089306640625,-0.14733517203629015,0.11786050961837172,-0.12047792557515204
1772794192157938000,4.75093798828125,-0.28312779031693935,0.1092515981618315,-0.1032136331718415
1772794192167981800,4.76098193359375,-0.313735110026598,0.07536375894416124,-0.12193002407960593
1772794192178027000,4.771027099609375,-0.265373522439599,0.06326353477314114,-0.1467648978676647
1772794192188072000,4.781072021484375,-0.20730828696191309,0.05350450343340635,-0.1469931536655873
1772794192198117000,4.7911171875,-0.07308218734562397,0.07066113421116024,-0.11091653569936752
1772794192208161800,4.801161865234375,0.04014847051501274,0.10336988317947834,-0.050713630605861544
1772794192218206000,4.8112060546875,0.11626432646811008,0.09825615689493715,0.003278510214015841
1772794192228251000,4.8212509765625,0.15126725078821182,0.09675433749724179,0.024541005408018825
1772794192238296000,4.831296142578125,0.1703261715233326,0.06390446302518248,0.03267060891501605
1772794192248340700,4.8413408203125,0.15853870309591292,0.008991481033340095,0.02112454802803695
1772794192258385000,4.851385009765625,0.14767536377608775,-0.04329539023861289,0.03630684652552008
1772794192268430000,4.86143017578125,0.19496610726118085,-0.0512257083138451,0.022835808925330638
1772794192278475000,4.87147509765625,0.2295855852216482,-0.028630978135392067,0.062372138891369104
1772794192288520000,4.88152001953125,0.18761983615159988,0.016944778125360608,0.12171236274093389
1772794192298563800,4.891563720703125,0.08797229796350002,0.04198416150957346,0.16415413182489574
1772794192308609000,4.901609130859375,0.04611234735548496,0.01859349518045783,0.1609242830581963
1772794192318653700,4.91165380859375,0.0030558804392814636,0.005563771606981754,0.11756452234648167
1772794192328699000,4.921698974609375,-0.01771393586695194,-0.0064848685072734944,0.06737820355035365
1772794192338743000,4.931742919921875,0.017367898908257483,-0.029314832213707266,0.009732070267572999
1772794192348788000,4.9417880859375,0.04428220931887626,-0.05149586702473461,-0.042025662563741205
1772794192358833000,4.9518330078125,0.04860357964932918,-0.1162928949754685,-0.08992014409564435
1772794192368877800,4.9618779296875,0.013330606216192245,-0.08561159671414643,-0.06943762029819191
1772794192378922000,4.971921875,-0.029355858343839643,-0.028091756692156192,-0.016710165651887654
1772794192388967000,4.981966796875,-0.09232406343221664,0.02801335769370198,0.06702442167662084
1772794192399011800,4.99201171875,-0.11222118855714798,0.050930086368136104,0.10431764889098703
1772794192409057000,5.00205712890625,-0.07156827565133571,0.00477247509881854,0.04911715519465506
1772794192419101000,5.012100830078125,-0.03148760967552662,-0.03149217625278979,0.012600026919320224
1772794192429147000,5.02214697265625,-0.016109423279762267,-0.046609300559572873,0.03791764272302389
1772794192439191800,5.03219189453125,-0.0031897359520196913,-0.058867309108190234,0.008016352390870451
1772794192449237000,5.042237060546875,0.009928688818216323,-0.025009572767838835,-0.02114230288043618
1772794192459281000,5.052281005859375,0.008784194958209991,0.021126666919887065,-0.02480309041030705
1772794192469326000,5.062326171875,-0.02401566635966301,0.04366853439994156,-0.01820573797188699
1772794192479370800,5.072370849609375,-0.025140286475419996,0.05572890148460865,-0.06826894184499979
1772794192489416000,5.082416015625,0.02462766077816486,0.03674764909557998,-0.10234320701286197
1772794192499460900,5.0924609375,0.08739771294593811,0.01477897839359939,-0.11825571948103605
1772794192509505000,5.102505126953125,0.17074176658689974,0.0014843933388590813,-0.14013415461629627
1772794192519550000,5.112550048828125,0.2596346865266561,-0.01918137807101011,-0.17427330171391367
1772794192529595000,5.122594970703125,0.31921617178618905,-0.05909589369967579,-0.06413374173641205
1772794192539640000,5.13264013671875,0.3319745310723781,-0.039759178936481475,-0.03084353961832821
1772794192549684000,5.14268408203125,0.33660452896058557,0.030196912277862427,-0.03181457660757005
1772794192559729000,5.15272900390625,0.30879531553685663,0.06319152898285538,0.06020042087547481
1772794192569773800,5.16277392578125,0.20209142909646033,0.08803451301213354,0.11750818904936312
1772794192579819000,5.172819091796875,0.08795476230680942,0.05634568167608231,0.17794241868071256
1772794192589863000,5.18286279296875,-0.01682078641951084,0.08895838639140129,0.1307896954268217
1772794192599907800,5.192907958984375,-0.1252566112190485,0.036327377856895327,0.06708141256086528
1772794192609953000,5.202953125,-0.20201661029458046,-0.032204416175372896,0.03167034583128989
1772794192619998000,5.212998046875,-0.2694441328793764,-0.04369681064635515,-0.011672609876096248
1772794192630041900,5.223041748046875,-0.3069657620221376,0.010461772781610488,-0.042121743349358434
1772794192640086800,5.233086669921875,-0.35615503260493275,0.03437540353890508,-0.013368088682368396
1772794192650132000,5.243132080078125,-0.3416962991416454,0.03311195947434753,0.030010961251705884
1772794192660177000,5.253177001953125,-0.27388591471910473,0.01536353681590408,-0.026288287466764447
1772794192670220800,5.263220703125,-0.12345336118936538,-0.025393786312453447,-0.0536553831461817
1772794192680266000,5.273265869140625,0.013217208969593048,-0.058620165946707124,-0.06433043335229158
1772794192690311000,5.283310791015625,0.09350421312749385,-0.047124264344386754,-0.0316623086553067
1772794192700356000,5.293356201171875,0.10561784476935863,0.012821487650275229,0.07778064736016094
1772794192710400800,5.30340087890625,0.11562485952079296,0.05075418181195855,0.14437953710108994
1772794192720445000,5.31344482421875,0.1292033030182123,0.05933821455556899,0.16273133248016236
1772794192730489900,5.32348974609375,0.13180091829597948,0.03533602873198688,0.14111746656522153
1772794192740535000,5.33353515625,0.11909633502364157,-0.011566811414062976,0.10424224556721746
1772794192750579700,5.343579833984375,0.13881868810355663,-0.03964486837442964,0.05219466294385493
1772794192760623900,5.353623779296875,0.15721008484065532,-0.032313319909945126,0.0298288096178323
1772794192770669000,5.3636689453125,0.1442962427318096,0.01891341131720692,0.04498356252126395
1772794192780714000,5.3737138671875,0.09075812928974628,0.06333031639903783,0.04351312464252114
1772794192790759000,5.383759033203125,0.0705360099941492,0.03876991217080503,0.03617722879648209
1772794192800803000,5.393802978515625,0.09293781141638756,-0.038558534442447126,0.016899477678909897
1772794192810848000,5.403847900390625,0.1280839435994625,-0.09364592315312474,-0.028046675441414117
1772794192820893000,5.413892822265625,0.21568857729434965,-0.12579904753267765,-0.07952522600516676
1772794192830937900,5.423937744140625,0.27040917851924895,-0.11522811528816819,-0.11993782734908162
1772794192840982000,5.43398193359375,0.235664028352499,-0.067296187822707,-0.11192498208954929
1772794192851027000,5.44402685546875,0.10377134011983871,-0.02392776888050139,-0.028074805557355285
1772794192861072000,5.45407177734375,-0.05327274050414562,0.020702852017246184,0.01821435966975987
1772794192871116800,5.46411669921875,-0.20011340702176092,0.08214253236409276,0.03397014720626175
1772794192881161000,5.474160888671875,-0.26344576924741264,0.10435151462797075,0.04186535743549466
1772794192891206100,5.4842060546875,-0.2510182493507862,0.08673051774147897,0.04248780018277466
1772794192901250800,5.494250732421875,-0.18433949930667876,0.03477766419686377,0.014561682381108403
1772794192911296000,5.5042958984375,-0.08435586103200912,-0.013375139477662742,0.024089900639653203
1772794192921340000,5.51433984375,-0.02089373494684696,-0.0422551604706794,0.024854966728016733
1772794192931385000,5.524385009765625,0.01920095955431461,-0.04994787039775401,0.04771927109546959
1772794192941429800,5.5344296875,0.05328092381060123,-0.031134960312955078,0.06697590635977685
1772794192951475000,5.544474853515625,0.11984510756433009,-0.0022815715985372662,0.06488339105993508
1772794192961519000,5.55451904296875,0.13015081300139428,0.03613704291656613,0.03821333773396909
1772794192971563800,5.564563720703125,0.0871148043513298,0.04931538118049502,0.02221453522183001
1772794192981609000,5.57460888671875,0.011707388928532599,0.025117526654340326,-0.006882964446768164
1772794192991654000,5.58465380859375,0.005542436558008194,0.004126213084533811,-0.06637172992154955
1772794193001699000,5.594698974609375,0.053615854853391647,-0.021117497232742605,-0.08446355919018388
1772794193011742700,5.60474267578125,0.145725983273983,-0.0472812084717676,-0.08109006416909396
1772794193021788000,5.614787841796875,0.20964111382365225,-0.029248525511845945,-0.08676219152137636
1772794193031832800,5.624832763671875,0.20177344918847082,0.011715133843570947,-0.06161277189143002
1772794193041878000,5.6348779296875,0.13659808944463728,0.04557100702039897,0.005735109585896134
1772794193051922000,5.644921875,0.04325286627113819,0.058898763692378994,0.03262603912092745
1772794193061966800,5.654966796875,-0.05086567936241627,0.08166632968708873,0.04391498344168067
1772794193072012000,5.665011962890625,-0.07374094351530075,0.03333667160831392,0.027862185719981787
1772794193082057000,5.675056884765625,-0.02087678381204605,-0.01392013307455927,-0.03288191357813775
1772794193092100900,5.685100830078125,0.011782207730412483,-0.061129993343167,-0.040158042060956356
1772794193102145800,5.695145751953125,0.018001520636677742,-0.07141513091623783,-0.09064392832554877
1772794193112191000,5.70519091796875,-0.0032750761479139324,-0.012063910748623312,-0.07616364061757921
1772794193122236000,5.71523583984375,-0.07222177112400531,0.03355177566371858,-0.018039003102853893
1772794193132279800,5.72527978515625,-0.07973521549403667,0.06277790668066591,0.013573548126593232
1772794193142325000,5.735324951171875,-0.028462124374508856,0.04331694448329508,-0.016422580882161853
1772794193152370000,5.745369873046875,0.012048165190219878,-0.006214381002821028,-0.060918213756009934
1772794193162415000,5.7554150390625,0.04044540763497352,-0.04489687061849981,-0.09055077014937997
1772794193172459000,5.765458984375,0.05869944172799587,-0.037132264498993754,-0.10674078438468276
1772794193182504000,5.77550390625,0.07276713004708289,-0.014345701542869209,-0.0746317548751831
1772794193192548900,5.785548828125,0.06633680473864079,0.023240736464411018,-0.060593219585344194
1772794193202594000,5.795593994140625,0.03269172476828098,0.01121701159570366,-0.01500263108164072
1772794193212639000,5.805638916015625,0.008805822268128394,-0.02164868149999529,-0.014495119950920343
1772794193222683000,5.815682861328125,-0.016718495088815687,-0.022373890502005816,-0.009233692291378975
1772794193232728000,5.82572802734375,-0.006288871011137962,-0.025341508135944605,-0.033888752533122894
1772794193242772700,5.835772705078125,0.03386310663521289,-0.01588902199473232,-0.0515362721003592
1772794193252818000,5.84581787109375,0.1322971773803234,-0.00583769317753613,-0.038832346415147184
1772794193262862000,5.855862060546875,0.2053559838503599,-0.012374145741574466,-0.011737418740615247
1772794193272907000,5.865906982421875,0.19330723413825035,0.04189436433427036,0.009462021154537797
1772794193282952000,5.875951904296875,0.10506897871494293,0.08721165232192725,0.0369530354745686
1772794193292996900,5.885996826171875,0.027011341044306754,0.07536547597721219,0.03401895478405058
1772794193303041000,5.896041015625,-0.0207744924813509,0.02200966029949486,-0.008330898232758045
1772794193313086000,5.9060859375,0.014042553877830504,-0.03399133612476289,-0.04531878582499921
1772794193323131000,5.916130859375,0.0382896909058094,-0.07452566415220499,-0.06366656261608004
1772794193333175800,5.92617578125,0.010273556733131408,-0.06347699486073106,-0.061890565919503565
1772794193343220000,5.936219970703125,-0.08494155196547508,-0.008130809083394705,-0.016668372336775063
1772794193353265200,5.94626513671875,-0.18555121318399906,0.05870528694689273,0.0009542319849133491
1772794193363309800,5.956309814453125,-0.20389409460425376,0.07678071306999773,-0.015215250919014215
1772794193373355000,5.96635498046875,-0.1920107645869255,0.1051862484190613,-0.05502572165131569
1772794193383399000,5.97639892578125,-0.16450082637071609,0.11367175269164144,-0.061795727242901916
1772794193393443800,5.98644384765625,-0.11143909826874732,0.11828363040126859,-0.05312566018365323
1772794193403488800,5.99648876953125,-0.045945758616924286,0.09039835606664419,-0.09793627729080617
1772794193413534000,6.006533935546875,0.013895254361629486,0.045748592077009376,-0.12167502640523016
1772794193423578000,6.016578125,0.006150923845171928,0.04682740028966218,-0.13100721063502133
1772794193433622800,6.026622802734375,0.029831074640154838,0.058000207417458295,-0.11696414530053734
1772794193443668000,6.03666796875,0.09733224698305129,0.08973207417763769,-0.07218808805011212
1772794193453713000,6.046712890625,0.1835574090182781,0.10481325038820505,-0.032270795942470426
1772794193463757800,6.0567578125,0.20937866349518297,0.054181745107844466,-0.006661284520104527
1772794193473801700,6.0668017578125,0.16321604725718497,0.026291063945740458,-0.025945465378463265
1772794193483847000,6.076846923828125,0.12241934196650982,0.01643343106973916,-0.04832739305645227
1772794193493891800,6.086891845703125,0.142458505910635,0.006755794403143227,-0.078986735214293
1772794193503936800,6.096936767578125,0.1561339800417423,0.005975201952084898,-0.0967382266126573
1772794193513981000,6.10698095703125,0.17748598015010356,-0.02224668392576277,-0.07323240947127342
1772794193524025900,6.11702587890625,0.19115093288719653,-0.036473837122879924,-0.06042436582446098
1772794193534071000,6.127071044921875,0.17613631910681724,0.0021368293656036257,-0.0071282444447278975
1772794193544115700,6.13711572265625,0.08618775263428688,0.03306004662401974,0.031237799632921812
1772794193554159900,6.147159912109375,0.0082435122102499,0.05785959337037056,0.04559468015693128
1772794193564205000,6.157205078125,-0.036135727742314334,0.03218366564828902,0.05857121223844587
1772794193574249700,6.167249755859375,-0.013263970720767975,0.013719715131632983,0.03635908816941082
1772794193584295000,6.177294921875,0.04691489591002464,0.004014057946950197,0.030994492396339772
1772794193594338800,6.1873388671875,0.08257131570279598,0.02633325911965221,0.025713702449202538
1772794193604384000,6.197384033203125,0.10035422515273093,0.10122541849669069,0.05372201864160597
1772794193614428700,6.2074287109375,0.0815945796251297,0.04200922288559377,0.03195683462247252
1772794193624473900,6.217473876953125,0.005894318735599518,-0.028523426107689737,-0.016476503026485442
1772794193634518000,6.22751806640625,-0.001928337714076042,0.00991604853235185,0.004182181055471301
1772794193644563000,6.23756298828125,-0.013969488641619681,-0.041323359513282774,0.004476633957400918
1772794193654608000,6.24760791015625,-0.002450315761566162,-0.03578563566301018,-0.047739875492081044
1772794193664652800,6.25765283203125,0.03700783440172672,-0.01923314479086548,-0.048317748445272445
1772794193674697000,6.267697021484375,0.05049158535301685,-0.03046845922823995,-0.03895356164202094
1772794193684741600,6.27774169921875,-0.012141688692569732,-0.0057493938395753496,-0.07170001227222382
1772794193694786800,6.287786865234375,-0.13674889609217644,-0.01757134905848652,-0.01608655386082828
1772794193704831700,6.297831787109375,-0.14574644154012203,-0.011474237759783863,-0.034495924646034834
1772794193714877000,6.307876953125,-0.1088736316949129,-0.028290603732503947,-0.04792502280063927
1772794193724920800,6.3179208984375,-0.05213993708193302,-0.029999782270565628,-0.032892434972152114
1772794193734965800,6.3279658203125,-0.020111060136556624,-0.04225472207926213,-0.029441929192095994
1772794193745011000,6.338010986328125,-0.038697687184810634,-0.05804780941884964,-0.03879961318932473
1772794193755055900,6.348055908203125,-0.07052081242501736,-0.0924770620368421,-0.06634045800045132
1772794193765099800,6.358099853515625,-0.015094693279266356,0.03950673854537308,-0.037909386351332064
1772794193775144700,6.368144775390625,-0.006003039807081222,0.04170322567634284,0.02362169860601425
1772794193785190000,6.37818994140625,-0.036816111221909524,-0.07180679711494595,-0.014962152940779924
1772794193795234800,6.38823486328125,0.042620998108386994,-0.007554324369691312,-0.06051942369677126
1772794193805278700,6.39827880859375,0.1444891349554062,0.04159702535551041,-0.09672368663065135
1772794193815324000,6.408323974609375,0.18519699291884897,0.006963701532781124,-0.029380262132734057
1772794193825368800,6.418368896484375,0.18546411942243574,0.024253530236147344,0.029693127474188803
1772794193835414000,6.4284140625,0.10393968242406844,0.0067171428931877015,0.05234875752702355
1772794193845458000,6.4384580078125,0.046321606191992756,0.07158771100416779,-0.09746098792925477
1772794193855502800,6.4485029296875,0.05850070428550243,0.15420535006672142,-0.1454121680844575
1772794193865547800,6.4585478515625,-0.011576456025242805,0.20693832113835958,0.0742219319652766
1772794193875593000,6.468593017578125,-0.1470066707342863,0.13704791557136922,0.08331833467781544
1772794193885636900,6.478636962890625,-0.1636678826779127,0.04911386725902557,-0.06807181183770299
1772794193895681800,6.488681884765625,-0.12364157723784445,-0.0283307896124199,-0.18749818253330885
1772794193905727000,6.49872705078125,-0.04554536112248897,-0.07249876143448054,-0.18594788435138762
1772794193915772000,6.50877197265625,0.08787760541737079,-0.08430614013876765,-0.1844295887429267
1772794193925815800,6.51881591796875,0.18811843332350253,-0.056473290111124515,-0.14325820492096245
1772794193935861000,6.528861083984375,0.20973755993545054,-0.005493994306400418,-0.05600450355559587
1772794193945906000,6.538906005859375,0.15059037443995474,0.04348886698409915,-0.021345351171866058
1772794193955950800,6.548950927734375,0.07216448797881603,0.07128646303527057,0.02351984566673636
1772794193965995800,6.558995849609375,-0.00872632729113102,0.01467818490024656,0.03273804812803864
1772794193976040000,6.5690400390625,-0.04101823908686637,-0.0435513377610594,-0.02082790316902101
1772794193986084900,6.5790849609375,-0.08480535836517811,-0.10319299224261194,-0.07916654876060783
1772794193996129800,6.5891298828125,-0.08531213884353638,-0.11271310025993735,-0.09666231183223425
1772794194006174700,6.5991748046875,-0.02687690100967884,-0.07836893210951239,-0.10621880633719265
1772794194016219000,6.609218994140625,0.0521755929172039,-0.017710319137759507,-0.0828604348424822
1772794194026264000,6.61926416015625,0.05367138443291187,0.050379137954488395,-0.032497663500905036
1772794194036308700,6.629308837890625,0.0379670348227024,0.049590033403411504,-0.015901333487033844
1772794194046354000,6.63935400390625,-0.006284194836020469,0.013136544948816298,-0.027546470834314822
1772794194056397800,6.649397705078125,0.01614624815881252,-0.02762293360400945,-0.08840791290178894
1772794194066443000,6.659443115234375,0.09116904817819595,-0.04668828407991677,-0.11690810426436364
1772794194076487700,6.66948779296875,0.1710188299626112,-0.06593827040772884,-0.10497998525723815
1772794194086532900,6.679532958984375,0.21886896089613436,-0.07053476788513362,-0.09384761973768473
1772794194096577000,6.689576904296875,0.2596674197524786,-0.04737739885523915,-0.037674189355969424
1772794194106621700,6.69962158203125,0.2278828729569912,-0.03528334869667887,0.013605039243400096
1772794194116667000,6.7096669921875,0.17023673967421055,-0.019691848343797027,0.04719042491577565
1772794194126711800,6.7197119140625,0.0868792420297861,-0.01865680620763451,0.04528342225067317
1772794194136756000,6.729755859375,0.01862988166809082,-0.017998123103193937,0.08166932536177336
1772794194146800600,6.739800537109375,0.003317746245861053,0.006935352221131325,0.11489347650632262
1772794194156845800,6.749845703125,0.02130640740096569,0.0034168227061629293,0.10386720170974731
1772794194166890800,6.759890869140625,0.007692308068275451,0.008748429525084794,0.10808160453438759
1772794194176935000,6.769934814453125,-0.0302770648419857,0.004180829348601401,0.08567600371986626
1772794194186979800,6.779979736328125,-0.04729834226965904,-0.019271978963911533,0.0222927880898118
1772794194197024800,6.790024658203125,-0.042530981737375254,-0.022818127138167617,-0.05203158133663237
1772794194207070000,6.800070068359375,-0.05149404039382934,-0.015338986896537243,-0.08263137532696127
1772794194217115000,6.810114990234375,-0.10669278052449226,0.007088204695284366,-0.09050554276816547
1772794194227158800,6.82015869140625,-0.18027473408579825,0.03026592239346355,-0.0781051300741732
1772794194237203700,6.83020361328125,-0.18196984756588935,0.04318173726368695,-0.04513970293104648
1772794194247249000,6.840248779296875,-0.13985972158908844,0.03986654830109328,-0.07279723292440175
1772794194257293800,6.8502939453125,-0.04483750511407852,0.022313684747368095,-0.12133739194869994
1772794194267337700,6.860337646484375,0.014199205744266509,-0.014433854750357567,-0.1557990489989519
1772794194277383000,6.8703828125,0.024134908825159073,-0.013037468488514423,-0.1436608674377203
1772794194287427800,6.880427734375,-0.009919920989871024,-0.00023910598549991844,-0.11242182569578289
1772794194297473000,6.89047314453125,0.015153145468235015,0.011576346427388489,-0.07720270134173333
1772794194307517000,6.900516845703125,0.07349778240919112,-0.009441307160072028,-0.043329511703923344
1772794194317561900,6.910561767578125,0.1335480542242527,-0.027863902753032743,-0.022502119991555807
1772794194327607000,6.92060693359375,0.1690969219893217,-0.03311060776747763,0.012775091225281357
1772794194337652000,6.93065185546875,0.1492810454070568,-0.022469021439552306,0.02852985584847629
1772794194347695900,6.94069580078125,0.12584113310873507,0.013408420692756771,0.056865650429576635
1772794194357740800,6.95074072265625,0.051824295261502264,0.05367507422734052,0.11118994581326842
1772794194367786000,6.960785888671875,-0.0010696750581264496,0.050966399790532885,0.12237009599730372
1772794194377830700,6.97083056640625,-0.02296294243633747,0.03658975512012839,0.09320917570367455
1772794194387874800,6.980874755859375,-0.02477203768491745,-0.0009535743977874516,0.046666766367852684
1772794194397920000,6.990919921875,0.008595978909730911,-0.02564155052844435,0.0034175533585250376
1772794194407965000,7.00096484375,0.038545711493492125,-0.030110914494842288,-0.014096622152626513
1772794194418009900,7.011009765625,0.05411620559096336,0.017735782372578977,-0.005859685813635588
1772794194428054800,7.0210546875,0.055025137129426,0.05261540910657495,0.0230144534278661
1772794194438099000,7.031098876953125,0.031190672555565832,0.06904989962223917,0.05746098597422242
1772794194448143600,7.0411435546875,0.03275017695724964,0.0656348670143634,0.04328187316991389
1772794194458188800,7.051188720703125,0.0788233613461256,0.02143189694415778,-0.0185872115701437
1772794194468233700,7.061233642578125,0.16293664579391479,-0.02798804058935493,-0.04387618580125272
1772794194478278000,7.07127783203125,0.2087543941169977,-0.019110541324503717,-0.034384500160813326
1772794194488322800,7.08132275390625,0.15168869107067584,0.013854118633642791,0.011726897346600889
1772794194498367700,7.09136767578125,0.0733639268964529,0.06721417209506035,0.019997809020429847
1772794194508413000,7.101412841796875,0.008808744877576827,0.0586105213355273,0.016324965726584196
1772794194518456600,7.11145654296875,-0.03896598273217678,0.033810718860849735,-0.03127827777378261
1772794194528501800,7.121501708984375,-0.0548901125729084,-0.04390190476439893,-0.0497357985496521
1772794194538546700,7.131546630859375,0.00013794716596603394,-0.06958291052039713,-0.0784364809203893
1772794194548591900,7.141591796875,0.1199281096726656,-0.04284121673032641,-0.0704536654729396
1772794194558635800,7.1516357421875,0.24526480039060114,0.009167531719990074,-0.03444339074119925
1772794194568680700,7.1616806640625,0.26109365316331384,0.06800382463540881,0.019376827577874064
1772794194578726000,7.171725830078125,0.17117723539471624,0.07572806221190839,0.06877090001776814
1772794194588770800,7.181770751953125,0.06152677410840988,0.0272911443663761,0.04324665572606027
1772794194598814700,7.191814697265625,0.020621347746253012,-0.015807444658502937,0.006020867724716663
1772794194608860000,7.20185986328125,0.0012625672817230223,-0.022406842923536896,-0.04191445727422833
1772794194618904800,7.21190478515625,-0.022175006929039953,-0.0067842167800292365,-0.04330123545750975
1772794194628949800,7.22194970703125,-0.03826280289888382,0.0020978490620851514,-0.09871807531826197
1772794194638993700,7.23199365234375,-0.10816109951138496,-0.010316336428932845,-0.11410393356382846
1772794194649038800,7.242038818359375,-0.1826291882574558,0.009083543230965732,-0.13404584767855704
1772794194659083800,7.252083740234375,-0.14647007963955402,-0.007874240506440401,-0.15574066987521945
1772794194669129000,7.26212890625,-0.06703940005004405,-0.03451809994522482,-0.15470044010728598
1772794194679172900,7.2721728515625,-0.042969957676529884,-0.07094141245726496,-0.13909049078226088
1772794194689217800,7.2822177734375,-0.09891279417276382,-0.050902723437175154,-0.14129428443685174
1772794194699263000,7.292262939453125,-0.1572673679858446,0.010509740109182894,-0.10319412475377321
1772794194709308000,7.302307861328125,-0.1792658493041992,0.04076397206485271,-0.04001702615506947
1772794194719352800,7.312352783203125,-0.15946107863783834,0.07327588328681886,-0.017432707772776484
1772794194729396700,7.322396728515625,-0.09959083956480026,0.04342219495605677,-0.036197175605967635
1772794194739442000,7.33244189453125,-0.03613455869853496,0.010069850854575634,-0.07129566925503313
1772794194749486800,7.34248681640625,0.03304360694587231,-0.010241444561816752,-0.0403466965008527
1772794194759531800,7.35253173828125,0.06942834101319313,0.005831592230312526,-0.03859115807041526
1772794194769576000,7.362575927734375,0.087746672514081,0.05616732943449169,-0.013062675995007156
1772794194779620900,7.372620849609375,0.0716518622815609,0.07265877430178225,0.02759703197777271
1772794194789665800,7.382665771484375,0.10980945124030113,0.04907269499842077,0.04481558554321527
1772794194799710700,7.392710693359375,0.13141045767366885,0.03514160213842988,0.09787073777392506
1772794194809755000,7.4027548828125,0.10967676477134228,0.00824256236217916,0.09024155806973576
1772794194819799800,7.4127998046875,0.11764613621532917,0.006586611848697066,0.08325316048711538
1772794194829844700,7.4228447265625,0.13765899667441844,0.01875990125592798,0.05332571280039847
1772794194839889700,7.4328896484375,0.11552139914631843,0.017388503304868935,0.021773659586533902
1772794194849933800,7.442933837890625,0.09209493085145949,0.030097653154470026,0.030539369039982556
1772794194859979000,7.45297900390625,0.07877659959495067,0.018116781046800316,0.009598287820070982
1772794194870023700,7.463023681640625,0.0895890855103731,-0.009102247931435704,0.00587853664457798
1772794194880068900,7.47306884765625,0.09489771331250667,-0.035170572504587466,-0.0383970237378031
1772794194890112800,7.48311279296875,0.05589139856994152,-0.041022075011767446,-0.07543401116877793
1772794194900157700,7.49315771484375,0.004131985238194465,-0.0446679572334513,-0.06619198944047093
1772794194910202600,7.50320263671875,-0.05084288300871849,-0.02566781748086214,-0.03715659522265195
1772794194920247800,7.513247802734375,-0.0962947206288576,0.0017368337299674748,0.013805749447271228
1772794194930292700,7.523292724609375,-0.08378653671145439,0.028969050983339545,-0.0007857435502111912
1772794194940336600,7.533336669921875,-0.050418520116806025,-0.00837528536375612,-0.006027443595975637
1772794194950381800,7.5433818359375,-0.022458500045537948,-0.010951529059931636,-0.0012228928584605454
1772794194960426800,7.5534267578125,-0.022912673553824422,-0.017816921317391095,0.01912000327259302
1772794194970472000,7.563471923828125,-0.00705751729607582,-0.050084210128523404,-0.00809876997731626
1772794194980515800,7.573515869140625,0.06159808577895164,-0.056776620439253744,-0.02520991764552891
1772794194990560800,7.583560791015625,0.08817688062489032,-0.05171436861362308,0.031510552159696815
1772794195000605700,7.593605712890625,0.07870061174929141,0.017148922395333648,0.009871186477318406
1772794195010651000,7.60365087890625,0.03840601076185703,0.060043988204747434,0.03282382671535015
1772794195020694800,7.61369482421875,0.0468774865090847,0.07687021798435598,0.029675591817498206
1772794195030739700,7.62373974609375,0.01570142700076103,0.03589289542976767,0.030562530719861387
1772794195040785000,7.633784912109375,-0.03917348800301552,0.004353884360566735,-0.006154284846037626
1772794195050829800,7.643829833984375,-0.03561901039183139,-0.03636222997456789,-0.07192534546069801
1772794195060873700,7.653873779296875,-0.00782265644967556,-0.07193016776628793,-0.1516187676396221
1772794195070919000,7.6639189453125,0.027376082703471184,-0.057966049419529736,-0.1588334482587874
1772794195080963800,7.6739638671875,0.07822188832163811,-0.0447502652220428,-0.10209376229643821
1772794195091009000,7.684009033203125,0.21178981629014013,0.044135311661474406,-0.09489829783439635
1772794195101052700,7.694052734375,0.2787964831143617,0.02178213515393436,-0.004461655583977699
1772794195111097900,7.704097900390625,0.2379945171266794,-0.00248966139126569,0.015879194720461964
