time,seconds_elapsed,z,y,x
1772794187467035400,0.060035400390625,0.36580216884613037,0.010158373042941093,-0.04979761689901352
1772794187477080000,0.070080078125,0.33733803033828735,0.019148407503962517,0.043017540127038956
1772794187487125200,0.080125244140625,0.30482181906700134,0.0327114574611187,0.11198431998491287
1772794187497169200,0.090169189453125,0.2907020151615143,0.03572322800755501,0.13447603583335876
1772794187507214000,0.100214111328125,0.2956121861934662,0.03610016405582428,0.12952575087547302
1772794187517259000,0.110259033203125,0.31534382700920105,0.054601941257715225,0.11253878474235535
1772794187527304200,0.12030419921875,0.32993096113204956,0.08072005212306976,0.07724646478891373
1772794187537348400,0.130348388671875,0.33279386162757874,0.10296490043401718,0.021078266203403473
1772794187547393000,0.14039306640625,0.34166762232780457,0.10957230627536774,-0.05295494943857193
1772794187557438200,0.150438232421875,0.34907016158103943,0.11266317218542099,-0.12494818866252899
1772794187567483100,0.160483154296875,0.35797378420829773,0.12397730350494385,-0.18504351377487183
1772794187577527300,0.17052734375,0.35570770502090454,0.12508411705493927,-0.22595180571079254
1772794187587572200,0.180572265625,0.3467842936515808,0.0982157289981842,-0.25764086842536926
1772794187597617200,0.1906171875,0.34158289432525635,0.06882268935441971,-0.2716999650001526
1772794187607662000,0.200662109375,0.3383570611476898,0.024312270805239677,-0.2780354619026184
1772794187617707300,0.210707275390625,0.34029051661491394,-0.002125462517142296,-0.27023401856422424
1772794187627751200,0.220751220703125,0.33031776547431946,-0.01297193206846714,-0.2719818651676178
1772794187637796000,0.230796142578125,0.35194477438926697,-0.00012883823364973068,-0.28253892064094543
1772794187647841300,0.24084130859375,0.3784291744232178,-0.0031556778121739626,-0.3089379072189331
1772794187657886200,0.25088623046875,0.3951825797557831,0.005199190694838762,-0.31267404556274414
1772794187667930000,0.26093017578125,0.38132211565971375,0.04666849598288536,-0.28422442078590393
1772794187677975300,0.270975341796875,0.38262224197387695,0.08692564070224762,-0.22090750932693481
1772794187688020200,0.281020263671875,0.3670351803302765,0.131692036986351,-0.1489003449678421
1772794187698065400,0.2910654296875,0.3293628990650177,0.13679012656211853,-0.08643883466720581
1772794187708109000,0.301109130859375,0.2867558002471924,0.1175549253821373,-0.04771959409117699
1772794187718154200,0.311154296875,0.24920256435871124,0.12602537870407104,-0.02618260681629181
1772794187728199200,0.32119921875,0.2113594263792038,0.14918112754821777,-0.022030744701623917
1772794187738244400,0.331244384765625,0.17869815230369568,0.1645353138446808,-0.03542964160442352
1772794187748288300,0.341288330078125,0.16213643550872803,0.18170753121376038,-0.05495258793234825
1772794187758333200,0.351333251953125,0.14095844328403473,0.20453108847141266,-0.06859277188777924
1772794187768378400,0.36137841796875,0.1115947812795639,0.2266719788312912,-0.07809461653232574
1772794187778423000,0.371423095703125,0.08331520855426788,0.23029814660549164,-0.07957533746957779
1772794187788467200,0.38146728515625,0.05532430112361908,0.21808813512325287,-0.0794139876961708
1772794187798512000,0.39151220703125,0.023644668981432915,0.19540280103683472,-0.07804672420024872
1772794187808557300,0.401557373046875,0.01130572147667408,0.16183029115200043,-0.08967898786067963
1772794187818602000,0.41160205078125,0.012714000418782234,0.09704756736755371,-0.07952568680047989
1772794187828647200,0.421647216796875,-0.013958335854113102,0.026063350960612297,-0.02594817616045475
1772794187838691300,0.43169140625,-0.04538922756910324,-0.06268169730901718,0.03982231393456459
1772794187848736300,0.441736328125,-0.058994848281145096,-0.13400898873806,0.10006103664636612
1772794187858781200,0.45178125,-0.07396315038204193,-0.1686958521604538,0.14057676494121552
1772794187868826000,0.461826171875,-0.08947985619306564,-0.2405642867088318,0.14341726899147034
1772794187878870300,0.471870361328125,-0.0590074360370636,-0.3041115701198578,0.13193504512310028
1772794187888915200,0.481915283203125,-0.031354330480098724,-0.3604213297367096,0.12252499163150787
1772794187898960100,0.491960205078125,-0.03745776042342186,-0.41414716839790344,0.13263994455337524
1772794187909005000,0.502005126953125,-0.07223054766654968,-0.4346367418766022,0.15320445597171783
1772794187919049200,0.51204931640625,-0.08556099981069565,-0.42876073718070984,0.15930335223674774
1772794187929094100,0.52209423828125,-0.05678143352270126,-0.39114558696746826,0.16078229248523712
1772794187939139000,0.53213916015625,0.004437449388206005,-0.3147304356098175,0.16521938145160675
1772794187949184300,0.542184326171875,0.05026737600564957,-0.1938324123620987,0.15857373178005219
1772794187959228200,0.552228271484375,0.0439106784760952,-0.1338449865579605,0.13468250632286072
1772794187969273000,0.562273193359375,0.01871444284915924,-0.14287133514881134,0.09390202164649963
1772794187979318000,0.572318115234375,-0.00524228997528553,-0.15229973196983337,0.06628424674272537
1772794187989363200,0.58236328125,-0.019460661336779594,-0.12771283090114594,0.06737370789051056
1772794187999407400,0.592407470703125,-0.02995964139699936,-0.0800747498869896,0.08969339728355408
1772794188009452000,0.6024521484375,-0.03713314235210419,-0.03747892379760742,0.12158645689487457
1772794188019497200,0.612497314453125,-0.06243903189897537,-0.049362216144800186,0.14394156634807587
1772794188029542100,0.622542236328125,-0.0924491137266159,-0.08424940705299377,0.15821827948093414
1772794188039587300,0.63258740234375,-0.11825381219387054,-0.09072595089673996,0.16235098242759705
1772794188049631200,0.64263134765625,-0.12586365640163422,-0.08451808243989944,0.15962019562721252
1772794188059676200,0.65267626953125,-0.16745077073574066,-0.06470522284507751,0.14553126692771912
1772794188069721300,0.662721435546875,-0.19536668062210083,-0.1138736680150032,0.12544411420822144
1772794188079766300,0.672766357421875,-0.1772257685661316,-0.14281824231147766,0.10432206094264984
1772794188089810200,0.68281005859375,-0.14018043875694275,-0.1682925820350647,0.07654841244220734
1772794188099855000,0.692855224609375,-0.1015629991889,-0.157766193151474,0.05382072925567627
1772794188109900300,0.702900390625,-0.08021928369998932,-0.12842166423797607,0.0316334031522274
1772794188119945200,0.7129453125,-0.07500907778739929,-0.11612851172685623,0.010891903191804886
1772794188129989000,0.722989013671875,-0.06757703423500061,-0.10029724985361099,-0.003723601344972849
1772794188140034300,0.733034423828125,-0.05021189525723457,-0.06164492666721344,-0.015365609899163246
1772794188150079200,0.743079345703125,-0.036073796451091766,-0.011248760856688023,-0.02487606555223465
1772794188160124400,0.75312451171875,-0.025281872600317,0.029699737206101418,-0.025435592979192734
1772794188170169000,0.763169189453125,-0.024256153032183647,0.04911264404654503,-0.025498326867818832
1772794188180213200,0.773213134765625,-0.024194899946451187,0.0597865916788578,-0.024435194209218025
1772794188190258200,0.783258056640625,-0.022231947630643845,0.0558769628405571,-0.023926911875605583
1772794188200303000,0.79330322265625,-0.019988765940070152,0.07741474360227585,-0.03667839616537094
1772794188210348000,0.80334814453125,-0.021806033328175545,0.10701653361320496,-0.053895995020866394
1772794188220392200,0.81339208984375,-0.03821589797735214,0.09893916547298431,-0.0807608962059021
1772794188230437400,0.823437255859375,-0.060300469398498535,0.07506775110960007,-0.10647033154964447
1772794188240482000,0.83348193359375,-0.08325106650590897,0.03575550392270088,-0.12096884846687317
1772794188250527200,0.84352734375,-0.0974263995885849,0.003122773952782154,-0.09528049826622009
1772794188260571100,0.853571044921875,-0.1016341894865036,-0.01882699877023697,-0.041308075189590454
1772794188270616300,0.8636162109375,-0.10389245301485062,-0.03416983783245087,0.02555781789124012
1772794188280661000,0.873660888671875,-0.09393622726202011,-0.027591563761234283,0.0732121542096138
1772794188290706200,0.8837060546875,-0.07380492240190506,0.013584258034825325,0.08359010517597198
1772794188300750300,0.893750244140625,-0.04342970624566078,0.07303453236818314,0.05260822921991348
1772794188310795000,0.903794921875,-0.010824572294950485,0.13973021507263184,-0.0004014987498521805
1772794188320840200,0.913840087890625,0.012388337403535843,0.18458157777786255,-0.03980136662721634
1772794188330885000,0.923885009765625,0.019536925479769707,0.2034558653831482,-0.04634620621800423
1772794188340929300,0.93392919921875,0.021107925102114677,0.19073660671710968,-0.022968711331486702
1772794188350974200,0.94397412109375,0.013344082981348038,0.16993673145771027,0.010069401934742928
1772794188361019100,0.95401904296875,0.0050478046759963036,0.14088697731494904,0.023471761494874954
1772794188371064000,0.96406396484375,0.011318248696625233,0.0926571860909462,0.031407374888658524
1772794188381109200,0.974109130859375,-0.014307485893368721,0.07058437168598175,0.012274689972400665
1772794188391153200,0.984153076171875,-0.034563079476356506,0.041424259543418884,-0.0276506170630455
1772794188401198000,0.994197998046875,-0.047973159700632095,0.039689209312200546,-0.06067248433828354
1772794188411243300,1.0042431640625,-0.06473943591117859,0.05270029231905937,-0.09509000182151794
1772794188421288200,1.0142880859375,-0.09401290118694305,0.059460192918777466,-0.1199340969324112
1772794188431332400,1.024332275390625,-0.12079904228448868,0.05631355941295624,-0.1347866654396057
1772794188441377300,1.034377197265625,-0.144282266497612,0.0563252791762352,-0.13681039214134216
1772794188451422500,1.04442236328125,-0.18852359056472778,0.07891937345266342,-0.1367981880903244
1772794188461467400,1.05446728515625,-0.216487318277359,0.07374165952205658,-0.1430579423904419
1772794188471511300,1.06451123046875,-0.19934514164924622,0.0807454064488411,-0.14172054827213287
1772794188481556500,1.074556396484375,-0.1743583083152771,0.07184139639139175,-0.13410045206546783
1772794188491601400,1.084601318359375,-0.1521216183900833,0.061000239104032516,-0.11334554851055145
1772794188501646600,1.094646484375,-0.1348603367805481,0.05138383433222771,-0.10406336933374405
1772794188511691300,1.104691162109375,-0.12878404557704926,0.044524651020765305,-0.1054549515247345
1772794188521735400,1.1147353515625,-0.14338456094264984,0.016899678856134415,-0.12021951377391815
1772794188531780600,1.124780517578125,-0.12116257101297379,0.01947341486811638,-0.12890708446502686
1772794188541825500,1.134825439453125,-0.09391417354345322,0.043390464037656784,-0.12962613999843597
1772794188551870500,1.144870361328125,-0.067997507750988,0.07866308093070984,-0.11495231091976166
1772794188561914400,1.154914306640625,-0.04564160108566284,0.11512202024459839,-0.09414982795715332
1772794188571959600,1.16495947265625,-0.00716464314609766,0.11817005276679993,-0.056716665625572205
1772794188582004500,1.17500439453125,0.03751228004693985,0.12270621210336685,-0.009829850867390633
1772794188592049400,1.18504931640625,0.07434223592281342,0.12181730568408966,0.04179837927222252
1772794188602093600,1.195093505859375,0.09329328685998917,0.10153946280479431,0.0857677012681961
1772794188612138500,1.205138427734375,0.10103293508291245,0.07276289165019989,0.1155584305524826
1772794188622183400,1.215183349609375,0.10823225975036621,0.07154369354248047,0.11028110980987549
1772794188632228400,1.225228271484375,0.12284082174301147,0.0631396695971489,0.08108872175216675
1772794188642272500,1.2352724609375,0.11427795886993408,0.04434867203235626,0.03786348178982735
1772794188652317400,1.2453173828125,0.1021813452243805,0.023942358791828156,-0.008805902674794197
1772794188662362400,1.2553623046875,0.08904530107975006,0.030494533479213715,-0.03730145841836929
1772794188672407300,1.2654072265625,0.039897654205560684,0.05641086772084236,-0.06961199641227722
1772794188682452500,1.275452392578125,-0.008973749354481697,0.031230680644512177,-0.10365917533636093
1772794188692496600,1.28549658203125,-0.02262200601398945,0.006805987562984228,-0.13023945689201355
1772794188702541300,1.295541259765625,-0.026642845943570137,0.013077463954687119,-0.1561211198568344
1772794188712586500,1.30558642578125,-0.021130921319127083,0.05192398279905319,-0.1756674349308014
1772794188722631400,1.31563134765625,-0.008363462053239346,0.08169359713792801,-0.17798331379890442
1772794188732675600,1.325675537109375,0.01358965877443552,0.10238571465015411,-0.17029592394828796
1772794188742720300,1.33572021484375,0.02552274987101555,0.13593648374080658,-0.1637706458568573
1772794188752765400,1.345765380859375,0.028069809079170227,0.16113701462745667,-0.15967455506324768
1772794188762810400,1.355810302734375,0.02748551219701767,0.17358648777008057,-0.15204086899757385
1772794188772854300,1.365854248046875,0.03131350502371788,0.15524792671203613,-0.14133940637111664
1772794188782899500,1.3758994140625,0.034891463816165924,0.10361028462648392,-0.13040447235107422
1772794188792944400,1.3859443359375,0.0318906232714653,0.04463548958301544,-0.11408393085002899
1772794188802989600,1.395989501953125,0.024137895554304123,-0.0070532686077058315,-0.1065881997346878
1772794188813033200,1.406033203125,0.004835388623178005,-0.048705052584409714,-0.10889247804880142
1772794188823078400,1.416078369140625,0.0017128321342170238,-0.06842949241399765,-0.11215618252754211
1772794188833123300,1.426123291015625,0.016050120815634727,-0.04051636531949043,-0.13214020431041718
1772794188843168500,1.43616845703125,0.04854787886142731,0.0025091287679970264,-0.16201820969581604
1772794188853212400,1.44621240234375,0.06537113338708878,0.015272704884409904,-0.175932839512825
1772794188863257300,1.45625732421875,0.06431145966053009,0.007983898743987083,-0.17560313642024994
1772794188873302500,1.466302490234375,0.04586489871144295,0.004157633520662785,-0.16164228320121765
1772794188883347500,1.476347412109375,0.039958808571100235,-0.012724943459033966,-0.1386416256427765
1772794188893392400,1.486392333984375,0.07041774690151215,-0.002656178316101432,-0.12737703323364258
1772794188903436500,1.4964365234375,0.08779141306877136,-0.026823831722140312,-0.10769413411617279
1772794188913481500,1.5064814453125,0.0977460965514183,-0.05240178853273392,-0.08231649547815323
1772794188923526400,1.5165263671875,0.09765635430812836,-0.06291461735963821,-0.043346989899873734
1772794188933571300,1.5265712890625,0.08322980999946594,-0.04023076593875885,-0.0015634727897122502
1772794188943615500,1.536615478515625,0.09506063163280487,-0.03950505331158638,0.029368344694375992
1772794188953660400,1.546660400390625,0.10584510862827301,-0.04180442541837692,0.03952217847108841
1772794188963705600,1.55670556640625,0.09478393197059631,-0.050723087042570114,0.03258757293224335
1772794188973750300,1.566750244140625,0.08640851080417633,-0.05289478972554207,0.019581416621804237
1772794188983794400,1.57679443359375,0.0649905726313591,-0.059187572449445724,0.018552105873823166
1772794188993839600,1.586839599609375,0.04292059689760208,-0.05717199295759201,0.018668444827198982
1772794189003884300,1.59688427734375,0.03263573721051216,-0.037568461149930954,0.025475218892097473
1772794189013929500,1.606929443359375,0.02562396228313446,-0.016828985884785652,0.021612418815493584
1772794189023973400,1.616973388671875,0.011908414773643017,-0.02024076133966446,0.014956912025809288
1772794189034018600,1.6270185546875,0.004874740727245808,-0.036161139607429504,0.007137073203921318
1772794189044063200,1.637063232421875,-0.005365912802517414,-0.03950393572449684,-0.004307861905544996
1772794189054108400,1.6471083984375,-0.015790313482284546,-0.045528434216976166,-0.021803878247737885
1772794189064153300,1.6571533203125,-0.025111909955739975,-0.04683072119951248,-0.018853362649679184
1772794189074197500,1.667197509765625,-0.03118690848350525,-0.05260269716382027,0.0019109221175312996
1772794189084242400,1.677242431640625,-0.04011329263448715,-0.043811868876218796,0.028675692155957222
1772794189094287400,1.687287353515625,-0.04599294811487198,-0.04101213812828064,0.048851270228624344
1772794189104332500,1.69733251953125,-0.04695195332169533,-0.04524337127804756,0.059200312942266464
1772794189114376400,1.70737646484375,-0.05372746288776398,-0.052460651844739914,0.06360246986150742
1772794189124421400,1.71742138671875,-0.07059140503406525,-0.07319868355989456,0.054638542234897614
1772794189134466300,1.72746630859375,-0.08196798712015152,-0.11311536282300949,0.04417635500431061
1772794189144511500,1.737511474609375,-0.08531105518341064,-0.13200703263282776,0.04273984581232071
1772794189154555400,1.747555419921875,-0.0875992551445961,-0.12386824190616608,0.06156504899263382
1772794189164600300,1.757600341796875,-0.09288883209228516,-0.12455826997756958,0.08705362677574158
1772794189174645500,1.7676455078125,-0.1067553237080574,-0.1459953933954239,0.11165507882833481
1772794189184690400,1.7776904296875,-0.1340322196483612,-0.16922295093536377,0.13186873495578766
1772794189194734300,1.787734375,-0.15645112097263336,-0.18394586443901062,0.12491335719823837
1772794189204779300,1.797779296875,-0.17842167615890503,-0.192249596118927,0.114041268825531
1772794189214824400,1.807824462890625,-0.18738359212875366,-0.20381101965904236,0.10287570208311081
1772794189224869400,1.817869384765625,-0.19630278646945953,-0.20811282098293304,0.09922264516353607
1772794189234913300,1.827913330078125,-0.2014659196138382,-0.20091813802719116,0.08777306228876114
1772794189244958500,1.83795849609375,-0.19689247012138367,-0.174292653799057,0.07644770294427872
1772794189255003400,1.84800341796875,-0.19086302816867828,-0.15315833687782288,0.061050865799188614
1772794189265048600,1.858048583984375,-0.19740401208400726,-0.14355656504631042,0.04407934099435806
1772794189275093200,1.86809326171875,-0.21517939865589142,-0.14987939596176147,0.022773554548621178
1772794189285137400,1.878137451171875,-0.21473199129104614,-0.15216971933841705,0.006230796687304974
1772794189295182600,1.8881826171875,-0.20892466604709625,-0.13697659969329834,0.0024935079272836447
1772794189305227500,1.8982275390625,-0.20028483867645264,-0.1106850653886795,0.00017495988868176937
1772794189315272400,1.9082724609375,-0.1729656159877777,-0.07457654923200607,0.007060258183628321
1772794189325316400,1.91831640625,-0.14392252266407013,-0.05583908036351204,0.01818268373608589
1772794189335361500,1.928361572265625,-0.12926411628723145,-0.03896714746952057,0.019043076783418655
1772794189345406500,1.938406494140625,-0.11500927805900574,-0.016972370445728302,0.01564808003604412
1772794189355451400,1.948451416015625,-0.10443054884672165,-0.012574591673910618,-0.0029751427937299013
1772794189365495600,1.95849560546875,-0.09214086085557938,-0.008359872736036777,-0.02029687538743019
1772794189375540500,1.96854052734375,-0.08160796761512756,-0.003040310926735401,-0.04318856820464134
1772794189385585700,1.978585693359375,-0.08782298862934113,0.0016204877756536007,-0.050547145307064056
1772794189395630300,1.98863037109375,-0.07003690302371979,-0.007993262261152267,-0.0396915003657341
1772794189405674500,1.998674560546875,-0.04928155243396759,-0.0026586847379803658,-0.012324588373303413
1772794189415719400,2.008719482421875,-0.04122978076338768,0.009335605427622795,0.017774000763893127
1772794189425764400,2.018764404296875,-0.05417114868760109,0.012420078739523888,0.031132683157920837
1772794189435809300,2.028809326171875,-0.06893067806959152,0.007155061699450016,0.0329851396381855
1772794189445853400,2.038853515625,-0.08037055283784866,0.008374523371458054,0.03774234279990196
1772794189455898600,2.048898681640625,-0.08442378789186478,0.012470096349716187,0.05877363309264183
1772794189465943300,2.058943359375,-0.08904676884412766,-0.000967149157077074,0.08674534410238266
1772794189475988500,2.068988525390625,-0.09128424525260925,-0.018960151821374893,0.10564614087343216
1772794189486032400,2.079032470703125,-0.10167403519153595,-0.04614836722612381,0.11470834910869598
1772794189496077600,2.08907763671875,-0.10514592379331589,-0.0570262148976326,0.1130569577217102
1772794189506122200,2.099122314453125,-0.09903822839260101,-0.052243709564208984,0.11990208178758621
1772794189516167400,2.10916748046875,-0.1042618378996849,-0.03616028651595116,0.12417281419038773
1772794189526212400,2.11921240234375,-0.11848045140504837,-0.044332195073366165,0.1175183653831482
1772794189536256500,2.129256591796875,-0.09837599098682404,-0.05665448307991028,0.1046556755900383
1772794189546301400,2.139301513671875,-0.06578981876373291,-0.05955599620938301,0.09141550958156586
1772794189556346400,2.149346435546875,-0.039074115455150604,-0.0330485962331295,0.08037286251783371
1772794189566391600,2.1593916015625,-0.01871851086616516,-0.0024214470759034157,0.0670810267329216
1772794189576435200,2.169435302734375,-0.0027759885415434837,0.002410754095762968,0.05157537758350372
1772794189586480400,2.17948046875,-0.0006515850545838475,0.027314240112900734,0.028348617255687714
1772794189596525300,2.189525390625,0.001962093636393547,0.02459009364247322,-0.004629075992852449
1772794189606570500,2.199570556640625,0.007125962525606155,0.004899746738374233,-0.027833731845021248
1772794189616614400,2.209614501953125,0.020219821482896805,0.0036014514043927193,-0.037922509014606476
1772794189626659300,2.219659423828125,0.029356062412261963,-0.005146500188857317,-0.039315078407526016
1772794189636704500,2.22970458984375,0.0261542908847332,-0.02815071865916252,-0.03371471166610718
1772794189646749400,2.23974951171875,0.02736842632293701,-0.03695007041096687,-0.018037214875221252
1772794189656793300,2.24979345703125,0.02439115382730961,-0.042386867105960846,0.006245521828532219
1772794189666838500,2.259838623046875,0.024196475744247437,-0.04000519961118698,0.018178880214691162
1772794189676883500,2.269883544921875,0.013967795297503471,-0.03880635276436806,0.02602280303835869
1772794189686928400,2.279928466796875,0.00433247908949852,-0.03370027244091034,0.03542881831526756
1772794189696972300,2.28997216796875,-0.008910058066248894,-0.02208697237074375,0.04478389769792557
1772794189707017500,2.300017578125,-0.01391307171434164,-0.01829409785568714,0.05520538240671158
1772794189717062400,2.3100625,-0.026973767206072807,-0.017842907458543777,0.051305141299963
1772794189727107600,2.320107666015625,-0.03771882504224777,-0.033461011946201324,0.029550842940807343
1772794189737152300,2.33015234375,-0.042591385543346405,-0.05151527747511864,0.007279017940163612
1772794189747196400,2.340196533203125,-0.03908000886440277,-0.05672042444348335,0.0068513136357069016
1772794189757241600,2.35024169921875,-0.025622501969337463,-0.0566544309258461,0.020223883911967278
1772794189767286500,2.36028662109375,-0.019792042672634125,-0.06081269308924675,0.04525227099657059
1772794189777331500,2.37033154296875,-0.01855294592678547,-0.06244010105729103,0.06411224603652954
1772794189787375400,2.380375244140625,-0.017088208347558975,-0.04641559347510338,0.07155124843120575
1772794189797420500,2.390420654296875,-0.019649488851428032,-0.03751327842473984,0.06721509248018265
1772794189807465500,2.400465576171875,-0.024530265480279922,-0.03543201833963394,0.05171602964401245
1772794189817510400,2.410510498046875,-0.026685398072004318,-0.03975912556052208,0.028886955231428146
1772794189827554600,2.420554443359375,-0.026596449315547943,-0.035336680710315704,-0.0036291766446083784
1772794189837599500,2.430599609375,-0.029054056853055954,-0.028164949268102646,-0.03621835634112358
1772794189847644400,2.44064453125,-0.02956218831241131,-0.029845139011740685,-0.06875152885913849
1772794189857689300,2.450689453125,-0.02669709548354149,-0.029691364616155624,-0.09601233154535294
1772794189867733500,2.4607333984375,-0.021938294172286987,-0.029453013092279434,-0.12017332762479782
1772794189877778400,2.4707783203125,-0.022637248039245605,-0.0392867811024189,-0.1304028332233429
1772794189887823400,2.4808232421875,-0.03404835984110832,-0.03816372528672218,-0.11806893348693848
1772794189897868300,2.490868408203125,-0.04559803009033203,-0.029855946078896523,-0.08709743618965149
1772794189907912400,2.500912353515625,-0.057483986020088196,-0.019224606454372406,-0.038203928619623184
1772794189917957600,2.51095751953125,-0.06425247341394424,-0.01561267115175724,0.012100936844944954
1772794189928002300,2.521002197265625,-0.07062594592571259,-0.006806928664445877,0.05998031049966812
1772794189938047500,2.531047607421875,-0.0779704749584198,0.0016506281681358814,0.10292766243219376
1772794189948091400,2.54109130859375,-0.07836408913135529,-0.005311140790581703,0.13089032471179962
1772794189958136300,2.55113623046875,-0.07984070479869843,-0.014577338472008705,0.1448151171207428
1772794189968181200,2.56118115234375,-0.07510427385568619,-0.024641424417495728,0.14051011204719543
1772794189978226400,2.571226318359375,-0.0707116425037384,-0.038300830870866776,0.11411663144826889
1772794189988271400,2.581271240234375,-0.059879496693611145,-0.04892551153898239,0.08944058418273926
1772794189998315300,2.591315185546875,-0.045081377029418945,-0.04796091467142105,0.071070097386837
1772794190008360400,2.6013603515625,-0.03302152082324028,-0.04355790838599205,0.061501093208789825
1772794190018405400,2.6114052734375,-0.02684081345796585,-0.03986207768321037,0.06130382791161537
1772794190028450600,2.621450439453125,-0.027187291532754898,-0.03812170401215553,0.05996159464120865
1772794190038494500,2.631494384765625,-0.02740221843123436,-0.042918696999549866,0.048074424266815186
1772794190048539400,2.641539306640625,-0.023895101621747017,-0.038275208324193954,0.041519585996866226
1772794190058584600,2.65158447265625,-0.022485891357064247,-0.038176730275154114,0.0428830049932003
1772794190068629500,2.66162939453125,-0.019167326390743256,-0.03922228515148163,0.044166650623083115
1772794190078673400,2.67167333984375,-0.02113770693540573,-0.042719386518001556,0.04340609163045883
1772794190088718300,2.68171826171875,-0.018341653048992157,-0.03720424696803093,0.04527642950415611
1772794190098763500,2.691763427734375,-0.013534328900277615,-0.022001590579748154,0.06070594862103462
1772794190108808400,2.701808349609375,-0.015855273231863976,-0.01565341278910637,0.08360034972429276
1772794190118852400,2.711852294921875,-0.01497165858745575,-0.009600793942809105,0.09976383298635483
1772794190128897500,2.7218974609375,-0.0120853241533041,-0.0014075790531933308,0.1085333526134491
1772794190138942500,2.7319423828125,0.0015684470999985933,0.000965670682489872,0.10937533527612686
1772794190148987600,2.741987548828125,0.001644613454118371,0.0007478240877389908,0.11125392466783524
1772794190159031300,2.75203125,-0.0030375320930033922,0.014667206443846226,0.10045100003480911
1772794190169076500,2.762076416015625,-0.003986682742834091,0.04135527461767197,0.0738191232085228
1772794190179121400,2.772121337890625,-0.0014208623906597495,0.05879919230937958,0.041258666664361954
1772794190189166600,2.78216650390625,-0.005712013691663742,0.056907013058662415,0.01313542015850544
1772794190199210500,2.79221044921875,0.00043126672971993685,0.051949918270111084,-0.002556148450821638
1772794190209255400,2.80225537109375,0.004804177209734917,0.04104720056056976,-0.018021125346422195
1772794190219300600,2.812300537109375,0.007227507885545492,0.023700270801782608,-0.03400355949997902
1772794190229345300,2.82234521484375,0.010342607274651527,0.005395832005888224,-0.05013512447476387
1772794190239389400,2.832389404296875,0.021170951426029205,-0.00600046431645751,-0.05891399830579758
1772794190249434400,2.842434326171875,0.02660539746284485,-0.008915293961763382,-0.056205298751592636
1772794190259479600,2.8524794921875,0.027227237820625305,-0.00008861999958753586,-0.03350440040230751
1772794190269524200,2.862524169921875,0.02876974083483219,0.0187484510242939,-0.017841285094618797
1772794190279568400,2.872568359375,0.031209241598844528,0.03456511348485947,-0.011826540343463421
1772794190289613600,2.882613525390625,0.03280367702245712,0.051759812980890274,-0.013488619588315487
1772794190299658500,2.892658447265625,0.036337610334157944,0.05875200778245926,-0.01611095294356346
1772794190309703400,2.902703369140625,0.03900876268744469,0.05621454119682312,-0.022517453879117966
1772794190319748400,2.912748291015625,0.03595699369907379,0.052275724709033966,-0.025539573282003403
1772794190329792500,2.92279248046875,0.029537711292505264,0.04235997796058655,-0.03841781988739967
1772794190339837400,2.93283740234375,0.012782391160726547,0.01338888704776764,-0.05169695243239403
1772794190349882400,2.94288232421875,0.006504522170871496,-0.010761456564068794,-0.06134052202105522
1772794190359927300,2.95292724609375,0.010842874646186829,-0.015030128881335258,-0.051021721214056015
1772794190369971500,2.962971435546875,0.006770367734134197,-0.020365504547953606,-0.02933293953537941
1772794190380016400,2.973016357421875,0.002199595095589757,-0.01315062865614891,0.004147674422711134
1772794190390061300,2.983061279296875,-0.004657245706766844,0.01073659397661686,0.042064961045980453
1772794190400106500,2.9931064453125,-0.008591381832957268,0.023010458797216415,0.07106298208236694
1772794190410150400,3.003150390625,-0.00935863796621561,0.022122561931610107,0.08397718518972397
1772794190420195300,3.0131953125,-0.01077961828559637,0.009863022714853287,0.08318877220153809
1772794190430240000,3.023239990234375,-0.006836807820945978,-0.012193809263408184,0.07614444196224213
1772794190440285000,3.033284912109375,-0.0010340671287849545,-0.026078414171934128,0.06258918344974518
1772794190450329000,3.0433291015625,0.008639865554869175,-0.03962910920381546,0.04467250034213066
1772794190460373800,3.053373779296875,0.01953219249844551,-0.062279026955366135,0.03333515673875809
1772794190470419000,3.0634189453125,0.02951665222644806,-0.06936730444431305,0.03528432548046112
1772794190480464000,3.0734638671875,0.03524123877286911,-0.05963573977351189,0.050051815807819366
1772794190490508000,3.083508056640625,0.042875986546278,-0.03432852029800415,0.0695730522274971
1772794190500553000,3.093552978515625,0.05111953243613243,-0.006207658443599939,0.07580839842557907
1772794190510598000,3.103597900390625,0.04817940294742584,0.01619831472635269,0.06777443736791611
1772794190520643000,3.11364306640625,0.04659759998321533,0.02701670676469803,0.04870060831308365
1772794190530687000,3.12368701171875,0.03816896304488182,0.035482365638017654,0.012317032553255558
1772794190540732000,3.13373193359375,0.039163410663604736,0.02886808291077614,-0.03181177377700806
1772794190550776800,3.14377685546875,0.04076716676354408,0.025291457772254944,-0.07003452628850937
1772794190560822000,3.153822021484375,0.03429311513900757,0.02423541247844696,-0.09999105334281921
1772794190570866000,3.163865966796875,0.03822047635912895,0.017279237508773804,-0.11964251846075058
1772794190580910800,3.173910888671875,0.044486675411462784,0.014746187254786491,-0.12552490830421448
1772794190590956000,3.1839560546875,0.05216403678059578,0.01256825402379036,-0.122076116502285
1772794190601001000,3.1940009765625,0.058373354375362396,0.010256905108690262,-0.09735171496868134
1772794190611044900,3.204044921875,0.0628698393702507,0.00933971256017685,-0.07085619121789932
1772794190621090000,3.214090087890625,0.062282249331474304,0.015950845554471016,-0.03476746380329132
1772794190631135000,3.224135009765625,0.05802358686923981,0.020019089803099632,-0.00702718086540699
1772794190641180200,3.23418017578125,0.049077026546001434,0.023451481014490128,0.004679392091929913
1772794190651225000,3.24422509765625,0.03989231586456299,0.021610170602798462,0.006020027212798595
1772794190661269000,3.25426904296875,0.03577040135860443,-0.00045576319098472595,0.0031973079312592745
1772794190671314000,3.26431396484375,0.029344992712140083,0.0069406344555318356,0.0037424571346491575
1772794190681359000,3.274359130859375,0.027156293392181396,-0.010283472016453743,0.014922327362000942
1772794190691403800,3.28440380859375,0.027156293392181396,-0.017102230340242386,0.03804069757461548
1772794190701448000,3.294447998046875,0.03344343230128288,-0.019376304000616074,0.061085864901542664
1772794190711493000,3.3044931640625,0.03847334533929825,-0.021440254524350166,0.07422030717134476
1772794190721538000,3.3145380859375,0.04379405453801155,-0.019268542528152466,0.08319135755300522
1772794190731583000,3.3245830078125,0.03475022688508034,-0.01675957813858986,0.08972755819559097
1772794190741627000,3.334626953125,0.028338756412267685,-0.017150752246379852,0.08650679886341095
1772794190751672000,3.344672119140625,0.01850103959441185,-0.015879090875387192,0.07599610090255737
1772794190761717000,3.354717041015625,0.03035052865743637,0.011328775435686111,0.05736147612333298
1772794190771762000,3.364761962890625,0.02487853169441223,0.013974359259009361,0.04642041027545929
1772794190781806000,3.37480615234375,0.006999603472650051,0.015581732615828514,0.04024362564086914
1772794190791851000,3.38485107421875,-0.003885534591972828,-0.0010726102627813816,0.03031962364912033
1772794190801896000,3.39489599609375,0.0040175579488277435,-0.007056472357362509,0.01810137741267681
1772794190811940900,3.40494091796875,0.01122353971004486,0.0034923083148896694,0.00004434713628143072
1772794190821985000,3.414985107421875,0.011661659926176071,-0.0024571381509304047,-0.014994066208600998
1772794190832030000,3.425030029296875,0.009603036567568779,0.006988294888287783,-0.0162726491689682
1772794190842075000,3.435074951171875,0.021181724965572357,0.02353835105895996,-0.015101541765034199
1772794190852119800,3.445119873046875,0.024729056283831596,0.03387434780597687,-0.014104454778134823
1772794190862164000,3.4551640625,0.023793507367372513,0.04932036250829697,-0.014514275826513767
1772794190872209200,3.465209228515625,0.021278418600559235,0.05194650590419769,-0.02142038568854332
1772794190882253800,3.47525390625,0.022791605442762375,0.054013438522815704,-0.027460739016532898
1772794190892299000,3.485299072265625,0.020915409550070763,0.04684021323919296,-0.03722894936800003
1772794190902343000,3.495343017578125,0.024652142077684402,0.03126445412635803,-0.043292202055454254
1772794190912388000,3.50538818359375,0.02133863791823387,0.014440463855862617,-0.046606238931417465
1772794190922433000,3.51543310546875,0.012004727497696877,-0.0023183845914900303,-0.04380897432565689
1772794190932478000,3.52547802734375,0.006095971912145615,-0.003937054425477982,-0.033716924488544464
1772794190942522000,3.535522216796875,0.0014357066247612238,-0.012789402157068253,-0.015076660551130772
1772794190952566800,3.54556689453125,-0.000634634867310524,-0.009479625150561333,0.011577853001654148
1772794190962612000,3.555612060546875,-0.009671643376350403,-0.00007307948544621468,0.03771978244185448
1772794190972657000,3.565656982421875,-0.0217586662620306,0.009607776999473572,0.055578142404556274
1772794190982702000,3.5757021484375,-0.033744197338819504,0.01662793755531311,0.06392556428909302
1772794190992746000,3.58574609375,-0.041637539863586426,0.023044824600219727,0.056262049823999405
1772794191002791000,3.595791015625,-0.04779205843806267,0.014374520629644394,0.03764202073216438
1772794191012836000,3.605836181640625,-0.0440380685031414,-0.0038489585276693106,0.010698020458221436
1772794191022881000,3.615881103515625,-0.041467491537332535,-0.018490321934223175,-0.008633293211460114
1772794191032925000,3.625925048828125,-0.0358884334564209,-0.03605227172374725,-0.02227613516151905
1772794191042969900,3.635969970703125,-0.03097914159297943,-0.04242420196533203,-0.023410337045788765
1772794191053015000,3.64601513671875,-0.03049524500966072,-0.03461022302508354,-0.016065336763858795
1772794191063060000,3.65606005859375,-0.02403070777654648,-0.02404833771288395,0.002216425258666277
1772794191073104000,3.666103759765625,-0.019180292263627052,-0.012776508927345276,0.02092832699418068
1772794191083149000,3.676149169921875,-0.01739809662103653,-0.00663967989385128,0.030672453343868256
1772794191093194000,3.686194091796875,-0.014882473275065422,0.00786256417632103,0.03689998760819435
1772794191103239200,3.6962392578125,-0.004919843748211861,0.015507541596889496,0.037663403898477554
1772794191113282800,3.70628271484375,0.00010447594104334712,0.015745894983410835,0.02169375866651535
1772794191123328000,3.716327880859375,0.00607225950807333,0.016852539032697678,0.004002072848379612
1772794191133373000,3.726373046875,0.008314907550811768,0.022541850805282593,-0.011059967800974846
1772794191143418000,3.736418212890625,0.0125411506742239,0.025741854682564735,-0.020394878461956978
1772794191153462000,3.7464619140625,0.011315297335386276,0.027137884870171547,-0.02534889057278633
1772794191163507000,3.7565068359375,0.01211711298674345,0.031243301928043365,-0.02784864790737629
1772794191173552000,3.76655224609375,0.010575142689049244,0.034308869391679764,-0.033898286521434784
1772794191183597000,3.77659716796875,0.00672396644949913,0.03837919235229492,-0.04013270512223244
1772794191193641000,3.786640869140625,0.005340187810361385,0.04704724997282028,-0.04237109422683716
1772794191203686000,3.796685791015625,0.009439550340175629,0.05535002425312996,-0.040071263909339905
1772794191213731000,3.80673095703125,0.01008137222379446,0.06077594682574272,-0.02776453271508217
1772794191223775700,3.816775634765625,0.010790785774588585,0.06839950382709503,-0.02046583592891693
1772794191233820000,3.82681982421875,0.008426165208220482,0.06756274402141571,-0.02408027835190296
1772794191243865000,3.836864990234375,0.00912414863705635,0.06322040408849716,-0.0349874421954155
1772794191253910000,3.846909912109375,0.01014387235045433,0.06043447181582451,-0.04519161209464073
1772794191263955000,3.856954833984375,0.011045712977647781,0.053953301161527634,-0.05881097540259361
1772794191274000000,3.866999755859375,0.012342406436800957,0.03974054381251335,-0.05688737332820892
1772794191284044000,3.8770439453125,0.014141084626317024,0.024532349780201912,-0.051874011754989624
1772794191294089000,3.8870888671875,0.01803435944020748,0.020718703046441078,-0.03338075801730156
1772794191304134000,3.8971337890625,0.025434918701648712,0.020392313599586487,-0.009889770299196243
1772794191314178800,3.9071787109375,0.026953186839818954,0.015127776190638542,0.005961630493402481
1772794191324223000,3.917222900390625,0.028262067586183548,0.007246042601764202,0.014482298865914345
1772794191334268200,3.92726806640625,0.02724926732480526,-0.0013913880102336407,0.022052332758903503
1772794191344312800,3.937312744140625,0.03149432688951492,-0.005917911417782307,0.025858484208583832
1772794191354358000,3.94735791015625,0.03592582792043686,-0.008522216230630875,0.03763365000486374
1772794191364402200,3.957402099609375,0.03935912996530533,-0.01052267849445343,0.04070606082677841
1772794191374446800,3.96744677734375,0.04308808594942093,-0.012309659272432327,0.04804466664791107
1772794191384492000,3.977491943359375,0.040684670209884644,-0.014682745561003685,0.043350204825401306
1772794191394535200,3.98753515625,0.04232411086559296,-0.018729152157902718,0.035648077726364136
1772794191404579800,3.997579833984375,0.04361806809902191,-0.02312811091542244,0.03398306667804718
1772794191414624000,4.0076240234375,0.0457049198448658,-0.03214717283844948,0.033711954951286316
1772794191424669000,4.0176689453125,0.04363756254315376,-0.040234390646219254,0.034035760909318924
1772794191434713900,4.0277138671875,0.04081301391124725,-0.02692657709121704,0.04182630404829979
1772794191444758800,4.0377587890625,0.028856156393885612,-0.022723950445652008,0.05253902077674866
1772794191454803000,4.047802978515625,0.012084100395441055,-0.03466742858290672,0.05609887093305588
1772794191464848100,4.05784814453125,0.008805065415799618,-0.05397683382034302,0.06549777835607529
1772794191474892800,4.067892822265625,0.013595026917755604,-0.052640724927186966,0.08225119113922119
1772794191484938000,4.07793798828125,0.013802137225866318,-0.05540008470416069,0.09350688755512238
1772794191494982000,4.08798193359375,0.011730464175343513,-0.07181447744369507,0.09814504534006119
1772794191505026800,4.09802685546875,0.009480719454586506,-0.06921187043190002,0.09990623593330383
1772794191515071700,4.10807177734375,-0.004744288977235556,-0.07259462028741837,0.11408223956823349
1772794191525117000,4.118116943359375,-0.022727932780981064,-0.0698239728808403,0.1312185376882553
1772794191535161000,4.1281611328125,-0.027849458158016205,-0.06686946749687195,0.1420655995607376
1772794191545205800,4.138205810546875,-0.03182212635874748,-0.0665760412812233,0.1358402669429779
1772794191555251000,4.1482509765625,-0.02601909637451172,-0.06414404511451721,0.1315123587846756
1772794191565295900,4.1582958984375,-0.03012186847627163,-0.09103621542453766,0.1294737458229065
1772794191575340000,4.168340087890625,-0.020996015518903732,-0.09866963326931,0.13431698083877563
1772794191585385000,4.178385009765625,-0.009635565802454948,-0.06847082823514938,0.14955200254917145
1772794191595430000,4.188429931640625,-0.0006423370796255767,-0.0448099710047245,0.1455996185541153
1772794191605475000,4.19847509765625,-0.007104957010596991,-0.035147540271282196,0.14801615476608276
1772794191615520000,4.20852001953125,-0.023586727678775787,-0.05123329907655716,0.15270066261291504
1772794191625564000,4.21856396484375,-0.04090128093957901,-0.04116612300276756,0.1662173867225647
1772794191635608800,4.22860888671875,-0.04281822219491005,-0.02846151404082775,0.16667118668556213
1772794191645654000,4.238654052734375,-0.038412906229496,-0.03712190315127373,0.15779578685760498
1772794191655699000,4.248698974609375,-0.03224822133779526,-0.027919085696339607,0.13347738981246948
1772794191665742800,4.258742919921875,-0.020632781088352203,0.0071740299463272095,0.10620114207267761
1772794191675788000,4.2687880859375,-0.019059916958212852,0.013285718858242035,0.07209910452365875
1772794191685833000,4.2788330078125,-0.02675599232316017,0.021479781717061996,0.026804590597748756
1772794191695878100,4.288878173828125,-0.02861860767006874,0.003687735181301832,-0.014040309935808182
1772794191705921800,4.298921875,-0.04119841381907463,0.00897262617945671,-0.04040289670228958
1772794191715967000,4.308967041015625,-0.03932274878025055,0.01167706586420536,-0.06141790375113487
1772794191726012000,4.319011962890625,-0.027352213859558105,0.019325125962495804,-0.07062917202711105
1772794191736058000,4.32905810546875,-0.0223220344632864,0.042979057878255844,-0.07335784286260605
1772794191746103000,4.33910302734375,-0.023854846134781837,0.04965028166770935,-0.07446499168872833
1772794191756147000,4.34914697265625,-0.02783653885126114,0.03663328289985657,-0.07125455141067505
1772794191766191900,4.35919189453125,-0.02458922564983368,0.031090810894966125,-0.06340808421373367
1772794191776237000,4.369237060546875,-0.014688125811517239,0.03671407699584961,-0.040630340576171875
1772794191786281700,4.37928173828125,-0.007898782379925251,0.044250987470149994,-0.017189189791679382
1772794191796326000,4.389325927734375,-0.0013551292940974236,0.034884918481111526,0.009651212021708488
1772794191806371000,4.39937109375,0.00004002742934972048,0.028246771544218063,0.02265169844031334
1772794191816416000,4.409416015625,0.0018011757638305426,0.01877870224416256,0.0321517288684845
1772794191826461000,4.4194609375,0.0011221431195735931,-0.008284391835331917,0.02435186132788658
1772794191836504800,4.4295048828125,-0.005917923059314489,-0.03299639746546745,0.011430203914642334
1772794191846550000,4.439550048828125,-0.012726419605314732,-0.047390468418598175,0.010358849540352821
1772794191856595000,4.449594970703125,-0.01629745215177536,-0.05410216748714447,0.021311365067958832
1772794191866640000,4.459639892578125,-0.022190885618329048,-0.04777711257338524,0.05094918608665466
1772794191876684000,4.46968408203125,-0.030121514573693275,-0.027838023379445076,0.07790890336036682
1772794191886729000,4.47972900390625,-0.03513430804014206,-0.00879434123635292,0.09179968386888504
1772794191896774000,4.48977392578125,-0.04157756268978119,0.00033950200304389,0.09034187346696854
1772794191906818800,4.49981884765625,-0.05232715606689453,0.004088060464709997,0.07251851260662079
1772794191916863000,4.509863037109375,-0.058307282626628876,0.01139817200601101,0.05887913331389427
1772794191926908000,4.519907958984375,-0.056321218609809875,0.022024882957339287,0.04114328324794769
1772794191936952800,4.529952880859375,-0.05177547037601471,0.03452309966087341,0.01807897537946701
1772794191946997800,4.539997802734375,-0.04874149337410927,0.043865352869033813,-0.012968199327588081
1772794191957042000,4.5500419921875,-0.04442930221557617,0.044949259608983994,-0.03911218419671059
1772794191967087000,4.560087158203125,-0.03956516087055206,0.04985124245285988,-0.061487261205911636
1772794191977131800,4.5701318359375,-0.03426413983106613,0.05238949880003929,-0.07917491346597672
1772794191987177000,4.580177001953125,-0.03248705342411995,0.03503325209021568,-0.09213872253894806
1772794191997222000,4.590221923828125,-0.023171316832304,0.03141587972640991,-0.0942561998963356
1772794192007266000,4.60026611328125,-0.012825561687350273,0.033421073108911514,-0.07850977033376694
1772794192017311000,4.61031103515625,-0.005577769596129656,0.04874037578701973,-0.051792941987514496
1772794192027356000,4.62035595703125,-0.0029132456984370947,0.06920789182186127,-0.03341027721762657
1772794192037401000,4.630401123046875,0.0026445051189512014,0.08001313358545303,-0.0251089408993721
1772794192047444700,4.64044482421875,0.0048175714910030365,0.07463279366493225,-0.02433529496192932
1772794192057490000,4.650489990234375,0.010870937258005142,0.0558154322206974,-0.029940184205770493
1772794192067534800,4.660534912109375,0.009355947375297546,0.04205041006207466,-0.03583946451544762
1772794192077580000,4.670580078125,0.007505583576858044,0.018348542973399162,-0.03669460490345955
1772794192087624000,4.6806240234375,0.0052398075349628925,0.011365365236997604,-0.047115474939346313
1772794192097668900,4.6906689453125,0.00642970809713006,-0.017201831564307213,-0.05197148397564888
1772794192107714000,4.700714111328125,0.008207091130316257,-0.04982193559408188,-0.058453239500522614
1772794192117759000,4.710759033203125,0.00040669250302016735,-0.057208478450775146,-0.06328314542770386
1772794192127803000,4.720802978515625,-0.011211123317480087,-0.0647009089589119,-0.06181235983967781
1772794192137847800,4.730847900390625,-0.016799498349428177,-0.06361807137727737,-0.04231083020567894
1772794192147893000,4.74089306640625,-0.025617387145757675,-0.050486814230680466,-0.009629922918975353
1772794192157938000,4.75093798828125,-0.03369501978158951,-0.0239111315459013,0.0335758700966835
1772794192167981800,4.76098193359375,-0.046309392899274826,-0.0070276507176458836,0.06193339452147484
1772794192178027000,4.771027099609375,-0.05686642974615097,0.003002346958965063,0.08732957392930984
1772794192188072000,4.781072021484375,-0.06475581228733063,0.012473292648792267,0.09964089840650558
1772794192198117000,4.7911171875,-0.06381624937057495,0.00834059901535511,0.09838442504405975
1772794192208161800,4.801161865234375,-0.06094791740179062,0.002728523686528206,0.09430758655071259
1772794192218206000,4.8112060546875,-0.060200367122888565,-0.0018798098899424076,0.08114758133888245
1772794192228251000,4.8212509765625,-0.05870770663022995,-0.007805504836142063,0.06601116061210632
1772794192238296000,4.831296142578125,-0.055798470973968506,-0.0018405569717288017,0.053257010877132416
1772794192248340700,4.8413408203125,-0.05400959402322769,0.007290145382285118,0.04327167943120003
1772794192258385000,4.851385009765625,-0.051800236105918884,0.016004009172320366,0.024019422009587288
1772794192268430000,4.86143017578125,-0.04750365763902664,0.007013595197349787,0.001833916176110506
1772794192278475000,4.87147509765625,-0.043671902269124985,-0.0035346534568816423,-0.013403359800577164
1772794192288520000,4.88152001953125,-0.029467029497027397,0.0015698322094976902,-0.018634412437677383
1772794192298563800,4.891563720703125,-0.016799703240394592,0.007974201813340187,-0.01880565658211708
1772794192308609000,4.901609130859375,-0.012580107897520065,0.010563384741544724,-0.017010264098644257
1772794192318653700,4.91165380859375,-0.008909206837415695,0.014114709571003914,-0.011636803857982159
1772794192328699000,4.921698974609375,-0.005983337759971619,0.01638568751513958,-0.010225333273410797
1772794192338743000,4.931742919921875,-0.007575908210128546,0.021908817812800407,-0.008724108338356018
1772794192348788000,4.9417880859375,-0.012161040678620338,0.026554225012660027,-0.014427876099944115
1772794192358833000,4.9518330078125,-0.02040911838412285,0.019272342324256897,-0.01674402691423893
1772794192368877800,4.9618779296875,-0.014303862117230892,0.01269097626209259,-0.005346574354916811
1772794192378922000,4.971921875,-0.005788670852780342,0.01557384803891182,0.012341342866420746
1772794192388967000,4.981966796875,0.0037428969517350197,0.020385226234793663,0.028959814459085464
1772794192399011800,4.99201171875,0.00787026435136795,0.02379380725324154,0.034926094114780426
1772794192409057000,5.00205712890625,0.00834609754383564,0.008792804554104805,0.030630413442850113
1772794192419101000,5.012100830078125,0.006534881889820099,0.003539718221873045,0.034351646900177
1772794192429147000,5.02214697265625,0.007090735714882612,0.003797515295445919,0.03637241572141647
1772794192439191800,5.03219189453125,0.004880046006292105,-0.011162792332470417,0.03508184850215912
1772794192449237000,5.042237060546875,0.0032517684157937765,-0.01716657169163227,0.03807147592306137
1772794192459281000,5.052281005859375,0.0007342823082581162,-0.016521021723747253,0.046877216547727585
1772794192469326000,5.062326171875,-0.0019308160990476608,0.00295712286606431,0.0490141361951828
1772794192479370800,5.072370849609375,-0.005720494315028191,0.012408414855599403,0.05381767824292183
1772794192489416000,5.082416015625,-0.01075010932981968,0.011739484034478664,0.04366084188222885
1772794192499460900,5.0924609375,-0.024602539837360382,0.026947200298309326,0.03035222552716732
1772794192509505000,5.102505126953125,-0.03753135725855827,0.03310954198241234,0.0056169768795371056
1772794192519550000,5.112550048828125,-0.033689215779304504,0.028092946857213974,-0.02507089264690876
1772794192529595000,5.122594970703125,-0.03486281633377075,0.023579955101013184,-0.06264787167310715
1772794192539640000,5.13264013671875,-0.04687793552875519,0.012023700401186943,-0.09531287103891373
1772794192549684000,5.14268408203125,-0.04254006966948509,-0.0006851786747574806,-0.12410658597946167
1772794192559729000,5.15272900390625,-0.033277593553066254,-0.009069342166185379,-0.14315085113048553
1772794192569773800,5.16277392578125,-0.018337350338697433,-0.021541502326726913,-0.14988845586776733
1772794192579819000,5.172819091796875,-0.009281538426876068,-0.029486244544386864,-0.14562952518463135
1772794192589863000,5.18286279296875,0.0007882713107392192,-0.024476898834109306,-0.1350523829460144
1772794192599907800,5.192907958984375,0.00971811730414629,-0.02107497677206993,-0.10980933159589767
1772794192609953000,5.202953125,-0.0004932000301778316,-0.03216581419110298,-0.08012406527996063
1772794192619998000,5.212998046875,-0.006520998664200306,-0.03196900710463524,-0.04064376652240753
1772794192630041900,5.223041748046875,-0.007878328673541546,-0.0275675430893898,-0.005047003272920847
1772794192640086800,5.233086669921875,-0.0024350935127586126,-0.017800932750105858,0.032699842005968094
1772794192650132000,5.243132080078125,-0.0015020576538518071,-0.0023887474089860916,0.064918652176857
1772794192660177000,5.253177001953125,-0.0014818175695836544,-0.007909480482339859,0.08169762790203094
1772794192670220800,5.263220703125,-0.014897131361067295,-0.013353349640965462,0.0799221396446228
1772794192680266000,5.273265869140625,-0.019694283604621887,-0.018787529319524765,0.07063915580511093
1772794192690311000,5.283310791015625,-0.013287495821714401,-0.02004086598753929,0.05606371909379959
1772794192700356000,5.293356201171875,-0.007647452875971794,-0.023416422307491302,0.04499135911464691
1772794192710400800,5.30340087890625,-0.005200049839913845,-0.034611981362104416,0.035313088446855545
1772794192720445000,5.31344482421875,0.0013654408976435661,-0.03703492507338524,0.026174183934926987
1772794192730489900,5.32348974609375,0.005361420102417469,-0.030423259362578392,0.015182211995124817
1772794192740535000,5.33353515625,0.006638672202825546,-0.02234296128153801,0.005035302136093378
1772794192750579700,5.343579833984375,0.00872450228780508,-0.0180822741240263,-0.00036284816451370716
1772794192760623900,5.353623779296875,0.0015741807874292135,-0.024821138009428978,-0.0010741784935817122
1772794192770669000,5.3636689453125,0.002834780141711235,-0.016084419563412666,0.005421769339591265
1772794192780714000,5.3737138671875,0.008177081122994423,-0.0025608872529119253,0.01509623322635889
1772794192790759000,5.383759033203125,0.007318107411265373,0.009478726424276829,0.0071630170568823814
1772794192800803000,5.393802978515625,0.009654764086008072,0.02023656666278839,-0.0015031751245260239
1772794192810848000,5.403847900390625,0.010471608489751816,0.024097619578242302,-0.020863061770796776
1772794192820893000,5.413892822265625,-0.0028149019926786423,0.014791470021009445,-0.04597853124141693
1772794192830937900,5.423937744140625,-0.009541472420096397,0.0022302991710603237,-0.07065557688474655
1772794192840982000,5.43398193359375,-0.013904263265430927,-0.007226319517940283,-0.08241423219442368
1772794192851027000,5.44402685546875,-0.011579950340092182,-0.006478668190538883,-0.07694493234157562
1772794192861072000,5.45407177734375,-0.0060693370178341866,0.0053921053186059,-0.052945591509342194
1772794192871116800,5.46411669921875,-0.0040713027119636536,0.008333772420883179,-0.015336284413933754
1772794192881161000,5.474160888671875,0.0028894012793898582,0.0184607096016407,0.016777709126472473
1772794192891206100,5.4842060546875,0.004871800541877747,0.023797694593667984,0.03985678404569626
1772794192901250800,5.494250732421875,0.003912796266376972,0.018201328814029694,0.0453072115778923
1772794192911296000,5.5042958984375,0.0033529791980981827,0.01668151468038559,0.04373697191476822
1772794192921340000,5.51433984375,0.008098199032247066,0.013715552166104317,0.04313056915998459
1772794192931385000,5.524385009765625,0.011386075057089329,0.00772972172126174,0.04195466637611389
1772794192941429800,5.5344296875,0.012583965435624123,-0.00374743714928627,0.029885753989219666
1772794192951475000,5.544474853515625,0.016233231872320175,-0.013005494140088558,0.016966111958026886
1772794192961519000,5.55451904296875,0.015362645499408245,-0.012934654019773006,0.009658663533627987
1772794192971563800,5.564563720703125,0.0242324061691761,-0.00030567217618227005,0.008982413448393345
1772794192981609000,5.57460888671875,0.023631863296031952,0.015463702380657196,0.011190706863999367
1772794192991654000,5.58465380859375,0.01935684308409691,0.03012429177761078,0.016348637640476227
1772794193001699000,5.594698974609375,0.01575518399477005,0.034070298075675964,0.008797245100140572
1772794193011742700,5.60474267578125,0.007780740037560463,0.026982245966792107,-0.005450435448437929
1772794193021788000,5.614787841796875,0.0060448916628956795,0.021851401776075363,-0.029734734445810318
1772794193031832800,5.624832763671875,0.009097067639231682,0.0184151753783226,-0.04047819599509239
1772794193041878000,5.6348779296875,0.015154426917433739,0.01642153225839138,-0.04059164598584175
1772794193051922000,5.644921875,0.02138126827776432,0.014963457360863686,-0.030801141634583473
1772794193061966800,5.654966796875,0.02631690539419651,0.023672260344028473,-0.02085955999791622
1772794193072012000,5.665011962890625,0.02605740912258625,0.026623038575053215,-0.018734019249677658
1772794193082057000,5.675056884765625,0.024089865386486053,0.029254773631691933,-0.023106662556529045
1772794193092100900,5.685100830078125,0.01828346960246563,0.02218344807624817,-0.0260949544608593
1772794193102145800,5.695145751953125,0.009572003036737442,0.007393847219645977,-0.020236533135175705
1772794193112191000,5.70519091796875,0.012124868109822273,0.00686158612370491,-0.0029636139515787363
1772794193122236000,5.71523583984375,0.014892690815031528,0.005169945769011974,0.007770256604999304
1772794193132279800,5.72527978515625,0.020419016480445862,0.0027850857004523277,0.013237726874649525
1772794193142325000,5.735324951171875,0.021961253136396408,0.001033524051308632,0.012836121954023838
1772794193152370000,5.745369873046875,0.020105890929698944,0.0018128748051822186,0.010408233851194382
1772794193162415000,5.7554150390625,0.018547143787145615,0.004100263584405184,0.008031894452869892
1772794193172459000,5.765458984375,0.016808057203888893,0.005642338190227747,0.005341226235032082
1772794193182504000,5.77550390625,0.01426766812801361,0.005031941924244165,0.003333202563226223
1772794193192548900,5.785548828125,0.01971800997853279,0.0029506240971386433,0.0019005339127033949
1772794193202594000,5.795593994140625,0.018596818670630455,0.007371738087385893,0.0037317234091460705
1772794193212639000,5.805638916015625,0.015856008976697922,0.01005391962826252,0.0064282529056072235
1772794193222683000,5.815682861328125,0.01649942807853222,0.019187763333320618,0.011036054231226444
1772794193232728000,5.82572802734375,0.01383889839053154,0.03494669869542122,0.018649574369192123
1772794193242772700,5.835772705078125,0.010787448845803738,0.03796379268169403,0.007240059785544872
1772794193252818000,5.84581787109375,0.006794111803174019,0.030694913119077682,-0.010976226069033146
1772794193262862000,5.855862060546875,0.009431706741452217,0.024992018938064575,-0.03338140249252319
1772794193272907000,5.865906982421875,0.01425508875399828,0.01916123367846012,-0.03655041381716728
1772794193282952000,5.875951904296875,0.02024054154753685,0.020858999341726303,-0.03375595808029175
1772794193292996900,5.885996826171875,0.025375263765454292,0.028767423704266548,-0.02503357082605362
1772794193303041000,5.896041015625,0.024052204564213753,0.03304126113653183,-0.03074525110423565
1772794193313086000,5.9060859375,0.020603923127055168,0.021417150273919106,-0.041597671806812286
1772794193323131000,5.916130859375,0.006629784591495991,-0.004822443705052137,-0.049599405378103256
1772794193333175800,5.92617578125,-0.0002899382379837334,-0.024218833073973656,-0.03961193934082985
1772794193343220000,5.936219970703125,0.0036672528367489576,-0.029628777876496315,-0.02175624668598175
1772794193353265200,5.94626513671875,0.009732580743730068,-0.03372333571314812,0.007337418384850025
1772794193363309800,5.956309814453125,0.0003555911825969815,-0.046050578355789185,0.025463957339525223
1772794193373355000,5.96635498046875,-0.0020008469000458717,-0.04241025447845459,0.04573913291096687
1772794193383399000,5.97639892578125,0.00047855626326054335,-0.0403476357460022,0.05918436869978905
1772794193393443800,5.98644384765625,-0.0014639012515544891,-0.04076814278960228,0.06528323888778687
1772794193403488800,5.99648876953125,0.0021859609987586737,-0.03452436253428459,0.06534635275602341
1772794193413534000,6.006533935546875,-0.002519876230508089,-0.026791661977767944,0.0690828487277031
1772794193423578000,6.016578125,-0.0029576998203992844,-0.016734234988689423,0.06903544068336487
1772794193433622800,6.026622802734375,0.0005348218837752938,-0.0233354102820158,0.06841195374727249
1772794193443668000,6.03666796875,0.006403363775461912,-0.034727081656455994,0.0525168813765049
1772794193453713000,6.046712890625,0.013648493215441704,-0.04614351689815521,0.031563129276037216
1772794193463757800,6.0567578125,0.018297839909791946,-0.04362870007753372,0.019077695906162262
1772794193473801700,6.0668017578125,0.02461777627468109,-0.022425249218940735,0.017798960208892822
1772794193483847000,6.076846923828125,0.0280990619212389,-0.015813419595360756,0.01529106218367815
1772794193493891800,6.086891845703125,0.021968092769384384,-0.00805270578712225,0.0033521843142807484
1772794193503936800,6.096936767578125,0.02416733279824257,0.012868288904428482,-0.011829432100057602
1772794193513981000,6.10698095703125,0.02406192384660244,0.020100370049476624,-0.02900179661810398
1772794193524025900,6.11702587890625,0.02513890527188778,0.012176934629678726,-0.048433817923069
1772794193534071000,6.127071044921875,0.0229558814316988,0.017027029767632484,-0.04835837334394455
1772794193544115700,6.13711572265625,0.025689881294965744,0.029705006629228592,-0.03854382783174515
1772794193554159900,6.147159912109375,0.030523061752319336,0.04147240146994591,-0.026546817272901535
1772794193564205000,6.157205078125,0.028325151652097702,0.05098973959684372,-0.024327872321009636
1772794193574249700,6.167249755859375,0.026051774621009827,0.05331467092037201,-0.027701225131750107
1772794193584295000,6.177294921875,0.02678520977497101,0.056609541177749634,-0.033960722386837006
1772794193594338800,6.1873388671875,0.027844300493597984,0.051969096064567566,-0.04208015650510788
1772794193604384000,6.197384033203125,0.02993142046034336,0.030477385967969894,-0.0452735535800457
1772794193614428700,6.2074287109375,0.02115185558795929,0.04558330774307251,-0.049416981637477875
1772794193624473900,6.217473876953125,0.025341274216771126,0.041229572147130966,-0.048583146184682846
1772794193634518000,6.22751806640625,0.026407573372125626,0.03971923887729645,-0.04312865436077118
1772794193644563000,6.23756298828125,0.024613134562969208,0.03801640868186951,-0.03814401477575302
1772794193654608000,6.24760791015625,0.023592939600348473,0.0316409133374691,-0.03705732524394989
1772794193664652800,6.25765283203125,0.019648266956210136,0.01768461801111698,-0.04513336345553398
1772794193674697000,6.267697021484375,0.01792122609913349,0.002625721972435713,-0.04477566108107567
1772794193684741600,6.27774169921875,0.02284594438970089,0.005707798060029745,-0.028738105669617653
1772794193694786800,6.287786865234375,0.026478605344891548,0.015194235369563103,-0.014857334084808826
1772794193704831700,6.297831787109375,0.02630843035876751,0.009815981611609459,-0.0031040054745972157
1772794193714877000,6.307876953125,0.02627241052687168,0.0050072818994522095,0.0001942871604114771
1772794193724920800,6.3179208984375,0.024625778198242188,0.001713750883936882,0.0019770071376115084
1772794193734965800,6.3279658203125,0.02097320929169655,0.006103011313825846,0.009627658873796463
1772794193745011000,6.338010986328125,0.02386273816227913,0.00004698289558291435,0.017940184101462364
1772794193755055900,6.348055908203125,0.025455117225646973,0.0031180898658931255,0.024879584088921547
1772794193765099800,6.358099853515625,0.037197526544332504,0.011622095480561256,0.029858097434043884
1772794193775144700,6.368144775390625,0.03893788158893585,0.016420632600784302,0.03239738196134567
1772794193785190000,6.37818994140625,0.0351513996720314,0.03580178692936897,0.03231295943260193
1772794193795234800,6.38823486328125,0.027785001322627068,0.03604823350906372,0.02704119309782982
1772794193805278700,6.39827880859375,0.0347004309296608,0.023073043674230576,0.011921895667910576
1772794193815324000,6.408323974609375,0.06269698590040207,0.025880763307213783,-0.0009185340604744852
1772794193825368800,6.418368896484375,0.07718351483345032,0.0384863056242466,-0.012258806265890598
1772794193835414000,6.4284140625,0.036684997379779816,0.024650752544403076,-0.01932288147509098
1772794193845458000,6.4384580078125,0.005647188052535057,-0.010955178178846836,-0.017841897904872894
1772794193855502800,6.4485029296875,0.013560374267399311,-0.033510494977235794,-0.011761517263948917
1772794193865547800,6.4585478515625,0.027573660016059875,-0.026001978665590286,-0.003813579212874174
1772794193875593000,6.468593017578125,0.023893889039754868,-0.006264550145715475,0.017581835389137268
1772794193885636900,6.478636962890625,0.008964207023382187,-0.0066999769769608974,0.031962908804416656
1772794193895681800,6.488681884765625,0.0037033676635473967,-0.000989947933703661,0.039476025849580765
1772794193905727000,6.49872705078125,-0.004109282046556473,0.01034233532845974,0.037242431193590164
1772794193915772000,6.50877197265625,-0.0044961245730519295,0.005623058881610632,0.009958958253264427
1772794193925815800,6.51881591796875,-0.002208735328167677,-0.01423506811261177,-0.012932509183883667
1772794193935861000,6.528861083984375,0.00013575522461906075,-0.03306468948721886,-0.020951975136995316
1772794193945906000,6.538906005859375,0.007112438324838877,-0.04845456779003143,-0.017887210473418236
1772794193955950800,6.548950927734375,0.010849829763174057,-0.05547257140278816,-0.015429451130330563
1772794193965995800,6.558995849609375,0.006341896951198578,-0.06071766838431358,-0.012360157445073128
1772794193976040000,6.5690400390625,0.0012279176153242588,-0.051098547875881195,-0.003966068383306265
1772794193986084900,6.5790849609375,0.0018753320910036564,-0.0357464924454689,0.013693885877728462
1772794193996129800,6.5891298828125,-0.0012892605736851692,-0.02810731902718544,0.02452583611011505
1772794194006174700,6.5991748046875,-0.00433298759162426,-0.03136436641216278,0.024174299091100693
1772794194016219000,6.609218994140625,-0.0036279023624956608,-0.04165651649236679,0.019205378368496895
1772794194026264000,6.61926416015625,-0.0009005591855384409,-0.04299448803067207,0.022025933489203453
1772794194036308700,6.629308837890625,0.0021543109323829412,-0.03683369606733322,0.031523220241069794
1772794194046354000,6.63935400390625,0.0005151353543624282,-0.023672085255384445,0.03270406648516655
1772794194056397800,6.649397705078125,-0.005846983753144741,-0.017451105639338493,0.02953246608376503
1772794194066443000,6.659443115234375,-0.012317134067416191,-0.011626772582530975,0.011588353663682938
1772794194076487700,6.66948779296875,-0.01701998896896839,0.004183030687272549,-0.0038611378986388445
1772794194086532900,6.679532958984375,-0.021356679499149323,0.004092749208211899,-0.026306258514523506
1772794194096577000,6.689576904296875,-0.02041047066450119,0.012486925348639488,-0.04627106711268425
1772794194106621700,6.69962158203125,-0.01764690689742565,0.016730673611164093,-0.05126529186964035
1772794194116667000,6.7096669921875,-0.0177313182502985,0.019553199410438538,-0.05262281745672226
1772794194126711800,6.7197119140625,-0.01517814677208662,0.025750376284122467,-0.04510604590177536
1772794194136756000,6.729755859375,-0.011421376839280128,0.029971331357955933,-0.04113466292619705
1772794194146800600,6.739800537109375,-0.005872680805623531,0.01892693340778351,-0.041626282036304474
1772794194156845800,6.749845703125,-0.003181279869750142,0.011455809697508812,-0.04411938041448593
1772794194166890800,6.759890869140625,0.0021668802946805954,0.017003441229462624,-0.037097688764333725
1772794194176935000,6.769934814453125,0.004224047064781189,0.025440383702516556,-0.034246206283569336
1772794194186979800,6.779979736328125,0.0018272018060088158,0.023326896131038666,-0.026854604482650757
1772794194197024800,6.790024658203125,-0.007179301232099533,0.015537045896053314,-0.022550594061613083
1772794194207070000,6.800070068359375,-0.013339192606508732,0.0049531119875609875,-0.009069670923054218
1772794194217115000,6.810114990234375,-0.01667727157473564,0.002319029998034239,0.014099828898906708
1772794194227158800,6.82015869140625,-0.01757768541574478,0.002584547270089388,0.03672577813267708
1772794194237203700,6.83020361328125,-0.013984935358166695,0.004825497046113014,0.05045038089156151
1772794194247249000,6.840248779296875,-0.01859513483941555,0.001441950909793377,0.05468054488301277
1772794194257293800,6.8502939453125,-0.027453752234578133,-0.010954164899885654,0.05057527869939804
1772794194267337700,6.860337646484375,-0.03212627023458481,-0.013505473732948303,0.05179207772016525
1772794194277383000,6.8703828125,-0.03604298084974289,-0.011232465505599976,0.05838979408144951
1772794194287427800,6.880427734375,-0.03449408337473869,-0.004842743277549744,0.06446659564971924
1772794194297473000,6.89047314453125,-0.0366881899535656,-0.003187638707458973,0.0601072683930397
1772794194307517000,6.900516845703125,-0.034926507622003555,-0.002601476851850748,0.0485486164689064
1772794194317561900,6.910561767578125,-0.03281654790043831,-0.005734794773161411,0.03417835384607315
1772794194327607000,6.92060693359375,-0.029592525213956833,-0.00996682420372963,0.021916357800364494
1772794194337652000,6.93065185546875,-0.025601718574762344,-0.019398566335439682,0.011327745392918587
1772794194347695900,6.94069580078125,-0.01483242679387331,-0.02390649914741516,0.01213095523416996
1772794194357740800,6.95074072265625,-0.004754472058266401,-0.018400732427835464,0.012213552370667458
1772794194367786000,6.960785888671875,0.0054739308543503284,-0.011405140161514282,0.01861286163330078
1772794194377830700,6.97083056640625,0.009240941144526005,-0.007021898403763771,0.022868135944008827
1772794194387874800,6.980874755859375,0.007720275782048702,-0.007328428328037262,0.01782624050974846
1772794194397920000,6.990919921875,0.00971049815416336,-0.003967623226344585,0.01736345887184143
1772794194407965000,7.00096484375,0.013709500432014465,-0.003313018474727869,0.020935023203492165
1772794194418009900,7.011009765625,0.010911437682807446,-0.00865628570318222,0.01376872044056654
1772794194428054800,7.0210546875,0.019373364746570587,-0.004398157820105553,0.016955992206931114
1772794194438099000,7.031098876953125,0.023872677236795425,0.012862171977758408,0.018914256244897842
1772794194448143600,7.0411435546875,0.026350747793912888,0.02148948237299919,0.015208734199404716
1772794194458188800,7.051188720703125,0.024230897426605225,0.02318158932030201,0.0038372573908418417
1772794194468233700,7.061233642578125,0.018506700173020363,0.007171729113906622,-0.014768917113542557
1772794194478278000,7.07127783203125,0.020278187468647957,0.005959575530141592,-0.03005652129650116
1772794194488322800,7.08132275390625,0.021112022921442986,0.008225925266742706,-0.031473852694034576
1772794194498367700,7.09136767578125,0.02500864490866661,0.011272471398115158,-0.022900152951478958
1772794194508413000,7.101412841796875,0.02145811915397644,0.018574059009552002,-0.014261924661695957
1772794194518456600,7.11145654296875,0.015271052718162537,0.033070337027311325,-0.004917577374726534
1772794194528501800,7.121501708984375,0.014345871284604073,0.05537644028663635,-0.004995075054466724
1772794194538546700,7.131546630859375,0.009316554293036461,0.06997520476579666,-0.016401277855038643
1772794194548591900,7.141591796875,0.005447513423860073,0.06165894865989685,-0.04104963317513466
1772794194558635800,7.1516357421875,0.003796834032982588,0.04484640806913376,-0.06460046023130417
1772794194568680700,7.1616806640625,0.0087556391954422,0.0450565330684185,-0.07496734708547592
1772794194578726000,7.171725830078125,0.011800943873822689,0.04978263005614281,-0.07836931198835373
1772794194588770800,7.181770751953125,0.010487206280231476,0.04202936962246895,-0.08020742982625961
1772794194598814700,7.191814697265625,0.011881537735462189,0.03737880662083626,-0.07589119672775269
1772794194608860000,7.20185986328125,0.015722082927823067,0.04685353487730026,-0.07077473402023315
1772794194618904800,7.21190478515625,0.011434894986450672,0.03432250767946243,-0.06770695745944977
1772794194628949800,7.22194970703125,0.010987750254571438,0.025020353496074677,-0.05472750961780548
1772794194638993700,7.23199365234375,0.013450657948851585,0.03404882922768593,-0.03499288856983185
1772794194649038800,7.242038818359375,0.009439405053853989,0.029801353812217712,-0.011488626711070538
1772794194659083800,7.252083740234375,0.0035316352732479572,0.02236107550561428,-0.00910954363644123
1772794194669129000,7.26212890625,-0.006499427370727062,-0.0013229474425315857,-0.009563079103827477
1772794194679172900,7.2721728515625,-0.014967981725931168,-0.011480456218123436,-0.0015542305773124099
1772794194689217800,7.2822177734375,-0.019753150641918182,-0.016819560900330544,0.015768565237522125
1772794194699263000,7.292262939453125,-0.025627581402659416,-0.02812952734529972,0.037984997034072876
1772794194709308000,7.302307861328125,-0.028083283454179764,-0.03542179614305496,0.050500791519880295
1772794194719352800,7.312352783203125,-0.026355985552072525,-0.03604902699589729,0.06221344694495201
1772794194729396700,7.322396728515625,-0.035929784178733826,-0.03331795334815979,0.06689741462469101
1772794194739442000,7.33244189453125,-0.03322761878371239,-0.03222797065973282,0.06338946521282196
1772794194749486800,7.34248681640625,-0.04084186255931854,-0.03636731952428818,0.05570251867175102
1772794194759531800,7.35253173828125,-0.039622124284505844,-0.037406112998723984,0.05510851740837097
1772794194769576000,7.362575927734375,-0.038423433899879456,-0.03276155889034271,0.053386516869068146
1772794194779620900,7.372620849609375,-0.04088376834988594,-0.031040363013744354,0.046345461159944534
1772794194789665800,7.382665771484375,-0.03541310131549835,-0.030267514288425446,0.035451799631118774
1772794194799710700,7.392710693359375,-0.03172121196985245,-0.03119003400206566,0.025437284260988235
1772794194809755000,7.4027548828125,-0.02854539267718792,-0.02734682708978653,0.017514914274215698
1772794194819799800,7.4127998046875,-0.027163149788975716,-0.021948223933577538,0.008275192230939865
1772794194829844700,7.4228447265625,-0.020662639290094376,-0.020009176805615425,0.0007070210995152593
1772794194839889700,7.4328896484375,-0.017320916056632996,-0.01692427694797516,-0.0020537644159048796
1772794194849933800,7.442933837890625,-0.010338639840483665,-0.01049407571554184,-0.004896422382444143
1772794194859979000,7.45297900390625,-0.010277099907398224,-0.006001375149935484,-0.014337290078401566
1772794194870023700,7.463023681640625,-0.008144441060721874,-0.00688154948875308,-0.02500537969172001
1772794194880068900,7.47306884765625,-0.011226005852222443,-0.010013907216489315,-0.030785011127591133
1772794194890112800,7.48311279296875,-0.014543239027261734,-0.013701319694519043,-0.027669645845890045
1772794194900157700,7.49315771484375,-0.012059308588504791,-0.016973013058304787,-0.017277725040912628
1772794194910202600,7.50320263671875,-0.011052634567022324,-0.013102907687425613,-0.0018867840990424156
1772794194920247800,7.513247802734375,-0.0005379933281801641,-0.010211782529950142,0.01298567559570074
1772794194930292700,7.523292724609375,-0.0029782478231936693,-0.02024657465517521,0.019762620329856873
1772794194940336600,7.533336669921875,-0.0042299749329686165,-0.027894003316760063,0.021262703463435173
1772794194950381800,7.5433818359375,0.0030162199400365353,-0.027350984513759613,0.01744958944618702
1772794194960426800,7.5534267578125,0.0049877166748046875,-0.01757574826478958,0.02646031603217125
1772794194970472000,7.563471923828125,0.003688360331580043,-0.026979368180036545,0.023680774495005608
1772794194980515800,7.573515869140625,0.00700994860380888,-0.03231804445385933,0.013876655139029026
1772794194990560800,7.583560791015625,0.005071965977549553,-0.03928487002849579,0.011346918530762196
1772794195000605700,7.593605712890625,0.003091352293267846,-0.03416995331645012,0.011089085601270199
1772794195010651000,7.60365087890625,0.000711018918082118,-0.04061400517821312,0.009663495235145092
1772794195020694800,7.61369482421875,0.011336603201925755,-0.022584931924939156,0.02766798809170723
1772794195030739700,7.62373974609375,0.005948761943727732,-0.023953795433044434,0.03650888800621033
1772794195040785000,7.633784912109375,0.00119070615619421,-0.026154901832342148,0.031171413138508797
1772794195050829800,7.643829833984375,-0.013835115358233452,-0.018810169771313667,0.0175930205732584
1772794195060873700,7.653873779296875,-0.005589283537119627,-0.002620659302920103,0.01571141742169857
1772794195070919000,7.6639189453125,-0.004319754894822836,0.02686958946287632,0.013451460748910904
1772794195080963800,7.6739638671875,-0.012555946595966816,0.020730584859848022,0.016024116426706314
1772794195091009000,7.684009033203125,-0.0057374550960958,0.009275263175368309,-0.003092053811997175
1772794195101052700,7.694052734375,-0.001995050348341465,-0.006717078387737274,-0.02786569483578205
1772794195111097900,7.704097900390625,-0.004062994848936796,-0.030809631571173668,-0.04470273107290268
