time,seconds_elapsed,z,y,x
1772795202880567600,0.053567626953125,0.02569265966117382,0.0009080147980770561,-0.012717789813783019
1772795202890611500,0.063611572265625,0.02854161935150623,-0.002316826716653304,-0.025868363287951796
1772795202900655600,0.073655517578125,0.0017617489755153656,-0.005085098411678336,-0.03617627894841134
1772795202910699300,0.08369921875,0.017783493971824646,-0.0075301043855317395,-0.02237635645372793
1772795202920743400,0.093743408203125,0.014056582403182983,-0.004577013033867115,-0.009909655324183404
1772795202930787600,0.10378759765625,0.03397065866291523,0.0083445420239761,-0.013219620122388004
1772795202940832300,0.113832275390625,0.014082301366329193,0.0020229880193655845,-0.007516056452225893
1772795202950876400,0.12387646484375,0.026814357167482376,0.007129646383947692,-0.01756331188250333
1772795202960920600,0.133920654296875,0.02234042662382126,0.0019958248761598953,-0.015774072111863643
1772795202970964500,0.143964599609375,0.01786649608016014,-0.0005158348594268318,-0.010364742147922516
1772795202981008600,0.154008544921875,0.022967034089565276,-0.004513713423133595,-0.0045360542607493694
1772795202991052300,0.16405224609375,0.015349544823169707,0.0067807050821138545,-0.021384696801565586
1772795203001096400,0.174096435546875,0.022992753052711486,-0.012238879156461916,-0.01887264091540128
1772795203011141600,0.1841416015625,0.01417524034678936,0.0017829515937482937,0.004227170974668115
1772795203021185300,0.194185302734375,0.02376198385953903,0.008117688165273284,-0.00028257980104535817
1772795203031229400,0.2042294921875,0.01943067665696144,0.023539728544140232,-0.008732647434063255
1772795203041273300,0.2142734375,0.02273380985558033,0.006431313972419593,0.007781429390143603
1772795203051317500,0.2243173828125,0.024648119044303893,0.014619096815394004,-0.005763020506128668
1772795203061361700,0.234361572265625,0.02820142761170864,0.004687548178166617,-0.017718155384343116
1772795203071406300,0.24440625,0.01134615440070629,0.010823092932760483,-0.009109335259348154
1772795203081450500,0.254450439453125,0.026180735439062117,0.01566150141574908,0.0009803619400132447
1772795203091494700,0.26449462890625,0.024494974309206007,0.006904169348289724,-0.013297014473844319
1772795203101538300,0.274538330078125,0.03914075477719307,-0.001165921382169472,-0.0015621895491145551
1772795203111582500,0.28458251953125,0.023285598519444464,0.0005584478751581627,-0.007702792929671704
1772795203121626400,0.29462646484375,0.0249222598105669,-0.0025050244988233314,-0.0006960742390714586
1772795203131671600,0.304671630859375,0.03077157036066055,0.0023203327063471076,-0.0017190788775682448
1772795203141715500,0.314715576171875,0.015229717835783958,-0.0009893854966852814,-0.001763575606420636
1772795203151759400,0.32475927734375,0.012248656198382377,-0.005575048769533168,0.00009997150944545865
1772795203161803500,0.334803466796875,0.03649111705124378,0.00009699809682497288,0.007767894055135548
1772795203171847400,0.344847412109375,0.027678280520439146,-0.012855601124075473,-0.003343300812225789
1772795203181891300,0.354891357421875,0.028275661891698837,-0.005790941701160045,0.010210537966899573
1772795203191936500,0.3649365234375,0.015709610307216643,-0.006193488911841996,-0.001956257767463103
1772795203201980400,0.37498046875,0.021240356427431106,-0.004718541538051795,-0.009037493865843862
1772795203212024600,0.385024658203125,0.024831074395775792,-0.004514531982108019,-0.013118972759507595
1772795203222068500,0.395068359375,0.03411211296021938,0.00759683235414559,0.0029596535231918093
1772795203232112400,0.4051123046875,0.014510171389579772,-0.006164870172133669,0.002122837372869253
1772795203242156500,0.415156494140625,0.008515899410843849,-0.01597896872544079,-0.007697568765282631
1772795203252201500,0.425201416015625,0.027072131320834157,-0.017121670203871325,-0.008050601720344275
1772795203262245400,0.435245361328125,0.016440262669324874,-0.004105680611514253,0.0007451740778051316
1772795203272289500,0.44528955078125,0.007910919255018235,0.010519047935289563,-0.01147637491794303
1772795203282333400,0.45533349609375,0.012703998750448225,0.004042644720617682,-0.0020319807516410945
1772795203292377300,0.46537744140625,0.020942250263690947,0.011067853482556528,-0.01347956796651706
1772795203302421500,0.47542138671875,0.01016717374920845,-0.002318429585272679,-0.010745138033945114
1772795203312465400,0.48546533203125,0.02423135493695736,0.0016528246913454494,-0.013537910557631403
1772795203322510600,0.495510498046875,0.015254267755150794,-0.005945613956352462,-0.005778254607878625
1772795203332554200,0.50555419921875,0.01660392879843712,-0.0032005473236902614,-0.008986640461441129
1772795203342598400,0.515598388671875,0.008971241962909698,0.013585005668946541,-0.009087461354257538
1772795203352642600,0.525642578125,0.010773907470703125,-0.011805249537638155,0.007655017398344352
1772795203362686500,0.5356865234375,0.013768413111567497,0.008100463035836582,-0.0051308052835054695
1772795203372730400,0.54573046875,0.02544599142372608,0.015425280365435173,-0.005512004887126385
1772795203382775600,0.555775634765625,0.013776011896133422,-0.0095353957763582,-0.02322097231801599
1772795203392819500,0.5658193359375,0.025602643290162087,0.0010230993949749971,-0.012853471957426518
1772795203402863600,0.575863525390625,0.026802082207798957,-0.00024634971868363207,-0.00045395431257784367
1772795203412907500,0.585907470703125,0.018871873730421065,-0.004837871910160174,0.004395577210979536
1772795203422951700,0.59595166015625,0.01678162345290184,-0.007909875792113597,0.004362880517775193
1772795203432995800,0.605995849609375,0.011839490875601768,-0.007257415790838422,-0.002928819993510842
1772795203443039700,0.616039794921875,0.018723405170440674,0.004989164898177841,-0.008615761322434991
1772795203453084700,0.626084716796875,0.033089784175157545,-0.009038869547244394,0.004333864485844969
1772795203463128800,0.63612890625,0.025765140375494957,-0.002357388197549153,0.002310651562549174
1772795203473172700,0.6461728515625,0.018437573966383933,0.004757460192777216,0.0018469065083190797
1772795203483216600,0.656216552734375,0.03145487644970417,0.013420345167635241,0.007930281542614102
1772795203493260500,0.666260498046875,0.032948914399743075,0.014503080636734375,0.003603449585754424
1772795203503304700,0.6763046875,0.014541735571622848,0.0007462894643016625,-0.005915662917727604
1772795203513350000,0.686349853515625,0.02830897963941097,-0.014850073151721153,-0.001390979434363544
1772795203523393500,0.6963935546875,0.02486789927482605,0.007556101909891004,0.016145243511814622
1772795203533437700,0.706437744140625,0.009749240598082541,-0.0027030860878818203,-0.004688185215694829
1772795203543481900,0.71648193359375,0.03249181828200817,-0.0017009815318742767,-0.024752264405367895
1772795203553525800,0.72652587890625,0.024560440760850906,0.0020662323644035493,-0.016868717214465142
1772795203563569700,0.736569580078125,0.023960136780142784,0.001150377894809935,0.0006557696281466633
1772795203573613600,0.746613525390625,0.031440263402462004,-0.004386591328569921,-0.0011009652455337346
1772795203583658800,0.75665869140625,0.01453296774327755,0.004411668687610654,0.008588644986646249
1772795203593703000,0.766702880859375,0.024407880547642705,0.012485478895250706,-0.009574788213474676
1772795203603746600,0.77674658203125,0.005700841990113258,-0.0006991954946308397,-0.014547562524210661
1772795203613790700,0.786790771484375,0.015576923838257789,-0.009431845211982726,-0.01378753793714568
1772795203623834600,0.796834716796875,0.022317045748233795,-0.0062295420393347735,-0.00497398902028799
1772795203633878800,0.806878662109375,0.027857728740572928,-0.010198541568429208,0.004418611026694998
1772795203643922700,0.816922607421875,0.02306932542026043,-0.014195059292111544,-0.006497636657301336
1772795203653967600,0.826967529296875,0.02456687050163746,-0.002307923032634426,-0.011675961743807419
1772795203664011800,0.83701171875,0.017232289829850197,0.002292894426861312,-0.0164519165745005
1772795203674056000,0.847055908203125,0.016935937231779098,-0.013870623385516227,-0.01642894669086672
1772795203684099600,0.857099609375,0.03235153302848339,-0.003719689526699949,0.010219351461017503
1772795203694143700,0.867143798828125,0.018587796092033385,0.005108749856968643,0.0014512673873919993
1772795203704187600,0.877187744140625,0.020981997752189636,0.01000483649407979,-0.007077199244080111
1772795203714232600,0.887232666015625,0.017986907589435577,-0.007323417673667427,0.00174638700960204
1772795203724276700,0.89727685546875,0.012448562684655188,-0.0013971637216222007,0.003284200169285759
1772795203734320600,0.907320556640625,0.03265080823600292,-0.004190096075512701,-0.004561426164023578
1772795203744364800,0.91736474609375,0.0331049817442894,0.002113754450692795,-0.0028721487696748227
1772795203754408700,0.92740869140625,0.022334581404924392,-0.0077390447032754306,-0.003388053269404918
1772795203764452600,0.93745263671875,0.024874329015612602,0.0011148407905478962,0.00442709572724998
1772795203774496800,0.947496826171875,0.011555413237214087,-0.01196417327626259,0.008824536101752892
1772795203784541700,0.957541748046875,0.029962592065334318,-0.004603995797270909,0.008482426399504766
1772795203794585600,0.967585693359375,0.03011106062531471,-0.0013662103192880748,-0.0011640936096198855
1772795203804629800,0.977629638671875,0.01709142005443573,-0.007021055459917988,-0.004540584305394441
1772795203814673700,0.987673583984375,0.031903789260983466,-0.0003703619741310831,-0.00794673948707059
1772795203824717800,0.9977177734375,0.025618425381183623,-0.004160704442602582,0.0018750548905692994
1772795203834761700,1.00776171875,0.0018254618614912033,0.009084259041951736,-0.0035312154666054993
1772795203844805600,1.0178056640625,0.016938275319337844,-0.010108967013767687,-0.0032846202943939713
1772795203854850800,1.027850830078125,0.013348141872882842,0.000990535132511286,-0.004710141319176182
1772795203864894700,1.037894775390625,0.03040507513582706,-0.0016609041081683243,0.0020780392499174924
1772795203874938600,1.047938720703125,0.01918283937573433,-0.006795831869298126,-0.0014789134461432693
1772795203884982800,1.057982666015625,0.018285013753175733,-0.006590116696746554,-0.006711799997789785
1772795203895026700,1.068026611328125,0.013646832558512687,-0.014085680633503943,-0.009532656971644609
1772795203905070800,1.07807080078125,0.023522914406657217,-0.004793948286754311,0.007391891216440126
1772795203915114800,1.08811474609375,0.01140109945833683,0.0014085915812232996,0.00536557302060537
1772795203925159700,1.09815966796875,0.015443068325519562,-0.005509762697690167,0.0017227230062242596
1772795203935203800,1.108203857421875,0.02412204934358597,0.008479913640365702,-0.0032199027614202348
1772795203945247700,1.118247802734375,0.024868483796715735,-0.0027532853300916028,-0.008428878714516759
1772795203955291600,1.128291748046875,0.02846153985261917,-0.0022071192644827534,-0.0036733638836536553
1772795203965335600,1.13833544921875,0.023523498928546903,0.0053928149372688495,0.009822461097920314
1772795203975379700,1.148379638671875,0.023524667972326278,0.0001290012411074713,-0.008662532206764445
1772795203985424000,1.158423828125,0.010054945546388626,-0.013988760739314602,0.005698622633563354
1772795203995468500,1.168468505859375,0.024717677149176595,0.0014926440023293253,0.004405002626450732
1772795204005512700,1.1785126953125,0.032497663500905036,0.007938494531821924,-0.01141271683089435
1772795204015556900,1.188556884765625,0.017531565037369728,0.0057564149521174834,0.000262569059478119
1772795204025600800,1.198600830078125,0.019176994156837462,-0.0027403425084834452,0.006205795837566256
1772795204035644700,1.208644775390625,0.01483750364780426,-0.006791154552536318,-0.003203810143144801
1772795204045688600,1.2186884765625,0.02546001994907856,-0.01273171673279139,0.01235813532168977
1772795204055732700,1.228732666015625,0.018876549905538557,-0.003661239621019922,0.008676980857225134
1772795204065777700,1.238777587890625,0.028301965376734732,0.01598859164537862,0.005001196687621995
1772795204075821600,1.248821533203125,0.032492987325787544,0.015204380181839222,-0.008110898806527257
1772795204085865700,1.25886572265625,0.029800679501891133,0.007125517056457465,-0.007454928248981013
1772795204095909600,1.26890966796875,0.014835165560245512,-0.015252148863300681,-0.001444271391024813
1772795204105953800,1.278953857421875,0.02560731946527958,-0.010906910175137454,-0.007350591091671958
1772795204115997700,1.288997802734375,0.033688919112086296,-0.0018213462337327655,0.00347103711143136
1772795204126041600,1.29904150390625,0.019320202019810676,0.005962713504914427,0.009101188485510647
1772795204136086800,1.309086669921875,0.012284896555542945,-0.013303029797744238,0.006542078587226569
1772795204146130700,1.319130615234375,0.03457797690629959,-0.025157623485999647,-0.02342211178014986
1772795204156174600,1.329174560546875,0.025299860951304435,-0.02444890211119782,-0.0023352654139976946
1772795204166218800,1.33921875,0.017667758637666703,0.0014177452853473369,0.007941049531800672
1772795204176262700,1.3492626953125,0.024253566768765448,0.008927980493206996,0.005351581027870997
1772795204186306800,1.359306884765625,0.029492051944136618,-0.008177487494534579,0.00019293788936920462
1772795204196350700,1.369350830078125,0.030390462088584896,-0.018969772013789042,-0.0009559855505824089
1772795204206395600,1.379395751953125,0.019616554617881775,-0.005334932428813772,-0.0027499106294941156
1772795204216439800,1.389439697265625,0.02171148107051849,-0.003410851906391326,0.010553981109708547
1772795204226483700,1.399483642578125,0.03293722396194935,-0.009512534348934423,-0.00448103613788262
1772795204236527600,1.409527587890625,0.02515489952266216,0.0022466292909637557,0.004584596977056935
1772795204246571800,1.41957177734375,0.016325696378946302,-0.009616645460668951,-0.0027951836764812466
1772795204256615700,1.42961572265625,0.027249241453409193,-0.012799276960111456,0.001397272177832201
1772795204266659800,1.439659912109375,0.03158580935299396,0.0004722411712282337,0.012446160665014758
1772795204276704800,1.449704833984375,0.01991349173784256,0.007838999088056152,0.008658614083472639
1772795204286748700,1.459748779296875,0.035326164925098415,-0.006486761353549081,0.003998458519019186
1772795204296792800,1.469792724609375,0.02335281853675842,-0.003836846208031056,0.005074143192823976
1772795204306836500,1.47983642578125,0.026048048970103262,-0.0011031823187950067,-0.015326711936853825
1772795204316880600,1.489880615234375,0.026644845819473264,-0.00210579718981171,-0.016324289873149246
1772795204326924800,1.4999248046875,0.022305939832329747,-0.00007770373706589452,-0.0116582799566444
1772795204336968700,1.50996875,0.024250644159317016,0.006779990412772167,0.005814312301948666
1772795204347012900,1.520012939453125,0.014821137034893034,0.005694043498212704,-0.007041004552692174
1772795204357057800,1.530057861328125,0.019909400084614753,-0.0030363571798370684,-0.006256886703986674
1772795204367101700,1.540101806640625,0.021255553996562957,-0.00462986089088954,-0.0009298921281006186
1772795204377145900,1.550145751953125,0.007338087803125381,0.0045286221562535495,0.0024486535274423657
1772795204387189500,1.560189453125,0.011680500921607016,0.009830788251559716,0.015028240446932612
1772795204397233700,1.570233642578125,0.017367314386367797,-0.0006799793375073932,0.006114765686402097
1772795204407277600,1.580277587890625,0.02036123550534248,-0.01942476750598289,-0.005787999683758244
1772795204417321700,1.59032177734375,0.016769933015108106,0.00992849131374969,0.0037635446514468636
1772795204427366400,1.600366455078125,0.023653262788057326,0.007566465756989782,-0.014190255252830684
1772795204437410600,1.61041064453125,0.005844049853086471,0.0069940224641643,0.006177154264971614
1772795204447454700,1.620454833984375,0.015568740531802176,-0.007940310887928353,0.00636412820443511
1772795204457498600,1.63049853515625,0.012876432707905769,-0.00752849466704647,-0.007914819112000987
1772795204467542500,1.64054248046875,0.024098083946108816,-0.006349237737624207,0.017135807185433803
1772795204477586400,1.65058642578125,0.02020633720457554,0.0033000347759458235,-0.008099582828069106
1772795204487630600,1.660630615234375,0.02020750624835491,0.003510684135230258,-0.010868298622732982
1772795204497675800,1.67067578125,0.02634089443683624,0.008629140252171782,0.011491462889220564
1772795204507719400,1.680719482421875,0.030533669951558113,0.004127905001409817,0.01524360936381854
1772795204517763600,1.690763671875,0.03292962517738342,0.011015844734106212,-0.001879630600987002
1772795204527807500,1.700807373046875,0.017066285613179206,0.002486672566446941,0.0017490721570327878
1772795204537851600,1.7108515625,0.01048223104774952,-0.012251423544203862,-0.010210437502199783
1772795204547895600,1.7208955078125,0.029783143845200536,0.0037657411751104517,-0.00017626074920408427
1772795204557939500,1.730939453125,0.02544423785805702,-0.00005462083064485341,0.01034063975312747
1772795204567984600,1.740984619140625,0.005989595803618431,-0.00857161507838755,0.0007752221561968326
1772795204578028800,1.75102880859375,0.03307283304035664,0.007750296749651897,-0.003935174891306087
1772795204588072400,1.761072509765625,0.031875147688388825,-0.00027976793109555726,0.01921133481785655
1772795204598116600,1.77111669921875,0.025143209084868428,-0.018129624545353,0.012318981488235294
1772795204608160500,1.781160400390625,0.028586043015122412,0.0036392618262965698,0.010129453821014612
1772795204618204700,1.79120458984375,0.009733458507061005,0.007944018948666053,0.001565760612534359
1772795204628248600,1.80124853515625,0.016916063487529755,0.0012110688482818658,0.00949444385310635
1772795204638293500,1.81129345703125,0.03023264117836952,-0.009837254524964372,0.009731239150511101
1772795204648337700,1.821337646484375,0.02020575268268585,0.011740782024769577,0.008331373156793415
1772795204658381800,1.8313818359375,0.025592121896147728,0.008866265484783798,0.007073025392461568
1772795204668425500,1.841425537109375,0.012119476860761641,-0.0003067267199687194,0.006297273513302206
1772795204678469600,1.8514697265625,0.01795358984172344,0.005739211513922782,-0.014485950263775884
1772795204688513500,1.861513427734375,0.029773206973075866,-0.004180961779342033,-0.0006683733813930302
1772795204698557700,1.8715576171875,0.027528058394789695,-0.009587317759840517,0.000049529096996411675
1772795204708601600,1.8816015625,0.00807400086224079,-0.00798088378526736,-0.002298760195355862
1772795204718646500,1.891646484375,0.022886954590678212,-0.002064026707585435,-0.00010578019572421908
1772795204728690700,1.901690673828125,0.018396657434105873,0.001980387561721727,-0.002720109146274626
1772795204738734600,1.911734619140625,0.021389409509301183,0.013483293151919496,-0.004390946701634675
1772795204748778500,1.921778564453125,0.022585341295599935,0.016893455505144084,-0.003259038328565657
1772795204758822700,1.93182275390625,0.023632804521918297,-0.003535953290516045,0.006919259602855891
1772795204768866600,1.941866455078125,0.03904430866539478,-0.008583429955411701,-0.009460852110758424
1772795204778910700,1.95191064453125,0.017495909202098845,-0.004491520999278873,-0.01309394791610539
1772795204788955600,1.96195556640625,0.02452887657880783,-0.010675421240512514,-0.013255970077402889
1772795204798999600,1.97199951171875,0.005375263297557831,-0.018635473441949577,-0.006520286880526692
1772795204809043700,1.982043701171875,0.02393149520754814,-0.007783162406214978,0.00045694998726248737
1772795204819087600,1.992087646484375,0.018396657434105873,-0.0056633355494064746,-0.0020098785176873206
1772795204829131500,2.002131591796875,0.024081132811307904,-0.004051783583365613,-0.004801902122702449
1772795204839175700,2.01217578125,0.017646131327748296,-0.002367724645184353,-0.001844586687069386
1772795204849219600,2.022219482421875,0.03305763547122478,-0.005750616540637565,0.0024118651810102164
1772795204859264500,2.032264404296875,0.009417232164740563,-0.016996544845215976,-0.00554524956960231
1772795204869308400,2.042308349609375,0.015253683233261107,-0.006129670994589105,-0.007748093376122415
1772795204879352600,2.0523525390625,0.02946750202476978,0.0033905043797509277,-0.01250034767081961
1772795204889396700,2.062396728515625,0.02632569686770439,-0.019885210924851706,0.0054975379703566425
1772795204899440600,2.072440673828125,0.013458616510033607,-0.013181448103045112,-0.0035122276383452115
1772795204909484500,2.082484619140625,0.026477088037133216,0.0020689894354261923,0.010556940251775086
1772795204919528400,2.092528564453125,0.021990298011898994,0.005366429253842215,-0.004105663486849516
1772795204929573600,2.10257373046875,0.02064414409995079,-0.0053033945045899596,-0.012903905236721039
1772795204939617500,2.112617431640625,0.008525251761078835,-0.0006254635381395928,-0.010365153139876201
1772795204949661400,2.122661376953125,0.01391337454020977,-0.011298812694218941,-0.0023826208202168343
1772795204959705600,2.13270556640625,0.006132219144701957,-0.007016366726713022,0.01362468465878628
1772795204969749800,2.142749755859375,0.024538228929042814,0.0007376221006561536,0.0021543741554487495
1772795204979793700,2.152793701171875,0.027978724771738052,-0.013634710579167585,0.014965486542182042
1772795204989837600,2.162837646484375,0.028727497312426565,-0.010014169436361407,-0.009397531950427218
1772795204999881500,2.172881591796875,0.03201894007325172,0.0008803744475473649,-0.018419837380293756
1772795205009926700,2.1829267578125,0.03097206136882305,0.0014439151979982851,-0.00911667831558734
1772795205019970600,2.192970458984375,0.024689035576581954,-0.0018106090689427219,-0.010941793117206543
1772795205030014500,2.203014404296875,0.012868833923339843,-0.0036770388367061966,-0.007113119940832257
1772795205040058600,2.21305859375,0.012866495835781097,0.011297542044095462,-0.013385304678650572
1772795205050102500,2.2231025390625,0.019299743753671644,0.001489617503248155,-0.0010267035660799593
1772795205060146700,2.233146728515625,0.018700608816742896,-0.0044621407828119115,0.0019123272941913455
1772795205070190600,2.243190673828125,0.022293080350756642,0.002353972397756297,0.005601235806848854
1772795205080235500,2.253235595703125,0.024089900639653203,0.007164082943089306,-0.02244938515732065
1772795205090279700,2.26327978515625,0.02184709014892578,0.0005017309855495114,-0.007563539722608402
1772795205100323600,2.273323486328125,0.025586861199140547,-0.002007314384554047,-0.0016337112822104244
1772795205110367500,2.283367431640625,0.007182020458579063,-0.004255188067822018,0.0058792490306310355
1772795205120411600,2.29341162109375,0.008382043898105622,-0.007395060421060771,-0.008749096245365217
1772795205130455600,2.30345556640625,0.02753565717935562,-0.006601610771717969,0.004990026839636266
1772795205140499700,2.313499755859375,0.03472001572549343,-0.008330084240360884,0.007188048340566456
1772795205150544600,2.323544677734375,0.024845687443017957,-0.0026821129401563663,-0.004357455423986539
1772795205160588500,2.333588623046875,0.029487375769019126,-0.007301480978139443,-0.022286687142588198
1772795205170632700,2.3436328125,0.029787820020318028,-0.005483089319895953,-0.006792427485948428
1772795205180676600,2.353676513671875,0.03158522483110428,-0.002829515204345807,-0.0027743418178521094
1772795205190720500,2.363720458984375,0.027992753297090528,-0.013886031017202184,-0.007051644677715375
1772795205200764700,2.3737646484375,0.029188100561499595,0.000009041822981089352,-0.007143642943259328
1772795205210808600,2.38380859375,0.02948620672523975,-0.014410390534735052,-0.00902049706527032
1772795205220852700,2.393852783203125,0.018712883776426315,-0.006660236490622628,0.008827924502082168
1772795205230897700,2.403897705078125,0.017218261304497717,-0.008519131405901862,-0.010337808475224301
1772795205240941600,2.413941650390625,0.038171032962203026,-0.0027946882028481923,-0.008601257873047143
1772795205250985700,2.42398583984375,0.010188216537237166,0.008192195298254955,-0.013879435737989842
1772795205261029400,2.434029296875,0.005547697255015373,0.004867191619478399,-0.012651145185204223
1772795205271073500,2.444073486328125,0.023204934498667715,0.0046143539361481085,0.01130473554492928
1772795205281117700,2.45411767578125,0.024851532661914824,-0.013070092116482555,0.005338657614216208
1772795205291161600,2.46416162109375,0.013628712379932403,-0.012373227859544566,0.005207788643008098
1772795205301206500,2.47420654296875,0.012431611549854277,0.0005060224265325815,0.0010124101792462169
1772795205311250700,2.484250732421875,0.02171148107051849,-0.003856276994285872,-0.0027016693072859197
1772795205321294600,2.494294677734375,0.02201134079992771,0.004960046118259197,0.0004985789055936039
1772795205331338800,2.5043388671875,0.01722469104528427,0.0069648671516275495,-0.0011845975415315478
1772795205341382400,2.51438232421875,0.0187222361266613,0.001236730729212286,-0.0027671722915489226
1772795205351426600,2.524426513671875,0.01632628090083599,0.00039644626345834694,-0.008569063503341749
1772795205361470700,2.534470703125,0.023954876083135603,0.00118031637534732,0.0120822409897577
1772795205371515400,2.544515380859375,0.018567922347784042,-0.006727206487831427,0.00027618659287691113
1772795205381559600,2.5545595703125,0.036972763088345524,0.0038304335919092406,0.008899975958140566
1772795205391603500,2.564603515625,0.02111117708981037,-0.026124374742479993,-0.008866612544655799
1772795205401647600,2.574647705078125,0.029342998862266538,0.001954883227706887,-0.004578167236270383
1772795205411691000,2.58469091796875,0.019918752434849737,-0.0014343288106785622,0.006811798906698823
1772795205421735200,2.594735107421875,0.018871873730421065,-0.003689212190045509,0.0007298395113553851
1772795205431778800,2.60477880859375,0.020966215661168096,-0.01102066361476318,0.011446883961977437
1772795205441824000,2.614823974609375,0.019616554617881775,-0.013329552478488767,0.01591511541721411
1772795205451868200,2.6248681640625,0.029790158107876778,0.004730287916417,-0.003081909929681569
1772795205461911800,2.634911865234375,0.019763269612193105,0.0016243189744243863,0.006877247092034668
1772795205471956000,2.6449560546875,0.01781856528520584,0.0005874661903770175,0.01216621121247299
1772795205482000100,2.655000244140625,0.02485094814002514,0.0013512342291534878,-0.0024042115975171324
1772795205492044000,2.6650439453125,0.0287391877502203,0.009268946267850697,0.002850731522310525
1772795205502088200,2.675088134765625,0.026343817046284673,0.001273531633731909,0.0030799280351493505
1772795205512132900,2.6851328125,0.02529752286374569,-0.0009459562052681576,-0.006434435227978974
1772795205522177000,2.695177001953125,0.021855273455381394,0.002324084149568807,-0.004360021840408444
1772795205532221200,2.70522119140625,0.021851766324043273,0.002948965449107345,-0.011137005162052809
1772795205542264800,2.715264892578125,0.01377133572101593,-0.006089702027093153,0.0018887637555133551
1772795205552309000,2.72530908203125,0.014817629903554915,-0.01105512529007974,0.007500301760667935
1772795205562353000,2.735352783203125,0.02558803024291992,0.006336111111281207,-0.0023195472550578415
1772795205572397000,2.74539697265625,0.028880057525634766,-0.0031183432247315064,0.0036657103001605717
1772795205582442000,2.75544189453125,0.02214987248778343,0.00998100695227622,-0.011954550356324761
1772795205592486000,2.76548583984375,0.028135376638174055,-0.0067712899414415,-0.009416949036950246
1772795205602530000,2.775530029296875,0.008978256225585938,-0.017608497022878145,0.005469782313751057
1772795205612574200,2.78557421875,0.02065115836262703,0.005311334640806307,-0.004481447129836305
1772795205622617900,2.795617919921875,0.03456920907795429,-0.0023419588746211957,-0.015877121494384482
1772795205632662000,2.805662109375,0.025140870997309682,-0.016492382157273822,0.0023003219647798685
1772795205642706000,2.815705810546875,0.015860416954755784,0.0034282106082129758,0.0030247272491920737
1772795205652750800,2.825750732421875,0.011520341923832892,-0.011895612968521891,0.003579630318749696
1772795205662795000,2.835794921875,0.02229717200398445,0.008805909033096394,-0.0029605303060263395
1772795205672839000,2.8458388671875,0.015713117438554764,0.01587015746405814,-0.016729792800964788
1772795205682883000,2.855883056640625,0.02828033806681633,-0.006963355614553438,-0.0018881335678510368
1772795205692927000,2.865927001953125,0.03471533955037594,-0.008016755391313926,0.02056084973067045
1772795205702971000,2.875970947265625,0.019752748218178746,0.00032179185835993845,-0.006134137107152491
1772795205713015000,2.88601513671875,0.0056838908553123475,0.010684627460275077,-0.013494710736721753
1772795205723060000,2.89606005859375,0.017502338942885397,0.007073047083703567,-0.015038697908865287
1772795205733103900,2.906103759765625,0.03530862926840782,-0.009833206254220567,-0.0028015494851861148
1772795205743148000,2.91614794921875,0.0240858089864254,0.0036000931514659894,0.005557487996667623
1772795205753192000,2.92619189453125,0.019147768062353132,-0.008563926103920675,0.003012132629100233
1772795205763236000,2.936236083984375,0.02244096438884735,-0.008172564724244876,-0.00304627236071974
1772795205773280000,2.946280029296875,0.024535306319594382,0.006869625474582426,-0.003354488926520571
1772795205783324000,2.956323974609375,0.00957329950928688,0.012125695397349772,-0.006245095801493152
1772795205793369000,2.966369140625,0.0249877262622118,0.010263885864132316,-0.0020831994822248815
1772795205803413000,2.9764130859375,0.01720949347615242,-0.007731721054989611,-0.006688674850529059
1772795205813457000,2.986456787109375,0.022593524602055548,0.002376358901144704,-0.0061004449001047754
1772795205823501000,2.9965009765625,0.027531565526127812,0.006931514012941625,-0.008797520230663939
1772795205833545000,3.006544921875,0.0362111310660839,-0.010520163321786093,-0.013414832167234271
1772795205843589000,3.016589111328125,0.023790625432133672,-0.01132735494375811,-0.014644593157898634
1772795205853633000,3.026633056640625,0.02798223190307617,-0.0057351015943859236,-0.008866548612574115
1772795205863678000,3.036677978515625,0.024240707287192343,0.0007544682041800114,-0.012366583489626645
1772795205873722000,3.04672216796875,0.01930266636312008,-0.008085787198157049,-0.00546957225119695
1772795205883766000,3.05676611328125,0.0176589908093214,0.002537077304633567,0.002613991023832932
1772795205893810000,3.066809814453125,0.03471767763793468,0.0075609322069911285,-0.014602845508558674
1772795205903853800,3.076853759765625,0.021849428236484527,-0.007459182015701662,-0.0010705335746519268
1772795205913898000,3.08689794921875,0.017210077998042105,-0.0014274115877691655,0.007267159725073725
1772795205923942100,3.096942138671875,0.02095394070148468,-0.003264710017526522,-0.010959849363705143
1772795205933986800,3.10698681640625,0.01736322273313999,-0.005005174176418222,0.0019615001981612293
1772795205944031000,3.117031005859375,0.016914309921860694,-0.0052919894778751765,-0.0008843998854048549
1772795205954075100,3.1270751953125,0.03591887012124061,-0.00639402444413281,0.003776723793428391
1772795205964119000,3.137119140625,0.02260170790851116,-0.004260598320234566,-0.010686329651949926
1772795205974163000,3.147162841796875,0.020507950499653815,-0.0002191489012155216,-0.004897526250593364
1772795205984206800,3.157206787109375,0.029935704058408737,0.0012701672079332637,-0.001569770067371428
1772795205994251000,3.1672509765625,0.02739186479449272,0.005561238298245006,-0.001281345047429204
1772795206004296200,3.177296142578125,0.015272972455620764,-0.001255877246032469,-0.008497094245674089
1772795206014339800,3.18733984375,0.00315232655107975,0.007009885611932259,-0.0023745745110791174
1772795206024384000,3.197384033203125,0.019163550153374672,-0.0040998776334570716,0.004362944449856877
1772795206034428200,3.20742822265625,0.025896657800674436,0.00652349033447681,0.0026741237132344394
1772795206044472000,3.21747216796875,0.00943652138710022,0.006805323500139638,0.01630096379648894
1772795206054516000,3.227515869140625,0.0356231020450592,0.007223641385399969,-0.006881037351163103
1772795206064559900,3.237559814453125,0.024998832178115844,0.010177464531071018,0.0010442392227705568
1772795206074605000,3.24760498046875,0.01736497629880905,-0.008205768307525431,-0.016484010479506105
1772795206084649000,3.25764892578125,0.020057868644595144,0.0048618692736781665,-0.0018506785011384635
1772795206094692900,3.26769287109375,0.018261632877588273,0.006956123297812883,0.01100941499331966
1772795206104737000,3.277737060546875,0.02305003619790077,-0.0021449544481991325,-0.018201171394623815
1772795206114781000,3.287781005859375,0.02200257297158241,-0.0013505492425640113,-0.018961332979006693
1772795206124825000,3.2978251953125,0.01915828945636749,0.004267980192380491,0.0013449940013233572
1772795206134869000,3.307868896484375,0.01033142440021038,-0.0032484598523355086,-0.0057301959487609565
1772795206144914000,3.317913818359375,0.01407236449420452,0.0033700678048538975,0.0012783311064355075
1772795206154958000,3.3279580078125,0.029036124870181083,-0.0009441307160072028,0.017591898656170814
1772795206165002000,3.338001953125,0.02050678145587444,0.006847402226331178,0.011321220888849346
1772795206175046000,3.3480458984375,0.012276128727197647,0.0023596646363148463,-0.0008360946311149745
1772795206185090000,3.358090087890625,0.023798808738589285,0.0011713795836432836,-0.020534327049925923
1772795206195134000,3.368134033203125,0.02933949173092842,-0.007077215227100532,-0.006519857622263953
1772795206205178000,3.37817822265625,0.035624271088838574,-0.002762536073982483,0.011016831114795058
1772795206215223000,3.38822314453125,0.020061375775933265,-0.005959191532200202,-0.006516953279124572
1772795206225267000,3.398266845703125,0.020208675292134284,0.0013281056569598149,-0.02073471759338863
1772795206235311000,3.40831103515625,0.02604337279498577,-0.005647716713522095,0.006980999727454036
1772795206245355000,3.41835498046875,0.024397943675518036,-0.0008413530448335223,0.00926425182642415
1772795206255399000,3.42839892578125,0.014822306078672408,-0.003544618370872922,0.009027803588891402
1772795206265443000,3.438443115234375,0.026495792737603188,0.0033994274717231744,-0.01882691121068783
1772795206275487000,3.448487060546875,0.030835867768526076,0.0005403984785254579,-0.011606732432497664
1772795206285532000,3.458531982421875,0.026345570611953733,-0.018813263994536828,0.006897486162465065
1772795206295576000,3.468576171875,0.019763269612193105,-0.009930873925436753,-0.005250340009946375
1772795206305620000,3.478619873046875,0.02245966908931732,-0.0077802260970347556,-0.010434638179512694
1772795206315664100,3.4886640625,0.005849895071983337,0.008761267315415898,-0.00340535146407783
1772795206325708000,3.4987080078125,0.01782207241654396,0.00480926344525069,-0.01681262137936428
1772795206335752000,3.508751953125,0.03218669785559177,0.00694374901507399,-0.011736130965827032
1772795206345797000,3.518797119140625,0.01767477290034294,0.005654225227766437,0.004919847680255771
1772795206355841000,3.528841064453125,0.019770868396759032,-0.005907319781067781,-0.008801694082282483
1772795206365885000,3.538885009765625,0.04236497752070427,-0.009147422797011676,0.011020740104932338
1772795206375929000,3.54892919921875,0.028299627289175986,0.0088617913807102,-0.01750654019396752
1772795206385973000,3.558972900390625,0.026803835773468017,-0.010326231060217832,-0.010861357425292954
1772795206396017200,3.56901708984375,0.02381166822016239,-0.00433313155019423,-0.0015611940352711826
1772795206406061000,3.57906103515625,0.013486673560738563,0.007584154394018696,0.01233954935222864
1772795206416105500,3.58910546875,0.030095278534293172,0.009125571724807378,-0.005087879457231611
1772795206426150700,3.599150634765625,0.024260581031441686,0.01735007669884362,-0.01996700289021246
1772795206436194300,3.6091943359375,0.04251870677769184,0.013918291602277895,-0.02265639723781496
1772795206446238500,3.619238525390625,0.02934767503738403,0.01731241727779852,-0.0015970964657142758
1772795206456282400,3.629282470703125,0.020518471893668174,-0.0010861067447636742,0.006315603754436597
1772795206466326500,3.639326416015625,0.028300796332955357,0.002567607156926533,-0.0015434026502538472
1772795206476370700,3.64937060546875,0.03234218067824841,0.00072404566645273,-0.007452772824512794
1772795206486415400,3.659415283203125,0.02037175689935684,-0.00034101714863791127,-0.0035351335898973044
1772795206496459500,3.66945947265625,0.02441197220087051,0.006913025083247339,0.0063413227175828065
1772795206506503400,3.67950341796875,0.029050737917423245,-0.0030045395527558867,-0.005966443256894126
1772795206516547300,3.68954736328125,0.017230536264181136,0.002441099267004756,0.001162394842877984
1772795206526591500,3.699591552734375,0.029652210941910742,0.00114417419959791,-0.011608714327029883
1772795206536635400,3.709635498046875,0.025463527080416676,-0.006995720089261886,-0.005066626606648788
1772795206546679600,3.719679443359375,0.03114975602328777,0.004196280362771358,-0.007634577398514374
1772795206556724500,3.729724365234375,0.012145780345797538,0.010413666173431556,0.012747792226402089
1772795206566768400,3.739768310546875,0.02441781741976738,0.007095458703266922,-0.011999540275521576
1772795206576812500,3.7498125,0.028008535388112068,0.0010885795463516843,0.007729964064387604
1772795206586856400,3.7598564453125,0.020675708281993863,-0.01490811549038044,-0.00037103440263308585
1772795206596900400,3.769900390625,0.01783084024488926,0.0014352569675073028,0.003221975987497717
1772795206606944500,3.779944580078125,0.020824176841974257,0.003696460489806486,-0.0007715323617681861
1772795206616988400,3.789988525390625,0.0146919576972723,-0.003178148262214381,-0.004940726071503013
1772795206627033600,3.80003369140625,0.018733926564455033,0.004653312548424582,-0.0031721363632474095
1772795206637077500,3.810077392578125,0.015140870508551597,-0.006891620393970515,0.0006029891281388699
1772795206647121400,3.820121337890625,0.02756137614250183,-0.003817002146533923,-0.01042397978818044
1772795206657165600,3.83016552734375,0.0209790751427412,0.000795969258347759,-0.00010640125023201107
1772795206667209500,3.84020947265625,0.043425884750485415,-0.0022794275905122048,-0.0025933774940669536
1772795206677253400,3.85025341796875,0.0265168355256319,0.003695019734679954,0.002981691825063899
1772795206687298600,3.860298583984375,0.021727847683429717,0.008947794871951919,-0.007545556541346013
1772795206697342500,3.870342529296875,0.021131050834059716,-0.0006256393513642251,0.015466905858833343
1772795206707386400,3.880386474609375,0.012601707419753074,0.008262430398206925,-0.004590022070845589
1772795206717430300,3.89043017578125,0.01260229194164276,-0.0000727649837557692,0.007566243136348202
1772795206727474400,3.900474365234375,0.020236147820949554,0.0010103380948130506,0.0017043744987808166
1772795206737518600,3.9105185546875,0.03160919022858143,-0.0009383882450987584,0.005356047140434384
1772795206747562500,3.9205625,0.03894201733469963,-0.015456335374113405,0.00522548869648017
1772795206757607400,3.930607421875,0.01739244882762432,0.005859452918195165,0.004095799679961055
1772795206767651600,3.940651611328125,0.026670564782619473,-0.002101806001283694,0.003378892715414986
1772795206777695500,3.950695556640625,0.02741758375763893,0.0008822136365401092,0.003935037893988192
1772795206787739400,3.960739501953125,0.024873744493722913,0.0013264320063928606,0.0003276427854783833
1772795206797783300,3.970783203125,0.011854103922843933,-0.0006992263190273661,0.004150571207655594
1772795206807827500,3.980827392578125,0.02277589543163776,0.005650214631285053,0.002863983729528263
1772795206817872600,3.99087255859375,0.01125204637646675,0.004431045816582628,0.010954506468307226
1772795206827915500,4.00091552734375,0.01977963622510433,0.00043209182393038644,-0.0060467328183352945
1772795206837959400,4.01095947265625,0.016190671822428702,0.004603349626588169,-0.011162651059962808
1772795206848003300,4.02100341796875,0.026665304085612296,-0.0034048662652436178,0.011770435094228014
1772795206858048500,4.031048583984375,0.02501987496614456,0.009644818959094118,0.005225050305062905
1772795206868092400,4.041092529296875,0.026516251003742216,-0.0018981994457833934,0.0004240888972766697
1772795206878136300,4.05113623046875,0.0299590849339962,-0.01181018600765965,-0.006551102143898606
1772795206888180500,4.061180419921875,0.021728432205319403,-0.01010015808622702,0.003567757217865437
1772795206898224400,4.071224365234375,0.017837854507565497,0.019474531781708354,0.004022332584951073
1772795206908268500,4.0812685546875,0.008261632388830185,0.0003970079524617176,-0.010586769134458154
1772795206918312400,4.0913125,0.031306992411613464,0.017406670290866167,-0.003914214301668107
1772795206928357400,4.101357421875,0.025322072783112524,0.007314555088843917,0.007778123188205063
1772795206938401500,4.111401611328125,0.02816518725454807,0.006342656158143654,-0.01316453806743957
1772795206948445400,4.121445556640625,0.024724106889963147,0.00035589277407270856,-0.00039876265977509316
1772795206958489300,4.1314892578125,0.03909048589468002,0.001708664798119571,-0.0006343706470914185
1772795206968533500,4.141533447265625,0.014846855998039244,0.006507610062044113,-0.0016700795035343617
1772795206978577400,4.151577392578125,0.027265608066320418,-0.00266900686341105,0.00035961795947514474
1772795206988622300,4.161622314453125,0.03265256180167198,-0.006505071045085787,0.004382261071680113
1772795206998666500,4.17166650390625,0.02277647995352745,-0.0013105437424499541,-0.017598465394275262
1772795207008710400,4.18171044921875,0.018287351840734482,0.01765025951359421,0.000645695758704096
1772795207018754600,4.191754638671875,0.015893734702467917,0.004803590614645509,0.0012947159856557845
1772795207028798500,4.201798583984375,0.01798983019888401,-0.008258119549270486,0.004924669985845685
1772795207038842400,4.21184228515625,0.01858896513581276,-0.011077248073631198,-0.003243557631643489
1772795207048886500,4.221886474609375,0.03310205913484096,0.013468337611382594,0.00024416575310751793
1772795207058931500,4.231931396484375,0.02367313653230667,0.01938505655010231,-0.0039031357852276414
1772795207068975400,4.241975341796875,0.013495441389083861,0.008385354666621424,-0.0140702090697363
1772795207079019500,4.25201953125,0.028908699098229407,0.006520466118684271,0.011991640096856281
1772795207089063400,4.2620634765625,0.02172550959587097,-0.004806972165108891,0.008200074927322566
1772795207099107600,4.272107666015625,0.030704350343346593,0.014838468337251106,-0.008985206556180491
1772795207109151500,4.2821513671875,0.029355273821949957,0.0024031784094113388,0.002880889198556542
1772795207119195400,4.2921953125,0.022621581652760504,0.006474266056512715,0.00229553619180806
1772795207129240600,4.302240478515625,0.0308522343814373,0.014171380447357659,-0.013104578907974064
1772795207139284500,4.312284423828125,0.01813186901807785,0.005195511400036048,-0.005432674306910485
1772795207149328400,4.322328369140625,0.027110125243663786,0.005008946169237606,0.007579029552685097
1772795207159372500,4.33237255859375,0.022172668841481207,0.00987403031330905,-0.00003061433397233486
1772795207169416400,4.34241650390625,0.019627076011896134,-0.002319953680434264,-0.003128744746092707
1772795207179460600,4.352460693359375,0.02755786901116371,-0.005186721880448749,-0.007946109299408272
1772795207189505500,4.362505615234375,0.029052491483092305,-0.009909649615961824,-0.0068666161001659926
1772795207199549400,4.372549560546875,0.022619243565201758,0.023123430227674543,0.007549639061419293
1772795207209593600,4.382593505859375,0.02022796451449394,0.01809779207689571,0.009396938295383005
1772795207219637500,4.392637451171875,0.029655133551359174,-0.0031298361580586057,-0.0027499654284212738
1772795207229681400,4.402681396484375,0.02037526403069496,0.0020617137362016363,0.001476365296030417
1772795207239725300,4.412725341796875,0.012442717465758323,0.0012908138453844003,-0.009117500299494713
1772795207249770500,4.4227705078125,0.011545476365089416,-0.0066363327419385314,-0.012380812944378703
1772795207259814400,4.432814453125,0.0061596916735172265,-0.0031133416809840126,0.009252415258157998
1772795207269858300,4.4428583984375,0.022917349728941917,0.004101769338088343,0.002847470986144617
1772795207279902500,4.45290234375,0.03743219729363918,0.0033395573605142998,-0.004505951383430511
1772795207289946600,4.462946533203125,0.03489011159539222,0.0005369404378929175,-0.013852209804346784
1772795207299990500,4.472990478515625,0.018281506621837616,-0.0023111573109810706,-0.0068666069670114665
1772795207310034400,4.483034423828125,0.01723521243929863,-0.0030148040767991914,-0.006195228777779266
1772795207320079600,4.49307958984375,0.011547814452648162,-0.009827842809224966,0.006917149844160303
1772795207330123500,4.50312353515625,0.022473113092780113,-0.001977503768180031,-0.005242330233426764
1772795207340167400,4.51316748046875,0.033547464814782144,-0.009970918241457547,0.0017055892083328217
1772795207350211300,4.52321142578125,0.017236381483078003,0.002063228698208695,0.020242933754762632
1772795207360255500,4.53325537109375,0.016786884149909018,-0.0016700395459833088,0.00045497722588479515
1772795207370299600,4.543299560546875,0.02875730792880058,0.006128963175113312,-0.007665831053303554
1772795207380344300,4.55334423828125,0.02905482957065105,0.009185721538873622,0.007622238506749272
1772795207390388500,4.563388427734375,0.027108956199884415,0.00935965790025075,-0.004575929613411426
1772795207400432400,4.573432373046875,0.030099954709410667,-0.0005326615549973212,0.0002766797832213342
1772795207410476500,4.5834765625,0.03159340813755989,-0.005630625156470341,0.004873332524253055
1772795207420520200,4.593520263671875,0.03383855671584606,0.007556297131069004,0.003268198882555589
1772795207430564400,4.603564453125,0.015431962409615516,0.005077990534168202,-0.01041556815286167
1772795207440608300,4.613608154296875,0.022763620471954345,-0.00039078484929632395,-0.005212008160399273
1772795207450653400,4.6236533203125,0.03114332628250122,0.0009779599203728138,-0.007774853518884629
1772795207460697300,4.633697265625,0.025306290692090987,-0.0033947204722091554,-0.010399959591776132
1772795207470741200,4.6437412109375,0.008394318857789039,-0.010094672485289629,-0.0039892248997930434
1772795207480785400,4.653785400390625,0.010789105039834976,0.002348226501914905,0.004858180620893836
1772795207490829300,4.663829345703125,0.01407937875688076,-0.007112729498476255,-0.004983524033613503
1772795207500873200,4.673873291015625,0.021260814693570135,-0.0027605530378059483,0.01826276538874954
1772795207510918400,4.68391845703125,0.010037409889698028,-0.005210889348969795,0.00026475188340991735
1772795207520962300,4.69396240234375,0.01647007328569889,-0.003331539592484478,-0.016748451835662124
1772795207531006500,4.70400634765625,0.02410100655555725,-0.003248169874679297,0.011054706306615843
1772795207541050400,4.71405029296875,0.02006079125404358,-0.01140966064906097,-0.021585507470136506
1772795207551094300,4.72409423828125,0.02051028858721256,-0.009613110929867252,-0.013161003536637872
1772795207561138400,4.734138427734375,0.025299860951304435,0.012092018031678161,-0.01458067020936869
1772795207571182300,4.744182373046875,0.03382978888750076,0.004266776899271644,-0.01337526734182611
1772795207581227300,4.754227294921875,0.020061375775933265,0.004529390482878079,0.0017783347841352224
1772795207591271400,4.764271484375,0.023950784429907796,0.0015263784502167253,0.00007188705927692354
1772795207601315300,4.7743154296875,0.03038695495724678,0.014419328468083404,-0.011059400748042389
1772795207611359200,4.784359130859375,0.026195933008193967,-0.0024961710471543483,0.012844028275646268
1772795207621403100,4.794403076171875,0.0324818814098835,-0.011358854052075184,0.005750115358782931
1772795207631447300,4.804447265625,0.027393033838272095,0.0059624338020570575,-0.0006155563487671316
1772795207641492500,4.814492431640625,0.026944705548882484,0.002070787525223568,0.003930270387325436
1772795207651536100,4.8245361328125,0.012130582776665687,0.004721571462065912,-0.007715835074335336
1772795207661580300,4.834580322265625,0.009437690430879593,0.007600525573507184,0.000669323229463771
1772795207671624400,4.84462451171875,0.022605799561738967,0.004928807304846123,0.0015833876007702201
1772795207681668400,4.85466845703125,0.022754852643609047,0.0027625257991836403,-0.009658429642627015
1772795207691712300,4.864712158203125,0.023052374285459518,-0.0011410951848782132,-0.007695532071823254
1772795207701757400,4.87475732421875,0.0275409178763628,-0.007697773119615158,-0.021636406540311872
1772795207711801300,4.88480126953125,0.031878070297837256,0.012542661575740202,0.004675873723393306
1772795207721845500,4.894845458984375,0.0372656085550785,0.010031313509051688,-0.009045174848800524
1772795207731889200,4.90488916015625,0.030231472134590147,-0.000807059191231383,-0.020328018222330137
1772795207741933300,4.914933349609375,0.030829438027739523,-0.001086444671481149,0.0068642414799891405
1772795207751977500,4.9249775390625,0.0243950210660696,0.00494055596649996,0.0002747983533889055
1772795207762021400,4.935021484375,0.019306758016347885,0.0004320187586941756,-0.0028769893415737896
1772795207772066300,4.94506640625,0.023648586612939834,-0.01044485361285042,-0.007829661579197272
1772795207782110500,4.9551103515625,0.021703882285952568,0.0013888514093589037,-0.011701233182381837
1772795207792154400,4.965154296875,0.020507950499653815,0.003211695480433991,0.0018100633629597723
1772795207802198500,4.975198486328125,0.02724281171262264,0.01215632000612095,0.00982507318011485
1772795207812242200,4.9852421875,0.026495792737603188,0.0017156413865333888,-0.006412652654433622
1772795207822286300,4.995286376953125,0.012428688940405845,-0.0001228900190850254,-0.0042434645223431286
1772795207832331500,5.00533154296875,0.023350480449199674,-0.00546988734502811,-0.0037552334808278825
1772795207842375200,5.015375244140625,0.022602292430400846,-0.004127349020628025,-0.004939867554977536
1772795207852419300,5.02541943359375,0.02230418626666069,0.0030097032099962234,-0.00336518385047093
1772795207862463200,5.035463134765625,0.026793898901343344,0.00810610161711229,0.00580042990706861
1772795207872507400,5.04550732421875,0.00793897630572319,0.001715357117098756,-0.0029113848015200343
1772795207882551600,5.055551513671875,0.023348726883530617,0.00795079460768029,-0.0068426598358433685
1772795207892596200,5.06559619140625,0.03307634017169475,-0.005070776483736699,-0.0003392510248813778
1772795207902640400,5.075640380859375,0.0327782340079546,0.00652763792827609,-0.008467009634664282
1772795207912684500,5.0856845703125,0.02589607327878475,-0.0026114474402973427,0.013901684102416038
1772795207922728200,5.095728271484375,0.028888825353980064,0.01183365935643669,0.005121197204943746
1772795207932772400,5.1057724609375,0.033976503881812094,0.0005922713713021948,-0.012527829332789406
1772795207942816300,5.115816162109375,0.02948620672523975,0.008787719214212847,-0.004971075543994083
1772795207952861200,5.125861083984375,0.03218026811480522,0.002008327023062156,-0.00809343621507287
1772795207962905300,5.1359052734375,0.026792729857563972,0.00379503805154236,0.0034056985239498314
1772795207972949200,5.14594921875,0.024845687443017957,0.010251874624285846,0.007938985438877716
1772795207982993400,5.155993408203125,0.024696049839258192,0.0017040388553519732,-0.017833370128693057
1772795207993037300,5.166037353515625,0.019457564663887022,-0.008273655045119812,0.007542396469879895
1772795208003081200,5.176081298828125,0.021553075638413428,-0.007714903492573648,0.00022867592303082345
1772795208013125400,5.18612548828125,0.01780979745686054,0.006267626152065349,-0.013817768678627907
1772795208023170300,5.19617041015625,0.020502689802646634,-0.004901063064683694,-0.0005494688426144421
1772795208033214200,5.206214111328125,0.03726210142374038,-0.0013913356273900716,-0.01297584709492512
1772795208043258400,5.21625830078125,0.016612112104892728,0.004661090571148088,-0.0028086276799440383
1772795208053302300,5.22630224609375,0.010024550408124923,0.003912645682378206,0.0022255488286726174
1772795208063346400,5.236346435546875,0.006283025792241096,0.008122059521358459,0.0027683139358647166
1772795208073390300,5.246390380859375,0.0315711963057518,0.004430848312115995,-0.012408650799375026
1772795208083435300,5.256435302734375,0.014362871873378752,-0.0024792986858112273,-0.008985845876997337
1772795208093479400,5.2664794921875,0.014361118307709694,-0.002681604908435838,-0.0008580324682872742
1772795208103523300,5.2765234375,0.02842763758301735,-0.0013480330584920012,-0.009205187716102226
1772795208113567200,5.286567138671875,0.039950317594408986,-0.014877841366414212,-0.012013450069865211
1772795208123611400,5.296611328125,0.012862988704442977,0.003352226187486667,0.022668389069708063
1772795208133655300,5.3066552734375,0.02767769599854946,-0.011711022782389773,-0.005294425746845081
1772795208143700500,5.316700439453125,0.024385668715834617,0.002513444125652313,-0.008119968028971926
1772795208153744100,5.326744140625,0.02543430098593235,0.010916597027156968,-0.008189909726334736
1772795208163788300,5.336788330078125,0.01151741931438446,0.004429675843403674,-0.00972974131316878
1772795208173832400,5.34683251953125,0.02199088253378868,0.0024567260943993458,-0.00006407821215689182
1772795208183876400,5.35687646484375,0.03396072179079056,-0.008851225462567527,-0.005071741173183545
1772795208193920300,5.366920166015625,0.03381225323081016,-0.005193513522483408,-0.006632460284419358
1772795208203965400,5.37696533203125,0.01795066723227501,0.00399322978805285,-0.007966613231319933
1772795208214009300,5.38700927734375,0.014059505012631415,-0.0032995119028491897,-0.0006866305572912096
1772795208224053500,5.397053466796875,0.01795066723227501,0.013687274166755378,-0.023969790524477137
1772795208234097200,5.40709716796875,0.02408697803020477,0.0037908482169033957,0.0036440464576240625
1772795208244141300,5.417141357421875,0.021094810476899147,0.001968766764231259,0.010099232212686911
1772795208254185500,5.427185546875,0.027825580036640166,-0.0027458395258639938,-0.0015867303353268652
1772795208264230100,5.437230224609375,0.02094166574180126,-0.013626314926869235,-0.000009973404742777346
1772795208274274300,5.4472744140625,0.03859773394167423,-0.003263965665432624,0.001287245065253228
1772795208284318500,5.457318359375,0.024233108502626416,-0.001813523686880944,0.00010177987404167652
1772795208294362400,5.4673623046875,0.022587094861268996,-0.00048571371579892,-0.003345766763947904
1772795208304406500,5.477406494140625,0.015106383717060088,-0.007062040490854997,0.004212731457361951
1772795208314450200,5.4874501953125,0.00956979237794876,0.0006757004546117969,-0.011355625481950118
1772795208324495400,5.497495361328125,0.009716507372260094,-0.0009429787968925665,-0.028153460284136234
1772795208334539500,5.50753955078125,0.020340192717313764,0.001601342240924714,-0.009962244027946144
1772795208344583200,5.517583251953125,0.025575170761346817,-0.006737920819735154,0.015948387499153612
1772795208354627300,5.52762744140625,0.025724223843216893,0.0096483306570095,0.0009576112520880997
1772795208364671200,5.537671142578125,0.02123451120853424,-0.007501863530091941,0.009301679493673146
1772795208374715400,5.54771533203125,0.03156067491173744,0.007155408729577903,0.018349000633787364
1772795208384760300,5.55776025390625,0.031709727993607516,0.0026739787244063336,-0.00354070481415838
1772795208394804200,5.56780419921875,0.025275895553827286,0.008386103585292584,-0.005590696146525442
1772795208404848400,5.577848388671875,0.03455459603071213,0.001353971892222762,-0.01642037065876648
1772795208414892800,5.587892822265625,0.029018589213490483,-0.008642044257873203,0.0008065854088403284
1772795208424936700,5.597936767578125,0.014949731850624084,0.008134872195514616,-0.0028115868220105764
1772795208434980600,5.607980712890625,0.029315526333451268,0.008349246740201488,0.0012569777911528943
1772795208445025800,5.61802587890625,0.02512625795006752,0.006441071606386685,-0.0006586283055134117
1772795208455069700,5.628069580078125,0.02467909870445728,0.004250395444984315,-0.0018804251854307949
1772795208465113600,5.638113525390625,0.01764730037152767,-0.005931656212947564,0.0034091691226698457
1772795208475157800,5.64815771484375,0.027822657427191734,-0.0004274772976059466,-0.000012640285864472389
1772795208485201700,5.65820166015625,0.01779635345339775,-0.006156437987217213,-0.007365121940523385
1772795208495245600,5.66824560546875,0.02782324194908142,-0.0022602399744966533,0.007693824171926825
1772795208505290800,5.678290771484375,0.028870705175399778,-0.00850159689085558,-0.0006853884482756257
1772795208515334700,5.688334716796875,0.01974222682416439,0.007225261378684081,0.003607614304218441
1772795208525378800,5.69837890625,0.027073884886503218,-0.006337159140763105,0.009278910539438948
1772795208535422700,5.708422607421875,0.02752221317589283,-0.014999915109813446,-0.0007722264815121888
1772795208545466600,5.718466552734375,0.02273380985558033,0.0013163524287287144,-0.008085855696815997
1772795208555510800,5.7285107421875,0.024979542955756186,-0.008238315445324405,-0.0057878626864403485
1772795208565555700,5.7385556640625,0.023033669584989546,-0.010969932366302237,-0.003543691355688497
1772795208575599600,5.748599609375,0.025727146452665328,-0.008414593319193227,0.011391600977629422
1772795208585643800,5.758643798828125,0.02288403198122978,0.002404895442462293,0.015001096711680293
1772795208595687700,5.768687744140625,0.019592589220404622,-0.003018965370330261,-0.005151711074216291
1772795208605731800,5.77873193359375,0.023632220000028608,0.00802720486173639,-0.006230254425387829
1772795208615775700,5.788775634765625,0.023182722666859626,0.004927228410757379,-0.006866031578276306
1772795208625820700,5.798820556640625,0.014801263290643692,0.011954248962225392,-0.003101162619423121
1772795208635864800,5.80886474609375,0.018244097220897672,-0.010948391821351834,0.0025183029638603327
1772795208645908500,5.818908447265625,0.026471827340126035,0.00886033920914051,0.0016644078145734965
1772795208655952600,5.82895263671875,0.020935820522904394,0.009928417106869165,-0.0075958436901681125
1772795208665996800,5.838996826171875,0.01988777277469635,0.010635850706882775,-0.016154833324067294
1772795208676040700,5.849040771484375,0.021834230667352676,-0.0010787397139938547,-0.002783858564868569
1772795208686085600,5.859085693359375,0.02527648007571697,0.00676045687852893,0.008801639283355325
1772795208696129800,5.8691298828125,0.02617372117638588,-0.0025990491830278186,-0.010867631902452558
1772795208706173700,5.879173583984375,0.03036240503787994,0.004950063580361893,-0.010941281660553068
1772795208716217900,5.8892177734375,0.012855974441766739,-0.006021238759119296,-0.005769121453352272
1772795208726261500,5.899261474609375,0.021686931151151657,0.003232821608497761,-0.007554388301772997
1772795208736305700,5.9093056640625,0.028868367087841032,0.0029757358666684013,-0.004455554636754095
1772795208746350800,5.919350830078125,0.01914133832156658,-0.003738264079717919,-0.007178339797304943
1772795208756394800,5.929394775390625,0.010014613536000251,0.00034552321875235063,0.00021767047182656823
1772795208766438700,5.939438720703125,0.009714753806591033,-0.002236634194978978,0.0022922208567149934
1772795208776482800,5.94948291015625,0.020040332987904547,-0.00003931594694731757,0.002893374220794067
1772795208786526700,5.959526611328125,0.034405542948842044,0.010609192170464667,0.014725375909684224
1772795208796571000,5.96957080078125,0.02288110937178135,0.0013061290038807784,-0.010721611027885228
1772795208806615600,5.979615478515625,0.023179215535521505,-0.0025983961624791844,-0.0019657471150159836
1772795208816659700,5.98965966796875,0.025421441504359245,-0.006207334774103947,0.0016398944278247654
1772795208826704000,5.999703857421875,0.01853694268763065,0.01199095625191112,0.008473156247660518
1772795208836747500,6.00974755859375,0.023923311901092526,-0.004801516246923711,-0.003060520081780851
1772795208846791700,6.019791748046875,0.03320201237797737,-0.00008752644475898705,0.006589296996127814
1772795208856835600,6.029835693359375,0.004171732726693153,0.004060823123058071,-0.023962566199246794
1772795208866880800,6.039880859375,0.027364976787567136,0.017328300975164166,-0.00022306816615164278
1772795208876924700,6.049924560546875,0.02781447412073612,-0.0035936896684987,-0.0028756467678584157
1772795208886968600,6.059968505859375,0.03170563634037971,0.00335702451854595,-0.005378989624604582
1772795208897012700,6.0700126953125,0.013599486285448074,-0.003948914580646669,-0.0060000623987056315
1772795208907057000,6.080056884765625,0.03140636113286018,0.008433024025027406,0.0016434746243990956
1772795208917100500,6.0901005859375,0.02153086380660534,0.00555023056375212,-0.007307236007135361
1772795208927145700,6.100145751953125,0.02362520573735237,-0.002194095386128174,-0.0012171937700361012
1772795208937190000,6.11018994140625,0.026468904730677603,0.009620402612112229,-0.006749656923301517
1772795208947233800,6.12023388671875,0.03724047411382198,0.0069091845917690076,-0.01408829271569848
1772795208957277700,6.130277587890625,0.022277298259735106,0.0028904698776546865,-0.0013056940373964607
1772795208967321600,6.140321533203125,0.02557107910811901,0.014285613377596018,0.006716978496406227
1772795208977365800,6.15036572265625,0.01824117461144924,0.005787048694043187,-0.007468819777015596
1772795208987410700,6.16041064453125,0.020486907711625098,0.004561107645259472,0.0036686055101454256
1772795208997454600,6.17045458984375,0.028716975918412206,0.016143533328629563,-0.00009584332359954714
1772795209007498800,6.180498779296875,0.016446692410111426,0.0024650726559921165,-0.009215626911725849
1772795209017542700,6.190542724609375,0.023929741641879082,0.007581255759100895,-0.010516297714132814
1772795209027586800,6.2005869140625,0.0249789584338665,-0.005309035369154298,-0.013414302444271742
1772795209037630700,6.210630615234375,0.02662321850955486,-0.00609911374283256,0.010888857353571802
1772795209047675600,6.220675537109375,0.02467734513878822,-0.006063303785579046,0.004716032203845679
1772795209057719800,6.2307197265625,0.023030746975541114,0.00031982138027087786,-0.004882639208715409
1772795209067763700,6.240763671875,0.009563362637162207,0.010999413047468988,-0.010279401952028274
1772795209077807600,6.2508076171875,0.039191023659706115,-0.006088350320223253,-0.00884494870211929
1772795209087851800,6.260851806640625,0.026319851648807523,-0.011364621639158577,-0.006739665252249688
1772795209097895700,6.270895751953125,0.015245499926805496,0.007436625407310203,-0.02419591829739511
1772795209107940600,6.280940673828125,0.010457681128382683,0.014949253501655766,-0.010666318910382687
1772795209117984800,6.29098486328125,0.008209609940648078,0.003837574577104533,-0.016123123011551797
1772795209128028700,6.301028564453125,0.03349836497604847,-0.01515245477342396,-0.010271748368535191
1772795209138072800,6.31107275390625,0.02751344534754753,0.0049067895525717175,-0.0006913249987177551
1772795209148116700,6.32111669921875,0.012999766826629637,0.0007625213631836231,0.007171097205765545
1772795209158160600,6.33116064453125,0.030209844824671744,0.011592209575156448,0.001460135680437088
1772795209168205800,6.341205810546875,0.018988193586468697,0.0011512318447581492,0.01036390189770609
1772795209178249500,6.35124951171875,0.02841711618900299,-0.0029007834924035703,-0.0007680434967391193
1772795209188293600,6.361293701171875,0.025724808365106582,0.0038978271391591985,0.008865845359675585
1772795209198337800,6.371337890625,0.02632394330203533,0.00163115285729873,0.0009946005279198287
1772795209208381700,6.381381591796875,0.03156125943362713,0.004436183216003701,0.009550083030480891
1772795209218425900,6.39142578125,0.028419454276561736,0.008254929795052157,-0.015275675869360565
1772795209228470800,6.401470703125,0.020337854629755018,-0.001333029568893835,-0.0009967924850061535
1772795209238514700,6.4115146484375,0.031110008534789083,-0.016056099357060157,-0.01068078582715243
1772795209248558800,6.421558837890625,0.023774843341112135,0.0032618650398915632,0.0017005203075706958
1772795209258602500,6.4316025390625,0.019732289952039718,-0.00522914195829071,-0.0023404804452322424
1772795209268646700,6.441646728515625,0.011951134556531906,-0.013992670871096197,-0.008011036894936114
1772795209278691800,6.45169189453125,0.022127076134085655,0.004510846754256635,-0.007359404585789889
1772795209288735700,6.46173583984375,0.02736322322189808,0.006482508728472749,0.0008275551316328346
1772795209298779600,6.471779541015625,0.01644084719121456,0.00613762026395998,-0.0032943288376554845
1772795209308823800,6.48182373046875,0.037241058635711664,0.008696550924086477,-0.005669277808070182
1772795209318867700,6.49186767578125,0.02362345217168331,0.0007308087673794944,-0.011833262064214796
1772795209328912000,6.501911865234375,0.017788170146942138,0.005036191510834032,-0.005987915303185582
1772795209338956500,6.51195654296875,0.019135493102669716,-0.0018697485277894884,0.0031852972389198836
1772795209349000700,6.522000732421875,0.01614507911503315,0.006321798316494096,-0.008035166689194738
1772795209359044900,6.532044921875,0.024676760616898535,-0.0030341058572463226,-0.009999507298413663
1772795209369088800,6.5420888671875,0.01120937627851963,-0.011914184096606913,0.00034136078357696533
1772795209379132700,6.552132568359375,0.014800678768754004,-0.01126494239065796,0.014232925350777805
1772795209389176600,6.562176513671875,0.015398060140013693,-0.00663220455609262,-0.005262304442375898
1772795209399221800,6.5722216796875,0.01150865148603916,-0.0010833542403182945,-0.013143997602909803
1772795209409265700,6.582265625,0.02318155362308025,-0.0072482974776881745,0.006240848884638398
1772795209419308800,6.592308837890625,0.011809680259227752,0.0057200033483095465,-0.0067516296846792095
1772795209429353000,6.60235302734375,0.01719604947268963,-0.00357834254396148,0.0002593267896212637
1772795209439397000,6.612397216796875,0.011961655950546263,-0.0020703856664244084,0.009563846694352104
1772795209449441000,6.62244091796875,0.018245850786566733,0.0029156031772668936,0.010555762074841185
1772795209459486000,6.63248583984375,0.025725977408885953,0.001370927593600936,-0.010943601481802762
1772795209469530000,6.642530029296875,0.012408230674266815,0.011944688832724933,-0.004622015511151403
1772795209479574000,6.652573974609375,0.04338438369631767,-0.0011020087084383703,-0.006793422999791801
1772795209489618200,6.6626181640625,0.02437982349693775,-0.002585472748824395,-0.003999508831789717
1772795209499661800,6.672661865234375,0.021387655943632126,-0.0002839885901310481,0.00024567272360436615
1772795209509707000,6.68270703125,0.020638298881053924,0.004241982668021228,-0.0022147534400224684
1772795209519751200,6.692751220703125,0.03156009038984775,0.006041192418470746,-0.008018416483793407
1772795209529794800,6.702794921875,0.01659457644820213,0.0063136800837644835,-0.011845555290207267
1772795209539839000,6.7128388671875,0.026619126856327054,-0.004909051149961306,-0.012785155961569398
1772795209549883000,6.7228828125,0.01868774933516979,-0.012426460450701414,-0.012078268067538738
1772795209559927000,6.732927001953125,0.01689268261194229,0.0006199802204908337,-0.00306733341505751
1772795209569972000,6.742971923828125,0.022279636347293852,0.005300930836156476,-0.009627532180864363
1772795209580015900,6.753015869140625,0.0306605112016201,0.0011530413509986829,0.001061637882143259
1772795209590060000,6.76306005859375,0.02662029590010643,-0.0014346633124630898,-0.006409830509684979
1772795209600104200,6.773104248046875,0.020932897913455963,0.017321156565035925,-0.009334832844603807
1772795209610147800,6.78314794921875,0.024074703070521352,0.007692071747902082,-0.006249360984656959
1772795209620192000,6.79319189453125,0.027069208711385725,0.0028636743439186827,0.013623396883998065
1772795209630237200,6.8032373046875,0.038141806867718696,-0.0025910302733536806,-0.0006039572425186634
1772795209640281000,6.813281005859375,0.024374562799930572,0.010479685180925298,-0.015492971881851553
1772795209650325000,6.823324951171875,0.014199790266156196,0.02366925494163297,0.004759195492137223
1772795209660369000,6.833368896484375,0.029912323182821273,-0.002865269221027847,-0.0029822489474900064
1772795209670413000,6.8434130859375,0.020336685585975647,-0.0030315428657573646,0.005756243705470115
1772795209680458000,6.8534580078125,0.017492402070760724,-0.005626050587696954,0.004931684248521924
1772795209690502000,6.863501953125,0.02676934898197651,-0.009126852649729698,0.004733604393154382
1772795209700546000,6.873546142578125,0.020184125372767446,-0.0022226056696265004,-0.011928593931160867
1772795209710590000,6.88358984375,0.005370002600550651,0.0008507065367128234,-0.01835031580803916
1772795209720633900,6.8936337890625,0.01225333237349987,0.0033262309464160353,0.0020220986784435808
1772795209730678000,6.903677978515625,0.01539689109623432,0.008723258551210164,-0.00812408708166331
1772795209740723000,6.913722900390625,0.020186463460326192,0.011415396270103519,0.013950820473767816
1772795209750767000,6.92376708984375,0.01779167727828026,0.0028692090355616528,-0.003886814838089049
1772795209760811000,6.93381103515625,0.02347790622115135,-0.007188705927692354,-0.018406667371466755
1772795209770855000,6.94385498046875,0.029911738660931584,-0.0037871184649236962,0.002939122191816568
1772795209780899000,6.953899169921875,0.0266214649438858,-0.009345540326641638,-0.01026979387346655
1772795209790943000,6.96394287109375,0.03051496525108814,0.012811543928284663,-0.0009528620117343962
1772795209800988000,6.97398779296875,0.020639467924833295,0.006875055134948343,-0.004792001783195883
1772795209811032000,6.984031982421875,0.030065467917919156,-0.00815602458139765,-0.005301595273148268
1772795209821076000,6.994075927734375,0.03051496525108814,0.0018310216693091204,-0.007241157634137198
1772795209831120100,7.0041201171875,0.02961655510663986,0.011039695967151783,0.003085270930547267
1772795209841164000,7.0141640625,0.02063888340294361,0.0005572240324516315,-0.000614195508742705
1772795209851208000,7.0242080078125,0.021087796214222906,0.007101765146467369,0.002086916676117107
1772795209861253000,7.034253173828125,0.026177812829613685,0.015264072196534834,-0.005556227621342986
1772795209871296800,7.044296875,0.02378478021323681,0.008755804547364823,-0.007875811409018933
1772795209881341000,7.0543408203125,0.03710077338218689,0.003582129378156969,-0.01664511932535097
1772795209891385000,7.064385009765625,0.02812427072227001,-0.004104444210720248,-0.01487797265551053
1772795209901429000,7.074428955078125,0.02558160050213337,-0.011637365032779052,-0.005075531432311982
1772795209911474000,7.084473876953125,0.025732407149672506,0.003257863576564705,-0.0020287384817842392
1772795209921518000,7.09451806640625,0.024984803652763364,-0.014751357451023068,0.0009668174718506634
1772795209931562000,7.10456201171875,0.03366495371460915,0.0036221394448482896,0.011549056561663747
1772795209941606100,7.114606201171875,0.027830840733647343,0.005436811625910923,-0.015313441463327034
1772795209951649800,7.12464990234375,0.02483984222412109,0.004215102652605856,-0.0030582185268402096
1772795209961694000,7.13469384765625,0.022895722419023514,0.002963669827894773,-0.0029867059268988668
1772795209971739100,7.1447392578125,0.030230303090810776,0.00009142287680879235,0.012241331408452242
1772795209981783000,7.154782958984375,0.023646248525381088,0.012751174918509786,0.006864305412070826
1772795209991827000,7.164826904296875,0.025887305450439452,0.0012493207827268633,-0.007889017950464039
1772795210001871000,7.17487109375,0.024838088658452034,0.010940153715969063,0.010854151366371662
1772795210011915000,7.1849150390625,0.03052490212321281,0.0057674158367444755,-0.01079322409252636
1772795210021960000,7.1949599609375,0.023940847557783126,0.017619880358350926,0.0037214316759258508
1772795210032004000,7.205004150390625,0.04548983154296875,0.0035362809424346778,-0.00009332257295027374
1772795210042048000,7.215048095703125,0.019455226576328276,0.002293594254826894,-0.002193025665404275
1772795210052092200,7.225092041015625,0.029331892946362494,0.005055164497718215,0.0032176742717158046
1772795210062135800,7.2351357421875,0.01945464205443859,0.00623696158574312,-0.00865886067864485
1772795210072180000,7.245179931640625,0.02124970877766609,0.021529560048796702,-0.0014818177892826497
1772795210082225200,7.25522509765625,0.0430956298828125,0.0202189044252038,-0.0027601397625636307
1772795210092269000,7.26526904296875,0.036810266003012654,0.005967435345804551,-0.01775257824375294
1772795210102313000,7.27531298828125,0.021696868023276326,0.0004637313544983044,-0.002038410492427647
1772795210112356900,7.28535693359375,0.025587445721030232,0.004391434183757519,-0.007464874254260212
1772795210122401000,7.295401123046875,0.009875497326254845,0.0015202580950397532,-0.006269125131051987
1772795210132445200,7.305445068359375,0.03590951777100563,0.009138503129972378,-0.0010399923059158027
1772795210142489900,7.31548974609375,0.031421558701992036,0.01226817717453814,0.0036556090312544255
1772795210152534000,7.325533935546875,0.008976502659916877,-0.0008569490478315856,-0.016041618740558622
1772795210162578200,7.335578125,0.025735914281010627,0.0018025490600732154,-0.003351100526191294
1772795210172622000,7.3456220703125,0.04354162008464336,0.014306626482872524,-0.007619809087645262
1772795210182666000,7.355666015625,0.029475100809335707,0.0030631321639753876,0.014081716844439505
1772795210192711200,7.365711181640625,0.01989770964682102,0.007698152145528001,-0.008088906170427798
1772795210202755000,7.375755126953125,0.02812953141927719,0.015675500258349347,-0.005441661330964416
1772795210212799000,7.385799072265625,0.024538228929042814,0.000779068355896743,-0.0021646672205999492
1772795210222843000,7.3958427734375,0.023939093992114066,-0.005853178441035561,-0.00038216771800071
1772795210232887000,7.405886962890625,0.015409750577807425,-0.022307243590138387,0.004419533475302159
1772795210242931000,7.415930908203125,0.027831425255537032,-0.0005638569859263953,-0.005224219188001007
1772795210252975900,7.425975830078125,0.03396715153157711,0.006840576334967045,-0.0041230164804495865
1772795210263020000,7.43602001953125,0.02454115153849125,0.0036422061269870028,0.009400673755584284
1772795210273064000,7.44606396484375,0.029929274317622184,0.008429710973222973,-0.0008451181877870113
1772795210283108000,7.456108154296875,0.013918635237216948,0.014891735177737427,0.004600835725804791
1772795210293152000,7.466152099609375,0.011820786175131798,0.00702824553581886,-0.008454451547190546
1772795210303197000,7.476197021484375,0.02873158896565437,0.002788838417374063,-0.017918335865251718
1772795210313241000,7.486240966796875,0.022146365356445312,0.006619972978893202,-0.0013436057618353514
1772795210323285000,7.496284912109375,0.026636077991127965,0.009300179373042191,0.0008142572586424648
1772795210333329000,7.506328857421875,0.012123568513989448,0.016165061315492495,0.0030474231381900606
1772795210343373000,7.516373046875,0.03307283304035664,0.008943286518548848,0.0005082509162370115
1772795210353417000,7.5264169921875,0.026041034707427024,0.009302426129055675,-0.00989959972104989
1772795210363462000,7.5364619140625,0.019008651852607725,0.00041274209442199205,-0.01169429198494181
1772795210373506000,7.546506103515625,0.023795301607251167,0.003999210862623294,-0.002239129829453304
1772795210383550000,7.556550048828125,0.02364741756916046,-0.004325601264287252,0.005516343135526403
1772795210393594000,7.566593994140625,0.01871054568886757,0.003531915294571081,0.00530171400415711
1772795210403637800,7.5766376953125,0.005844049853086471,0.004800250163377495,0.003186703744716942
1772795210413683200,7.58668310546875,0.020059622210264205,0.01933461413765326,-0.02523349031736143
1772795210423727000,7.59672705078125,0.016318682116270064,0.01091279877651832,-0.006680701606627554
1772795210433771000,7.60677099609375,0.03607143033444881,0.009061982136417646,-0.00006552125057205558
1772795210443815000,7.61681494140625,0.018266309052705765,0.003633720284787705,0.00726389005575329
1772795210453859000,7.626859130859375,0.019464578926563263,-0.007590702865814091,0.007604922045767307
1772795210463903200,7.6369033203125,0.017069792744517327,-0.0023710970624932085,-0.0058753400404937565
1772795210473948000,7.646947998046875,0.02889116344153881,0.011519585013651521,-0.011850669856742024
1772795210483992000,7.656991943359375,0.011383563801646231,-0.0014676008926180655,0.00008363229599781334
1772795210494036200,7.6670361328125,0.027545594051480292,0.0018582989769463892,0.007490072627598419
1772795210504080100,7.677080078125,0.019015081593394278,0.008502575280034216,0.008607733279606327
1772795210514124000,7.6871240234375,0.019013912549614907,0.005133854615472955,-0.013458881371514872
1772795210524169000,7.6971689453125,0.007340425890684127,0.009618278012040536,0.0012361724651418625
1772795210534213000,7.707213134765625,0.02784019308388233,-0.012983629684225888,0.0010700312511529773
1772795210544257300,7.71725732421875,0.027989830687642096,-0.004082496098749107,-0.020206063209939746
1772795210554301000,7.727301025390625,0.0502846646040678,-0.006286900533048902,-0.01938697451255284
1772795210564345000,7.737344970703125,0.016615034714341163,0.002439185871131485,0.009867304886644706
1772795210574389000,7.747388916015625,0.025443653336167334,-0.0017117152717313728,0.004602525359392166
1772795210584434000,7.757433837890625,0.04085691104531288,-0.007243039063969626,0.0016585260630585252
1772795210594478000,7.76747802734375,0.02230243270099163,-0.007502348728926154,-0.0005460713091306388
1772795210604522000,7.77752197265625,0.028287936851382253,-0.0050101300543930844,-0.0008555391171015798
1772795210614566100,7.787566162109375,0.030532500907778738,0.006771251125534763,-0.0012714447079226374
1772795210624610300,7.7976103515625,0.027988077121973036,0.00826570805903757,0.0030213023162446915
1772795210634655000,7.807655029296875,0.020057868644595144,0.003931917780073127,-0.011155572865204884
1772795210644699100,7.81769921875,0.02260170790851116,-0.001007374386169249,0.003226396434288472
1772795210654743300,7.827743408203125,0.010929974815249443,0.015247401906235608,-0.006838020193343982
1772795210664787000,7.837786865234375,0.004196867167949677,0.006769333163084229,-0.018881417876901105
1772795210674831000,7.8478310546875,0.02484510292112827,0.00496174716828973,-0.016319860293203963
1772795210684875000,7.857875,0.015268296280503272,0.003966759622946847,-0.000015042305504903196
1772795210694920000,7.867919921875,0.014371639701724052,0.005942121666390449,0.016511272945767267
1772795210704964000,7.877964111328125,0.02589431971311569,0.004161484185670269,0.001428306636912748
1772795210715008000,7.888008056640625,0.026643676775693893,-0.01565168327463325,0.008827906235773116
1772795210725052200,7.89805224609375,0.03293020969927311,0.006408942310407292,-0.005120694881444797
1772795210735096000,7.908095947265625,0.015572832185029983,-0.0006878407002659515,-0.020035583747550843
1772795210745141000,7.91814111328125,0.024250059637427327,0.004249449021846522,0.004080565578211098
1772795210755185200,7.92818505859375,0.013026070311665534,0.00758771746592829,-0.0121676359845791
1772795210765229000,7.93822900390625,0.021855273455381394,0.004314062665187521,0.0012043160221539438
1772795210775273000,7.94827294921875,0.020807810229063032,-0.003930547806894173,-0.011983739918190985
1772795210785317000,7.958317138671875,0.018264555487036704,-0.0031241873019840567,-0.014028972877049817
1772795210795361000,7.968361083984375,0.016465981632471084,-0.00037751780070248057,0.013627452004607766
1772795210805406200,7.97840625,0.02275076099038124,-0.0016170798078179358,-0.013334643070492893
1772795210815450000,7.9884501953125,0.028138299247622487,0.0074777634185855275,-0.013411626429995521
1772795210825494000,7.998493896484375,0.01646656615436077,0.007958006374823162,-0.00036658655637875195
1772795210835538200,8.0085380859375,0.0311310513228178,0.004961428649525624,-0.003979351959750056
1772795210845582000,8.01858203125,0.01691489444375038,0.0013711056901142,-0.006095357733033597
1772795210855627000,8.028626953125,0.02095510974526405,0.005061207221081713,-0.01346309175575152
1772795210865671200,8.038671142578124,0.016915478965640066,0.0018546434318472164,-0.021160971048288044
1772795210875715000,8.048715087890624,0.034572131687402724,0.006327157194912433,-0.018528120060358196
1772795210885759200,8.05875927734375,0.03202712337970733,0.005023832069471245,0.005962296804739162
1772795210895803000,8.068802978515626,0.030081250008940696,0.009842383932875235,-0.023871234653983265
1772795210905847000,8.078846923828126,0.039059506234526635,0.01335522463421803,-0.0027796207811683414
1772795210915892200,8.088892333984376,0.02469312722980976,-0.007058238815283402,0.006165947884367778
1772795210925935900,8.098935791015625,0.013919219759106635,0.014190931106265634,-0.002688015241269022
1772795210935980000,8.10897998046875,0.027087328889966008,-0.0005885484691883902,-0.007322607106203213
1772795210946024200,8.119024169921875,0.02409574585855007,-0.008107263811025767,-0.012186769943311809
1772795210956068000,8.129068115234375,0.019157704934477805,-0.00415779781617457,0.013997006836207583
1772795210966113000,8.139113037109375,0.02933423103392124,-0.006572390385455219,-0.009115006948309018
1772795210976157200,8.1491572265625,0.017213585129380225,-0.00878749316863832,-0.01791800707168877
1772795210986201000,8.159201171875,0.03217968359291553,-0.013044359453604555,-0.012555292728450148
1772795210996245200,8.169245361328125,0.017664251506328582,-0.0006582869538629893,0.001174843332497403
1772795211006289000,8.179288818359375,0.030083588096499442,0.001193085667019477,0.003545125260949135
1772795211016334000,8.189333984375,0.024845687443017957,-0.0117552546497609,-0.010889725003251804
1772795211026378200,8.199378173828125,0.0172147541731596,0.005405242877290584,-0.004243574120197445
1772795211036422000,8.209421875,0.013773089286684989,-0.0005675307973346206,-0.00917515790401958
1772795211046466000,8.219466064453124,0.021554244682192802,0.002200244282413041,0.005779807244148105
1772795211056510000,8.229510009765624,0.030983167284727095,0.008714232711249496,-0.00414281715946272
1772795211066554000,8.23955419921875,0.023503040662407874,0.00007579719105851836,-0.016886015409138054
1772795211076599000,8.24959912109375,0.017967033845186234,0.0028742060127318835,-0.016113332269899545
1772795211086643000,8.259642822265626,0.01856616878211498,-0.00010852128372644074,0.005346311197709292
1772795211096687000,8.26968701171875,0.03380290088057518,0.006907984723593108,-0.012228353195870295
1772795211106731300,8.279731201171876,0.006567103430628776,0.015043210828845622,-0.0025981632670387623
1772795211116775000,8.28977490234375,0.012983400213718414,0.0042716540037887165,-0.018015183835849165
1772795211126820000,8.299820068359375,0.012372574838995933,0.006055528046144172,-0.004079286936577409
1772795211136864300,8.3098642578125,0.04813946926891804,-0.005251794464804697,0.017847900977544486
1772795211146908200,8.319908203125,0.023157003703713416,0.024600654040230437,0.011199914330430329
1772795211156952000,8.3299521484375,0.02181786405444145,-0.004791633032081881,-0.0024226605696603654
1772795211166997200,8.339997314453125,0.06598375351727008,0.010235004546231356,0.0022186350306961683
1772795211177042000,8.3500419921875,0.02768997095823288,-0.0024608428638020993,-0.0026536015150137246
1772795211187086000,8.360086181640625,-0.0064233110457658765,0.006573073088756064,-0.02289659920185804
