time,seconds_elapsed,z,y,x
1772795202880567600,0.053567626953125,5.771871656179428e-7,0.000684752594679594,0.002684375736862421
1772795202890611500,0.063611572265625,0.003876541741192341,-0.0015525692142546177,-0.0003268606960773468
1772795202900655600,0.073655517578125,0.00038201664574444294,0.001232106238603592,0.003028898499906063
1772795202910699300,0.08369921875,-0.00041639903793111444,0.001184435561299324,-0.0011216378770768642
1772795202920743400,0.093743408203125,-0.0007718938868492842,-0.0001335260458290577,-0.000003688153810799122
1772795202930787600,0.10378759765625,0.0015240171924233437,0.001269427128136158,-0.0017757555469870567
1772795202940832300,0.113832275390625,0.0009453373495489359,0.0021023997105658054,-0.002005527727305889
1772795202950876400,0.12387646484375,0.001027895137667656,0.0002989070490002632,0.0008685557404533029
1772795202960920600,0.133920654296875,-0.000020035775378346443,-0.00014208490028977394,-0.000659579411149025
1772795202970964500,0.143964599609375,0.0016300587449222803,-0.0006520804017782211,0.00023337849415838718
1772795202981008600,0.154008544921875,-0.0009125113720074296,-0.0005265595391392708,-0.0018123190384358168
1772795202991052300,0.16405224609375,0.0002915037330240011,-0.0005262931808829308,0.0011192887322977185
1772795203001096400,0.174096435546875,0.0024548801593482494,0.0016835755668580532,-0.0006660298677161336
1772795203011141600,0.1841416015625,-0.0015225508250296116,-0.001130320131778717,-0.0014631139347329736
1772795203021185300,0.194185302734375,-0.0001259407727047801,0.0006386628374457359,0.002026556758210063
1772795203031229400,0.2042294921875,0.0005600895965471864,-0.00022366875782608986,0.0024494666140526533
1772795203041273300,0.2142734375,-0.0013603278202936053,0.0035590119659900665,-0.0004325156332924962
1772795203051317500,0.2243173828125,0.0021499847061932087,-0.0016567893326282501,-0.0019443921046331525
1772795203061361700,0.234361572265625,-0.0002227889490313828,0.00043023936450481415,-0.000323254382237792
1772795203071406300,0.24440625,-0.0014398535713553429,-0.0013956241309642792,-0.0018476478289812803
1772795203081450500,0.254450439453125,0.0011520890984684229,-0.0000362936407327652,0.0015779496170580387
1772795203091494700,0.26449462890625,0.0016690087504684925,-0.00028849486261606216,0.00008604687172919512
1772795203101538300,0.274538330078125,0.0005851176101714373,0.00010930188000202179,0.0010088714770972729
1772795203111582500,0.28458251953125,0.0010202781995758414,0.0020416919142007828,0.0012429633643478155
1772795203121626400,0.29462646484375,0.0012209612177684903,-0.001603572629392147,-0.00023190374486148357
1772795203131671600,0.304671630859375,-0.0003495047567412257,0.0015512085519731045,0.0019146041013300419
1772795203141715500,0.314715576171875,0.0015697181224822998,0.0009751110337674618,-0.0025203300174325705
1772795203151759400,0.32475927734375,-0.0012534989509731531,-0.002222013659775257,-0.0016958153573796153
1772795203161803500,0.334803466796875,0.0011981658171862364,-0.0010776901617646217,-0.0008163947495631874
1772795203171847400,0.344847412109375,0.0009574161376804113,-0.0005775485187768936,-0.0005721828783862293
1772795203181891300,0.354891357421875,0.0011809557909145951,-0.0013527581468224525,0.0019146320410072803
1772795203191936500,0.3649365234375,-0.0006188083789311349,0.0021239984780550003,-0.00047901703510433435
1772795203201980400,0.37498046875,-0.00020290695829316974,0.0013371361419558525,0.002432513050734997
1772795203212024600,0.385024658203125,0.0018927344353869557,-0.001417903695255518,0.0009880145080387592
1772795203222068500,0.395068359375,-0.0006598482141271234,-0.002315544057637453,0.0007782874163240194
1772795203232112400,0.4051123046875,-0.0005650396342389286,0.0004546758718788624,-0.000713349087163806
1772795203242156500,0.415156494140625,0.002499981317669153,0.001226524356752634,-0.0006172673893161118
1772795203252201500,0.425201416015625,-0.0023219380527734756,0.0024574375711381435,-0.0016130233416333795
1772795203262245400,0.435245361328125,-0.00022777548292651772,0.00023995060473680496,0.0011717273155227304
1772795203272289500,0.44528955078125,-0.00023150391643866897,0.00027324026450514793,-0.00016251637134701014
1772795203282333400,0.45533349609375,0.00009706208948045969,0.0001297597773373127,0.0010992306051775813
1772795203292377300,0.46537744140625,0.0001423358917236328,-0.0004534726031124592,0.0010238633258268237
1772795203302421500,0.47542138671875,0.0007033993024379015,-0.0005029430612921715,-0.0007554531912319362
1772795203312465400,0.48546533203125,-0.00042631366522982717,0.0009061354212462902,-0.0007708995253778994
1772795203322510600,0.495510498046875,-0.0024630045518279076,0.0020967605523765087,0.0011309535475447774
1772795203332554200,0.50555419921875,-0.0003119693719781935,0.0002413359470665455,-0.0009076962014660239
1772795203342598400,0.515598388671875,0.0005749886622652411,-0.002152026165276766,-0.0017985872691497207
1772795203352642600,0.525642578125,-0.00019093649461865425,-0.00021697301417589188,-0.001484334236010909
1772795203362686500,0.5356865234375,-0.00040986278327181935,-0.00011488376185297966,0.00039125862531363964
1772795203372730400,0.54573046875,0.00013528624549508095,0.00150751369073987,0.0010645057773217559
1772795203382775600,0.555775634765625,0.0010184916900470853,0.0004716459661722183,-0.0006746422732248902
1772795203392819500,0.5658193359375,0.00041155738290399313,-0.0005310345441102982,-0.0027274067979305983
1772795203402863600,0.575863525390625,0.0004171086475253105,0.0005577793344855309,-0.0010261264396831393
1772795203412907500,0.585907470703125,0.001605144701898098,0.000580150168389082,-0.0011488981544971466
1772795203422951700,0.59595166015625,0.0010589780285954475,-0.00021566404029726982,-0.00007773377001285553
1772795203432995800,0.605995849609375,0.0017367524560540915,0.0012682494707405567,-0.002408798551186919
1772795203443039700,0.616039794921875,-0.0000988030806183815,0.0019906549714505672,-0.003777945414185524
1772795203453084700,0.626084716796875,-0.0007427554810419679,0.0010889084078371525,-0.0007318217540159822
1772795203463128800,0.63612890625,0.002465202007442713,0.0003047673963010311,0.002204694552347064
1772795203473172700,0.6461728515625,-0.0013300690334290266,0.00020010489970445633,0.0022800618316978216
1772795203483216600,0.656216552734375,-0.00004481076030060649,0.000029861461371183395,0.00032881356310099363
1772795203493260500,0.666260498046875,0.00020739063620567322,0.0015007248148322105,0.000832949997857213
1772795203503304700,0.6763046875,0.000054409028962254524,-0.0024012024514377117,-0.0015605848748236895
1772795203513350000,0.686349853515625,-0.0012816988164559007,0.0012217615731060505,0.0010423886124044657
1772795203523393500,0.6963935546875,0.0006055947160348296,0.002082519233226776,-0.0006022595334798098
1772795203533437700,0.706437744140625,0.0015909643843770027,0.002207954414188862,-0.001585232326760888
1772795203543481900,0.71648193359375,0.0009359270334243774,0.00048096245154738426,0.00001693936064839363
1772795203553525800,0.72652587890625,-0.0006188263650983572,0.000889225397258997,0.0014451927272602916
1772795203563569700,0.736569580078125,0.001072645653039217,0.000317626167088747,0.0024098949506878853
1772795203573613600,0.746613525390625,-0.0004038108163513243,-0.000011806841939687729,0.0004668525652959943
1772795203583658800,0.75665869140625,0.0005333374720066786,0.0009400113485753536,-0.0019056705059483647
1772795203593703000,0.766702880859375,0.0007072418229654431,0.000003377441316843033,0.000494370236992836
1772795203603746600,0.77674658203125,-0.00008919421816244721,0.0008593439124524593,-0.00005534186493605375
1772795203613790700,0.786790771484375,0.0015164255164563656,-0.0016908994875848293,0.001681305468082428
1772795203623834600,0.796834716796875,0.0012769355671480298,0.0014667683281004429,-0.0003125427756458521
1772795203633878800,0.806878662109375,0.0003333775093778968,0.0013573127798736095,0.0011026610154658556
1772795203643922700,0.816922607421875,0.001097097061574459,-0.00013449648395180702,-0.0010346672497689724
1772795203653967600,0.826967529296875,-0.000005984213203191757,-0.0012956350110471249,0.0009043803438544273
1772795203664011800,0.83701171875,0.0008670968236401677,-0.0000834721140563488,-0.0016948420088738203
1772795203674056000,0.847055908203125,0.0014157079858705401,0.0002230578102171421,-0.0002735129091888666
1772795203684099600,0.857099609375,0.000012593576684594154,0.0015306784771382809,-0.001961750676855445
1772795203694143700,0.867143798828125,0.0010067516705021262,0.0005940445698797703,-0.0008557398687116802
1772795203704187600,0.877187744140625,0.0008148810593411326,0.0015723863616585732,0.0004179679090157151
1772795203714232600,0.887232666015625,-0.00026822660584002733,0.000020029954612255096,0.00006802857387810946
1772795203724276700,0.89727685546875,-0.0011620966251939535,0.0033822976984083652,-0.0011028377339243889
1772795203734320600,0.907320556640625,-0.00000841519795358181,0.00008397223427891731,-0.0010019040200859308
1772795203744364800,0.91736474609375,0.00030684354715049267,-0.0011214055120944977,0.0015951127279549837
1772795203754408700,0.92740869140625,-0.0012396540259942412,0.001115383580327034,-0.0006853521335870028
1772795203764452600,0.93745263671875,0.0013698744587600231,-0.0006020786240696907,0.0007065096870064735
1772795203774496800,0.947496826171875,-0.0022166045382618904,-0.00013735704123973846,0.00024871237110346556
1772795203784541700,0.957541748046875,0.000255812075920403,-0.0003293277695775032,0.000704458449035883
1772795203794585600,0.967585693359375,-0.00047202984569594264,0.00042967312037944794,0.00045252335257828236
1772795203804629800,0.977629638671875,-0.0010425668442621827,0.001539326272904873,-0.003006791928783059
1772795203814673700,0.987673583984375,-0.0006473537068814039,-0.0004481910727918148,-0.0007577523356303573
1772795203824717800,0.9977177734375,-0.00035140791442245245,0.0014551742933690548,-0.001228801440447569
1772795203834761700,1.00776171875,-0.000941830687224865,0.0010181493125855923,-0.0005528911133296788
1772795203844805600,1.0178056640625,-0.0006558774039149284,0.0004465887323021889,-0.002757941372692585
1772795203854850800,1.027850830078125,-0.00001805031206458807,-0.0024970034137368202,-0.0013070511631667614
1772795203864894700,1.037894775390625,0.003128363285213709,-0.001918586902320385,-0.0018528848886489868
1772795203874938600,1.047938720703125,0.0002518829423934221,0.0012564337812364101,0.001839055330492556
1772795203884982800,1.057982666015625,0.000540987472049892,0.0008500567637383938,0.002292489632964134
1772795203895026700,1.068026611328125,0.0008744151564314961,-0.0017907335422933102,0.00073294248431921
1772795203905070800,1.07807080078125,-0.0008035636274144053,-0.0010995124466717243,-0.0017976759700104594
1772795203915114800,1.08811474609375,-0.0010320628061890602,0.0030912375077605247,-0.00010470452252775431
1772795203925159700,1.09815966796875,-0.0014516918454319239,-0.002557559870183468,-0.0008625368354842067
1772795203935203800,1.108203857421875,0.0011957564856857061,0.0006382334977388382,0.0007156523643061519
1772795203945247700,1.118247802734375,-0.0005938608082942665,0.0013133576139807701,-0.0001708687050268054
1772795203955291600,1.128291748046875,-0.00029026041738688946,-0.0001569734886288643,-0.0014979218831285834
1772795203965335600,1.13833544921875,-0.00007956859190016985,-0.0005994620732963085,-0.001618033042177558
1772795203975379700,1.148379638671875,-0.00014747923705726862,0.001604835968464613,0.0013892084825783968
1772795203985424000,1.158423828125,-0.0019276007078588009,0.0012517762370407581,-0.0009227856644429266
1772795203995468500,1.168468505859375,0.001833315473049879,-0.000596191268414259,-0.0007675233646295965
1772795204005512700,1.1785126953125,0.001074079773388803,0.003277338109910488,-0.0012749142479151487
1772795204015556900,1.188556884765625,-0.00021728710271418095,0.0020584091544151306,0.0003011445514857769
1772795204025600800,1.198600830078125,0.0005184499314054847,0.0005270675756037235,0.000589642790146172
1772795204035644700,1.208644775390625,0.0023056974168866873,-0.000883608590811491,-0.0005059816176071763
1772795204045688600,1.2186884765625,-0.0014776620082557201,0.0002856343053281307,-0.0002859306987375021
1772795204055732700,1.228732666015625,0.00004460080526769161,-0.00032476242631673813,0.0018645718228071928
1772795204065777700,1.238777587890625,0.000204280368052423,-0.001668691635131836,0.000590052455663681
1772795204075821600,1.248821533203125,0.001435459591448307,-0.0002020886167883873,-0.0007031785789877176
1772795204085865700,1.25886572265625,0.00047328986693173647,0.001430264674127102,-0.0003227926790714264
1772795204095909600,1.26890966796875,0.0008969987975433469,0.0007535559125244617,0.0029880490619689226
1772795204105953800,1.278953857421875,-0.0005329482373781502,0.0013274620287120342,0.0018842791905626655
1772795204115997700,1.288997802734375,0.0009866515174508095,0.0014323904179036617,-0.002727783052250743
1772795204126041600,1.29904150390625,-0.0014094370417296886,0.0009606201201677322,0.0026647739578038454
1772795204136086800,1.309086669921875,-0.0002424399135634303,0.002306847833096981,0.0013505041133612394
1772795204146130700,1.319130615234375,-0.0015354095958173275,0.002281070686876774,0.0006724192062392831
1772795204156174600,1.329174560546875,-0.0007740117725916207,0.0018634870648384094,-0.0005092254723422229
1772795204166218800,1.33921875,-0.0014749054098501801,0.0016193808987736702,-0.0005536352982744575
1772795204176262700,1.3492626953125,0.0015637613832950592,0.00010350951924920082,-0.0001246000174432993
1772795204186306800,1.359306884765625,0.00001979852095246315,-0.0014089494943618774,0.0008741095662117004
1772795204196350700,1.369350830078125,-0.001084081712178886,0.0011857682839035988,0.002642981242388487
1772795204206395600,1.379395751953125,0.0006775420624762774,-0.0017145611345767975,0.0016644630813971162
1772795204216439800,1.389439697265625,-0.0006961164763197303,-0.00023996923118829727,-0.001364349969662726
1772795204226483700,1.399483642578125,-0.0007414850988425314,-0.0004582875408232212,-0.0001230653142556548
1772795204236527600,1.409527587890625,0.0024175564758479595,0.0022735828533768654,0.001164573128335178
1772795204246571800,1.41957177734375,-0.0009082476608455181,-0.0019188127480447292,0.0022896165028214455
1772795204256615700,1.42961572265625,0.0007245363667607307,0.0006378218531608582,-0.00253443350084126
1772795204266659800,1.439659912109375,-0.0036515004467219114,0.00272649759426713,0.00010576553177088499
1772795204276704800,1.449704833984375,-0.0006953916745260358,-0.0001499820500612259,0.000825351569801569
1772795204286748700,1.459748779296875,-0.000011217198334634304,0.0018868222832679749,0.00033780629746615887
1772795204296792800,1.469792724609375,-0.0003595586749725044,-0.00001787068322300911,-0.0011173449456691742
1772795204306836500,1.47983642578125,0.0023740329779684544,0.00047260476276278496,0.0001216233940795064
1772795204316880600,1.489880615234375,-0.0002534417435526848,0.0013461215421557426,0.0007908758707344532
1772795204326924800,1.4999248046875,-0.0022665695287287235,0.0007501603104174137,-0.0003295931965112686
1772795204336968700,1.50996875,0.00021283328533172607,-0.0010690451599657536,0.0010690989438444376
1772795204347012900,1.520012939453125,-0.0005936437519267201,-0.0018621943891048431,-0.002500189933925867
1772795204357057800,1.530057861328125,0.0011163720628246665,-0.00045311544090509415,-0.0005952308420091867
1772795204367101700,1.540101806640625,-0.0021165902726352215,0.0005070213228464127,0.0008816816844046116
1772795204377145900,1.550145751953125,0.0014826718252152205,0.00006786594167351723,-0.0025077234022319317
1772795204387189500,1.560189453125,-0.0020452712196856737,-0.0006105010397732258,-0.0021279053762555122
1772795204397233700,1.570233642578125,0.0004138917429372668,-0.00005443301051855087,0.0007669506594538689
1772795204407277600,1.580277587890625,0.0009139719186350703,-0.0008559948764741421,0.00008606270421296358
1772795204417321700,1.59032177734375,0.0005611029919236898,0.0008886419236660004,-0.0011845313711091876
1772795204427366400,1.600366455078125,-0.0012901669833809137,-0.0003212597221136093,0.00034948368556797504
1772795204437410600,1.61041064453125,-0.0011740531772375107,0.003297177143394947,-0.00026410864666104317
1772795204447454700,1.620454833984375,-0.00028813997050747275,-0.0012073945254087448,0.00010440440382808447
1772795204457498600,1.63049853515625,0.0013917820760980248,-0.001690225675702095,-0.0017403671517968178
1772795204467542500,1.64054248046875,-0.0010572475148364902,-0.0007555396296083927,-0.0011963618453592062
1772795204477586400,1.65058642578125,0.00005622010212391615,-0.0004101274535059929,-0.0004677210235968232
1772795204487630600,1.660630615234375,0.00118342787027359,-0.0013902070932090282,0.0034544095396995544
1772795204497675800,1.67067578125,0.001352272229269147,-0.0005081677809357643,-0.002928388537839055
1772795204507719400,1.680719482421875,-0.000517248990945518,-0.0005617672577500343,0.0010609048185870051
1772795204517763600,1.690763671875,-0.0009321694960817695,-0.00031036464497447014,-0.0022912160493433475
1772795204527807500,1.700807373046875,0.001265650149434805,0.0009041046723723412,-0.0007904392550699413
1772795204537851600,1.7108515625,0.00042435748036950827,0.0014433949254453182,-0.00109324068762362
1772795204547895600,1.7208955078125,-0.0008754392620176077,-0.0012968205846846104,0.0009107140358537436
1772795204557939500,1.730939453125,-0.001129238517023623,0.0018670149147510529,-0.0010421820916235447
1772795204567984600,1.740984619140625,0.0009374367073178291,0.0020387046970427036,-0.0009134246502071619
1772795204578028800,1.75102880859375,0.0023979144170880318,0.0002176356501877308,0.00016968301497399807
1772795204588072400,1.761072509765625,-0.0003090928075835109,-0.0014842567034065723,-0.00017859588842839003
1772795204598116600,1.77111669921875,0.001398259773850441,-0.000556678045541048,0.002325840760022402
1772795204608160500,1.781160400390625,-0.0033270646817982197,-0.0007646256126463413,-0.0012446459149941802
1772795204618204700,1.79120458984375,-0.00018959445878863335,0.0012170327827334404,0.001296275993809104
1772795204628248600,1.80124853515625,0.0013549348805099726,0.0009963372722268105,0.0006214564200490713
1772795204638293500,1.81129345703125,-0.0035569993779063225,-0.00017785048112273216,0.00048696668818593025
1772795204648337700,1.821337646484375,0.00040230224840343,0.0002295384183526039,-0.0014896986540406942
1772795204658381800,1.8313818359375,-0.0018715047044679523,0.0013784263283014297,0.00024481816217303276
1772795204668425500,1.841425537109375,0.0007968995487317443,-0.000482914038002491,-0.0026784739457070827
1772795204678469600,1.8514697265625,-0.002130979672074318,0.002106743399053812,-0.001251019537448883
1772795204688513500,1.861513427734375,0.0013746449258178473,-0.0009692292660474777,0.0024192952550947666
1772795204698557700,1.8715576171875,0.0025035589933395386,0.0005993726663291454,-0.0008531971834599972
1772795204708601600,1.8816015625,-0.0025193365290760994,-0.00025812163949012756,0.00008263054769486189
1772795204718646500,1.891646484375,-0.0018080060835927725,0.0007885009981691837,0.0018618883332237601
1772795204728690700,1.901690673828125,-0.001406470313668251,-0.0015146820805966854,0.0014836045447736979
1772795204738734600,1.911734619140625,-0.0010085939429700375,-0.0009202645160257816,-0.0006884697359055281
1772795204748778500,1.921778564453125,-0.0004898065235465765,0.000901336781680584,-0.00015764555428177118
1772795204758822700,1.93182275390625,-0.00043920642929151654,0.00014792848378419876,-0.0008101199637167156
1772795204768866600,1.941866455078125,0.0009979502065107226,0.0012557455338537693,-0.00033435248769819736
1772795204778910700,1.95191064453125,0.000147602753713727,-0.001112337689846754,0.001644908799789846
1772795204788955600,1.96195556640625,0.0004759165458381176,0.00009077787399291992,-0.00027771934401243925
1772795204798999600,1.97199951171875,0.003609125502407551,-0.00002693384885787964,-0.00013018015306442976
1772795204809043700,1.982043701171875,0.0003954782150685787,-0.0027131126262247562,-0.00004634074866771698
1772795204819087600,1.992087646484375,-0.0029736869037151337,0.00067922193557024,-0.001507617300376296
1772795204829131500,2.002131591796875,0.0009497235296294093,-0.000538388267159462,-0.000018105842173099518
1772795204839175700,2.01217578125,0.0007150990422815084,0.001797736156731844,-0.0011430251179262996
1772795204849219600,2.022219482421875,0.0005335337482392788,-0.00035028764978051186,-0.001071841805242002
1772795204859264500,2.032264404296875,0.0001830618130043149,-0.000099151860922575,-0.0012010050704702735
1772795204869308400,2.042308349609375,0.0009495544945821166,0.0013520531356334686,0.001214262330904603
1772795204879352600,2.0523525390625,-0.0009673887980170548,0.001461508683860302,-0.0007434272556565702
1772795204889396700,2.062396728515625,-0.000796212931163609,-0.001747378148138523,0.002377208322286606
1772795204899440600,2.072440673828125,-0.0003629166749306023,-0.0005369712598621845,-0.001114462036639452
1772795204909484500,2.082484619140625,-0.00016770383808761835,0.00025924667716026306,0.0019154855981469154
1772795204919528400,2.092528564453125,0.0011364460224285722,-0.0028044539503753185,-0.0017394365277141333
1772795204929573600,2.10257373046875,-0.0008281719638034701,-0.0015613771975040436,-0.0016467322129756212
1772795204939617500,2.112617431640625,0.002246181247755885,-0.0009773457422852516,-0.0013210275210440159
1772795204949661400,2.122661376953125,0.0004792921827174723,0.0001561618410050869,0.000014771474525332451
1772795204959705600,2.13270556640625,0.0021216636523604393,-0.00024970388039946556,-0.00040707323933020234
1772795204969749800,2.142749755859375,0.000859648163896054,-0.0003997562453150749,0.0005650051170960069
1772795204979793700,2.152793701171875,-0.00047432922292500734,-0.0008985665626823902,-0.003685666248202324
1772795204989837600,2.162837646484375,-0.00011486437870189548,0.0007749847136437893,-0.0012064077891409397
1772795204999881500,2.172881591796875,-0.00023763615172356367,0.000025038141757249832,0.0008924294961616397
1772795205009926700,2.1829267578125,0.0016794644761830568,0.0001587248407304287,0.00009432993829250336
1772795205019970600,2.192970458984375,0.00035960180684924126,-0.0005715140141546726,0.0006559905596077442
1772795205030014500,2.203014404296875,-0.0003273629699833691,-0.0007839011959731579,0.0004204526776447892
1772795205040058600,2.21305859375,-0.0017822477966547012,0.00008775154128670692,0.002470021601766348
1772795205050102500,2.2231025390625,0.0005048556486144662,0.0017343899235129356,-0.0012964623747393489
1772795205060146700,2.233146728515625,0.0006276273634284735,-0.00043102679774165154,0.00002952560316771269
1772795205070190600,2.243190673828125,0.0002446078578941524,-0.00011998740956187248,-0.0003966368385590613
1772795205080235500,2.253235595703125,0.0009165233350358903,0.00022675609216094017,0.0008979258127510548
1772795205090279700,2.26327978515625,0.0013339768629521132,-0.00031036511063575745,-0.00033588946098461747
1772795205100323600,2.273323486328125,-0.0005387580022215843,0.00020815199241042137,-0.00028449040837585926
1772795205110367500,2.283367431640625,-0.000250673561822623,-0.0015484187752008438,-0.0010005291551351547
1772795205120411600,2.29341162109375,0.0009629289852455258,0.00033097388222813606,0.000141168013215065
1772795205130455600,2.30345556640625,-0.00270080822519958,0.0006189281120896339,-0.0030990776140242815
1772795205140499700,2.313499755859375,0.0007293433300219476,-0.003900456242263317,-0.0010782710742205381
1772795205150544600,2.323544677734375,0.0013320577563717961,-0.0005580815486609936,-0.001317885355092585
1772795205160588500,2.333588623046875,-0.0014450866729021072,0.001062451396137476,0.0014302305644378066
1772795205170632700,2.3436328125,-0.0023125396110117435,-0.0011658049188554287,-0.0016525888349860907
1772795205180676600,2.353676513671875,-0.000327153189573437,-0.0016326569020748138,-0.001486940192990005
1772795205190720500,2.363720458984375,0.0010761970188468695,0.0018453276716172695,-0.00127229408826679
1772795205200764700,2.3737646484375,0.000807217787951231,-0.00004418473690748215,0.0024358914233744144
1772795205210808600,2.38380859375,-0.0009920761222019792,-0.00005403673276305199,0.0002905995352193713
1772795205220852700,2.393852783203125,-0.0005241587059572339,0.0016674306243658066,0.00009805301669985056
1772795205230897700,2.403897705078125,-0.0008865412091836333,-0.0010863696224987507,0.0014943168498575687
1772795205240941600,2.413941650390625,-0.0008508548489771783,-0.0006637261249125004,0.0003763217246159911
1772795205250985700,2.42398583984375,0.0002187996869906783,0.0014523714780807495,-0.0011009391164407134
1772795205261029400,2.434029296875,0.0019929977133870125,0.0016031060367822647,0.001969951903447509
1772795205271073500,2.444073486328125,0.0008798375492915511,-0.00020313356071710587,-0.002772458828985691
1772795205281117700,2.45411767578125,-0.0006589369149878621,-0.0009549437090754509,0.0007240051636472344
1772795205291161600,2.46416162109375,0.0022033192217350006,0.000563708133995533,0.0012480627046898007
1772795205301206500,2.47420654296875,0.000851765158586204,-0.0009423093870282173,0.0024574040435254574
1772795205311250700,2.484250732421875,0.0025145327672362328,-0.001675894483923912,0.0022620088420808315
1772795205321294600,2.494294677734375,0.0006825443124398589,-0.0015206323005259037,0.0003756919177249074
1772795205331338800,2.5043388671875,0.00016252422938123345,0.00028120074421167374,-0.0006311476463451982
1772795205341382400,2.51438232421875,0.0010629391763359308,0.0007043769583106041,-0.000018088030628859997
1772795205351426600,2.524426513671875,0.0011873352341353893,0.002462894655764103,0.0016122948145493865
1772795205361470700,2.534470703125,0.001118093030527234,-0.0010380973108112812,0.0013896547025069594
1772795205371515400,2.544515380859375,0.002691335044801235,0.0011488334275782108,0.003143228590488434
1772795205381559600,2.5545595703125,0.00007584481500089169,-0.0009654499590396881,0.0013578456128016114
1772795205391603500,2.564603515625,0.001291611697524786,-0.0009081591852009296,-0.0004669848131015897
1772795205401647600,2.574647705078125,-0.000006146670784801245,-0.0011491752229630947,0.0013594110496342182
1772795205411691000,2.58469091796875,-0.000009559676982462406,0.0001260889694094658,0.0007412236882373691
1772795205421735200,2.594735107421875,0.002419243333861232,-0.00005127768963575363,0.00007250392809510231
1772795205431778800,2.60477880859375,0.000797049084212631,0.0005529969930648804,-0.0006902767345309258
1772795205441824000,2.614823974609375,-0.0011585101019591093,0.0020960322581231594,-0.0005307534011080861
1772795205451868200,2.6248681640625,0.0009184927912428975,0.0017179888673126698,-0.0000805672025308013
1772795205461911800,2.634911865234375,-0.0010668938048183918,0.0007661748677492142,-0.0007916312897577882
1772795205471956000,2.6449560546875,0.0006100167520344257,-0.0015938100405037403,-0.002175890374928713
1772795205482000100,2.655000244140625,0.0015945873456075788,0.002289345022290945,-0.0002307174727320671
1772795205492044000,2.6650439453125,0.0009437839617021382,0.0012890626676380634,0.0021322285756468773
1772795205502088200,2.675088134765625,-0.0009140372276306152,-0.001341608352959156,0.0013995930785313249
1772795205512132900,2.6851328125,0.000870775431394577,-0.0029340023174881935,0.001970503479242325
1772795205522177000,2.695177001953125,-0.0006666674744337797,0.0024660895578563213,0.0007627599406987429
1772795205532221200,2.70522119140625,0.0021079890429973602,0.002130391076207161,0.00044592912308871746
1772795205542264800,2.715264892578125,-0.0004044370725750923,0.0004805629141628742,-0.0010805947240442038
1772795205552309000,2.72530908203125,-0.00034419738221913576,0.0020571560598909855,0.0012810868211090565
1772795205562353000,2.735352783203125,-0.002061936305835843,0.0032004513777792454,-0.0011072360211983323
1772795205572397000,2.74539697265625,-0.0017725267680361867,-0.0027255630120635033,0.001381603884510696
1772795205582442000,2.75544189453125,-0.00010272476356476545,-0.0010685441084206104,0.0010007718810811639
1772795205592486000,2.76548583984375,0.00213951850309968,0.003122879657894373,0.0021354323253035545
1772795205602530000,2.775530029296875,0.0002308311522938311,0.0005571898072957993,-0.0009759388631209731
1772795205612574200,2.78557421875,-0.0007971898303367198,-0.0005999268032610416,0.0019170972518622875
1772795205622617900,2.795617919921875,-0.0004861326306127012,-0.0019125989638268948,0.0011311983689665794
1772795205632662000,2.805662109375,0.0011948748724535108,0.0014026351273059845,0.0016237531090155244
1772795205642706000,2.815705810546875,-0.001681072753854096,-0.0005654403939843178,-0.0008053162018768489
1772795205652750800,2.825750732421875,0.0007152276812121272,-0.002188900951296091,0.0034808435011655092
1772795205662795000,2.835794921875,0.0005077674286440015,-0.0017979489639401436,0.00036281440407037735
1772795205672839000,2.8458388671875,0.0014126549940556288,0.0010706339962780476,-0.0003601430798880756
1772795205682883000,2.855883056640625,0.0016443498898297548,-0.0012686867266893387,-0.0005723970243707299
1772795205692927000,2.865927001953125,0.0013129864819347858,-0.0013582264073193073,0.0007488286355510354
1772795205702971000,2.875970947265625,0.0011697085574269295,0.0030061621218919754,-0.001394217018969357
1772795205713015000,2.88601513671875,0.0006012399680912495,0.00189908966422081,0.0002618773141875863
1772795205723060000,2.89606005859375,0.002194076543673873,0.001159796491265297,0.0013548384886234999
1772795205733103900,2.906103759765625,0.00010261393617838621,0.00016118166968226433,-0.0015079147415235639
1772795205743148000,2.91614794921875,-0.0006065858178772032,-0.00035067787393927574,-0.0003081606701016426
1772795205753192000,2.92619189453125,0.003245369531214237,0.0010282988660037518,0.0017926382133737206
1772795205763236000,2.936236083984375,0.0019135224865749478,-0.0013762693852186203,-0.0002806325792334974
1772795205773280000,2.946280029296875,-0.0006172774592414498,0.0003058365546166897,0.003525948151946068
1772795205783324000,2.956323974609375,0.002315661869943142,-0.0006848592311143875,0.0005027278093621135
1772795205793369000,2.966369140625,0.00014418805949389935,-0.0003310535103082657,0.00016463396605104208
1772795205803413000,2.9764130859375,0.00006988586392253637,-0.0007273317314684391,0.00008979917038232088
1772795205813457000,2.986456787109375,-0.0005739731714129448,0.0011363672092556953,0.002437777118757367
1772795205823501000,2.9965009765625,0.0014718672027811408,-0.0005739149637520313,-0.0015670843422412872
1772795205833545000,3.006544921875,0.0014558068942278624,-0.002791327890008688,0.0015250812284648418
1772795205843589000,3.016589111328125,-0.0017066968139261007,0.00044174958020448685,-0.0008539205882698298
1772795205853633000,3.026633056640625,-0.0017017527716234326,-0.000719861127436161,-0.00046187202678993344
1772795205863678000,3.036677978515625,0.0026562439743429422,0.000054053496569395065,-0.0005433647893369198
1772795205873722000,3.04672216796875,-0.00012377288658171892,-0.0015326724387705326,0.002990477252751589
1772795205883766000,3.05676611328125,-0.001114735146984458,-0.0006580902263522148,0.00021067005582153797
1772795205893810000,3.066809814453125,-0.0008725146763026714,0.00181498471647501,-0.0017185942269861698
1772795205903853800,3.076853759765625,0.0008654642151668668,-0.00005508679896593094,0.0009861122816801071
1772795205913898000,3.08689794921875,-0.0002663706545718014,0.0014062533155083656,-0.001700896886177361
1772795205923942100,3.096942138671875,0.000606613582931459,0.0008113035000860691,0.00009567162487655878
1772795205933986800,3.10698681640625,0.000912909978069365,-0.0012411819770932198,0.001001991331577301
1772795205944031000,3.117031005859375,0.00005270889960229397,0.000044059474021196365,-0.0005010967142879963
1772795205954075100,3.1270751953125,-0.0024752358440309763,-0.00036456575617194176,0.000019568600691854954
1772795205964119000,3.137119140625,-0.00009942991891875863,-0.00044499337673187256,0.000272568897344172
1772795205974163000,3.147162841796875,-0.0006846962496638298,0.0009362855926156044,0.0007954163011163473
1772795205984206800,3.157206787109375,-0.0004591265460476279,-0.0012467075139284134,0.0005384213291108608
1772795205994251000,3.1672509765625,0.0009783562272787094,0.00014272192493081093,0.00005981337744742632
1772795206004296200,3.177296142578125,-0.0009942471515387297,0.000014624092727899551,-0.0027354403864592314
1772795206014339800,3.18733984375,-0.0015176989836618304,0.00008438015356659889,0.002313746605068445
1772795206024384000,3.197384033203125,0.0014128434704616666,-0.0019446820951998234,0.00018934288527816534
1772795206034428200,3.20742822265625,-0.00233699893578887,0.001975005492568016,-0.00040137110045179725
1772795206044472000,3.21747216796875,0.0012763780541718006,-0.00019706878811120987,-0.000028262264095246792
1772795206054516000,3.227515869140625,0.00043152470607310534,0.00008219340816140175,-0.0002459688112139702
1772795206064559900,3.237559814453125,0.0005851892055943608,0.0004124254919588566,-0.0002542246365919709
1772795206074605000,3.24760498046875,-0.001935986801981926,0.0011493191123008728,0.0007279240526258945
1772795206084649000,3.25764892578125,-0.002176470123231411,0.0011663632467389107,-0.00013946753460913897
1772795206094692900,3.26769287109375,0.00039955961983650923,0.0017876704223453999,-0.0025360514409840107
1772795206104737000,3.277737060546875,0.003066981676965952,0.00032665999606251717,0.002164161764085293
1772795206114781000,3.287781005859375,-0.00011665496276691556,0.0004016337916254997,-0.0024733548052608967
1772795206124825000,3.2978251953125,0.0004063898231834173,-0.0008572423830628395,-0.00009408663026988506
1772795206134869000,3.307868896484375,0.0025465143844485283,-0.0016598687507212162,0.0003060839371755719
1772795206144914000,3.317913818359375,-0.000008788658306002617,-0.00014319876208901405,0.0012741429964080453
1772795206154958000,3.3279580078125,-0.0008974794181995094,0.0007330081425607204,-0.00030822388362139463
1772795206165002000,3.338001953125,0.0012207988183945417,0.0008520516566932201,0.0012702315580099821
1772795206175046000,3.3480458984375,-0.0008262618794105947,0.0009256470948457718,-0.0003462803433649242
1772795206185090000,3.358090087890625,-0.0009037598501890898,-0.0020765340887010098,0.00012989284005016088
1772795206195134000,3.368134033203125,0.0010984699474647641,-0.0019935970194637775,0.0009717090288177133
1772795206205178000,3.37817822265625,0.0015882254811003804,0.00026449747383594513,0.0011978113325312734
1772795206215223000,3.38822314453125,-0.0014430852606892586,0.0005238903686404228,0.0022798744030296803
1772795206225267000,3.398266845703125,0.0006192666478455067,0.0016994094476103783,-0.00016490742564201355
1772795206235311000,3.40831103515625,-0.00040146498940885067,0.0006739692762494087,0.0009869254427030683
1772795206245355000,3.41835498046875,0.0006792458007112145,-0.0009835823439061642,-0.0027082106098532677
1772795206255399000,3.42839892578125,-0.0009375523077324033,0.00047551048919558525,0.00038238102570176125
1772795206265443000,3.438443115234375,0.0004166651051491499,0.0008709901012480259,-0.0017854319885373116
1772795206275487000,3.448487060546875,-0.0008503212593495846,-0.0021681799553334713,-0.0008388436399400234
1772795206285532000,3.458531982421875,0.001126543153077364,-0.0004831980913877487,0.0034323339350521564
1772795206295576000,3.468576171875,0.00041236658580601215,-0.0007698358967900276,-0.000996659160591662
1772795206305620000,3.478619873046875,0.002212130930274725,-0.000968241598457098,0.0006680828519165516
1772795206315664100,3.4886640625,0.0020923172123730183,-0.0013831444084644318,0.001453209319151938
1772795206325708000,3.4987080078125,-0.001716269413009286,-0.0006952499970793724,-0.002988677006214857
1772795206335752000,3.508751953125,0.0016303581651300192,-0.0018563070334494114,0.0003989920951426029
1772795206345797000,3.518797119140625,0.001278820913285017,-0.0008299248293042183,-0.00010727474000304937
1772795206355841000,3.528841064453125,0.0012145205400884151,-0.00042199576273560524,-0.00029235193505883217
1772795206365885000,3.538885009765625,0.0017663275357335806,-0.0008976361714303493,0.0014586764154955745
1772795206375929000,3.54892919921875,0.0017715428257361054,-0.0000830446369946003,0.00247854832559824
1772795206385973000,3.558972900390625,-0.0003454037941992283,-0.0002377741038799286,0.002220754511654377
1772795206396017200,3.56901708984375,0.0014311338309198618,0.0012103435583412647,-0.0014368945267051458
1772795206406061000,3.57906103515625,-0.00194149324670434,0.00298587279394269,-0.00033274799352511764
1772795206416105500,3.58910546875,0.002328731119632721,-0.0005415142513811588,0.0007179287495091558
1772795206426150700,3.599150634765625,-0.0008806443074718118,-0.0006629545241594315,0.0004055399913340807
1772795206436194300,3.6091943359375,-0.0005712293786928058,-0.0008401200175285339,-0.0005809020949527621
1772795206446238500,3.619238525390625,-0.0014186472399160266,0.002816932275891304,-0.00012044154573231936
1772795206456282400,3.629282470703125,0.0006315361242741346,-0.0003900122828781605,0.0014045031275600195
1772795206466326500,3.639326416015625,-0.00013492157449945807,-0.001813738141208887,-0.0014394866302609444
1772795206476370700,3.64937060546875,-0.0003875376423820853,-0.0003479374572634697,0.000923193758353591
1772795206486415400,3.659415283203125,0.0012218107003718615,-0.0003756340593099594,-0.0014771133428439498
1772795206496459500,3.66945947265625,-0.00014646450290456414,0.0007935976609587669,0.0007232236675918102
1772795206506503400,3.67950341796875,-0.001044216100126505,0.000024210195988416672,-0.002005451126024127
1772795206516547300,3.68954736328125,0.0007355591515079141,-0.0009437762200832367,0.0028485339134931564
1772795206526591500,3.699591552734375,0.0027092278469353914,-0.0019123679958283901,-0.00029159936821088195
1772795206536635400,3.709635498046875,0.0012143169296905398,0.00003355368971824646,-0.0013566005509346724
1772795206546679600,3.719679443359375,0.0023160665296018124,0.001325453631579876,0.0009981663897633553
1772795206556724500,3.729724365234375,-0.0007541546365246177,-0.0013693091459572315,0.002300984226167202
1772795206566768400,3.739768310546875,0.00043574569281190634,0.00039716577157378197,-0.0006103834020905197
1772795206576812500,3.7498125,-0.00016248237807303667,0.0005438537336885929,0.00043145043309777975
1772795206586856400,3.7598564453125,0.0014197016134858131,-0.0009879963472485542,0.00013104581739753485
1772795206596900400,3.769900390625,0.0012186144012957811,0.0030817072838544846,-0.0020011207088828087
1772795206606944500,3.779944580078125,0.0023057167418301105,-0.0020097242668271065,-0.00004476262256503105
1772795206616988400,3.789988525390625,-0.0014847571728751063,-0.0012592747807502747,-0.00034567283000797033
1772795206627033600,3.80003369140625,0.0025302243884652853,-0.0028856671415269375,0.001071661477908492
1772795206637077500,3.810077392578125,-0.0014704765053465962,0.0018978104926645756,0.0006901546148583293
1772795206647121400,3.820121337890625,-0.001467014430090785,0.0006474568508565426,0.002314150333404541
1772795206657165600,3.83016552734375,-0.00017828732961788774,-0.0020084488205611706,0.0026009073480963707
1772795206667209500,3.84020947265625,0.001159684848971665,0.0012877457775175571,0.00031005614437162876
1772795206677253400,3.85025341796875,0.0012662224471569061,0.0010291794314980507,0.0008036530343815684
1772795206687298600,3.860298583984375,-0.00001795380376279354,-0.00035593053326010704,-0.0001417691819369793
1772795206697342500,3.870342529296875,-0.00031685095746070147,-0.0017394856549799442,0.001572929322719574
1772795206707386400,3.880386474609375,-0.0027243485674262047,-0.0008507887832820415,-0.0024929186329245567
1772795206717430300,3.89043017578125,0.0014217058196663857,-0.0005334676243364811,-0.0002265439834445715
1772795206727474400,3.900474365234375,-0.0012142909690737724,-0.0008509163744747639,0.0015047771157696843
1772795206737518600,3.9105185546875,0.0006336667574942112,-0.00048264767974615097,-0.0015797382220625877
1772795206747562500,3.9205625,-0.000631334725767374,0.002199954353272915,-0.0009930438827723265
1772795206757607400,3.930607421875,-0.00046248710714280605,-0.00019479496404528618,-0.00038525316631421447
1772795206767651600,3.940651611328125,0.0008227544603869319,0.0014829961583018303,0.0022382265888154507
1772795206777695500,3.950695556640625,0.0014297920279204845,-0.001109724398702383,0.0027240398339927197
1772795206787739400,3.960739501953125,-0.000101259327493608,0.00007271906360983849,0.0014369339914992452
1772795206797783300,3.970783203125,-0.00027880293782800436,0.00018813135102391243,0.00024888257030397654
1772795206807827500,3.980827392578125,-0.0001395195722579956,0.0009964010678231716,0.0008385065011680126
1772795206817872600,3.99087255859375,0.0006802891148254275,0.000583989080041647,0.0011688298545777798
1772795206827915500,4.00091552734375,0.00020518118981271982,-0.0003862003795802593,-0.002904208842664957
1772795206837959400,4.01095947265625,-0.000050338683649897575,-0.0014730594120919704,0.0012005649041384459
1772795206848003300,4.02100341796875,0.0003552607959136367,-0.0012887688353657722,0.0009257267229259014
1772795206858048500,4.031048583984375,-0.00033316388726234436,0.0007384694181382656,-0.0010377590078860521
1772795206868092400,4.041092529296875,-0.0002402195823378861,0.00027747638523578644,-0.0022676067892462015
1772795206878136300,4.05113623046875,0.000007805472705513239,0.0003524450585246086,-0.0037435051053762436
1772795206888180500,4.061180419921875,-0.0007083185482770205,0.001885893288999796,-0.00010083348024636507
1772795206898224400,4.071224365234375,0.00022756581893190742,-0.0018514054827392101,0.0006850579520687461
1772795206908268500,4.0812685546875,0.00009334256174042821,0.00133879529312253,-0.000195915752556175
1772795206918312400,4.0913125,0.0012740769889205694,-0.00039091939106583595,0.0008580810390412807
1772795206928357400,4.101357421875,-0.0012226365506649017,-0.0005762754008173943,-0.0015984188066795468
1772795206938401500,4.111401611328125,0.0014365211827680469,-0.0006521083414554596,0.001071697915904224
1772795206948445400,4.121445556640625,-0.0005624474724754691,0.00013032834976911545,0.001169435796327889
1772795206958489300,4.1314892578125,-0.0010569265577942133,0.0011561033315956593,0.0006575612351298332
1772795206968533500,4.141533447265625,0.0010360517771914601,0.002068236004561186,-0.0006812099018134177
1772795206978577400,4.151577392578125,0.001265780534595251,0.0002234899438917637,-0.00017546024173498154
1772795206988622300,4.161622314453125,0.002080707810819149,0.00014386139810085297,-0.0006732050678692758
1772795206998666500,4.17166650390625,-0.0010324881877750158,-0.0007309392094612122,0.0008625858463346958
1772795207008710400,4.18171044921875,0.0018668952398002148,0.00018678605556488037,0.001657805871218443
1772795207018754600,4.191754638671875,-0.0005322134238667786,-0.0006438177078962326,-0.0013629300519824028
1772795207028798500,4.201798583984375,-0.0014366229297593236,0.00043103378266096115,-0.0006356207886710763
1772795207038842400,4.21184228515625,0.0001059704227373004,0.00013772305101156235,0.0006911841919645667
1772795207048886500,4.221886474609375,0.0005834752228111029,0.002567324321717024,0.002166575286537409
1772795207058931500,4.231931396484375,0.0005839320365339518,0.0023324117064476013,0.0011344397207722068
1772795207068975400,4.241975341796875,0.00016341893933713436,0.0013086926192045212,0.0013932989677414298
1772795207079019500,4.25201953125,0.00025561475194990635,0.000021690968424081802,-0.0006048611830919981
1772795207089063400,4.2620634765625,-0.0008336181635968387,0.0005910745821893215,-0.0007481392240151763
1772795207099107600,4.272107666015625,-0.00037497124867513776,0.001477095764130354,0.0016607317375019193
1772795207109151500,4.2821513671875,0.002201370894908905,-0.001441462431102991,0.004377156030386686
1772795207119195400,4.2921953125,-0.00014751829439774156,0.0005617523565888405,-0.0036147984210401773
1772795207129240600,4.302240478515625,-0.0020799078047275543,0.0010211477056145668,-0.001677082502283156
1772795207139284500,4.312284423828125,0.0018223273800686002,0.0007850038819015026,-0.001683905953541398
1772795207149328400,4.322328369140625,0.00024893181398510933,0.0012246915139257908,-0.0006388814654201269
1772795207159372500,4.33237255859375,-0.00021878810366615653,-0.0002597370184957981,-0.0022194066550582647
1772795207169416400,4.34241650390625,0.0002861472312361002,-0.000045618973672389984,-0.00203271908685565
1772795207179460600,4.352460693359375,-0.0013325900072231889,0.001051496248692274,-0.0014097436796873808
1772795207189505500,4.362505615234375,0.0013028742978349328,0.00047172652557492256,0.0007274430245161057
1772795207199549400,4.372549560546875,0.0004763432079926133,-0.001411819364875555,-0.00039433862548321486
1772795207209593600,4.382593505859375,0.0015378791140392423,0.00030565308406949043,-0.0016526822000741959
1772795207219637500,4.392637451171875,0.0008343976805917919,0.0011634733527898788,-0.0009796004742383957
1772795207229681400,4.402681396484375,-0.001890548737719655,0.001928333193063736,0.00009578396566212177
1772795207239725300,4.412725341796875,0.00047961168456822634,-0.0013604224659502506,-0.0020764758810400963
1772795207249770500,4.4227705078125,0.0009326153667643666,-0.0016714800149202347,-0.0005920298281125724
1772795207259814400,4.432814453125,0.00022184208501130342,-0.0001042122021317482,-0.001138783642090857
1772795207269858300,4.4428583984375,-0.0012205259408801794,0.000953861977905035,-0.004064532462507486
1772795207279902500,4.45290234375,-0.0025229742750525475,0.0010773995891213417,-0.0018177509773522615
1772795207289946600,4.462946533203125,0.0007138318615034223,-0.000313835684210062,-0.0007199959363788366
1772795207299990500,4.472990478515625,0.0028631046880036592,-0.0025028972886502743,0.0022616656497120857
1772795207310034400,4.483034423828125,-0.0005673130508512259,0.0020495103672146797,0.0007228911854326725
1772795207320079600,4.49307958984375,-0.0003167617251165211,-0.0003875298425555229,0.0009672977030277252
1772795207330123500,4.50312353515625,0.0008337238687090576,-0.0027747873682528734,-0.0006926505011506379
1772795207340167400,4.51316748046875,-0.00022731197532266378,-0.00010496703907847404,-0.00037057994632050395
1772795207350211300,4.52321142578125,-0.0006347756134346128,0.0004716073162853718,0.002210555598139763
1772795207360255500,4.53325537109375,0.0000995140871964395,0.002380776684731245,-0.0027038061525672674
1772795207370299600,4.543299560546875,-0.0003425706527195871,0.00007474515587091446,0.0005862630205228925
1772795207380344300,4.55334423828125,0.0004109081346541643,0.001289913896471262,0.0007925775134935975
1772795207390388500,4.563388427734375,0.0023608747869729996,0.0001668594777584076,0.0003273232141509652
1772795207400432400,4.573432373046875,0.00014139700215309858,0.0023958315141499043,0.0020128334872424603
1772795207410476500,4.5834765625,0.0005424690898507833,0.0030389842577278614,0.00016886077355593443
1772795207420520200,4.593520263671875,-0.0004948321729898453,0.0003149770200252533,-0.0008104080334305763
1772795207430564400,4.603564453125,0.0010612527839839458,0.0003943396732211113,0.00009772984776645899
1772795207440608300,4.613608154296875,-0.0011528180912137032,-0.0015634950250387192,0.0004585355054587126
1772795207450653400,4.6236533203125,0.002312753349542618,0.002122586127370596,-0.0016416332218796015
1772795207460697300,4.633697265625,-0.003693077014759183,0.0018707136623561382,0.0005597379058599472
1772795207470741200,4.6437412109375,0.00016158231301233172,-0.0010097608901560307,0.0018811983754858375
1772795207480785400,4.653785400390625,0.0015851433854550123,0.0017133080400526524,-0.002437133342027664
1772795207490829300,4.663829345703125,-0.00047774126869626343,0.0009692208841443062,-0.00005600089207291603
1772795207500873200,4.673873291015625,0.0018308450235053897,0.0010227672755718231,-0.00006084179040044546
1772795207510918400,4.68391845703125,-0.0007231264025904238,0.0014051971957087517,-0.001145547372289002
1772795207520962300,4.69396240234375,0.0014005524571985006,-0.0014743399806320667,-0.0007013359572738409
1772795207531006500,4.70400634765625,0.0012383658904582262,0.002300158143043518,0.0004030768759548664
1772795207541050400,4.71405029296875,-0.00031588374986313283,-0.0022109816782176495,0.0013666147133335471
1772795207551094300,4.72409423828125,0.000577606784645468,-0.0014051091857254505,0.00013197329826653004
1772795207561138400,4.734138427734375,0.00010237551759928465,0.00011667143553495407,-0.0001722932793200016
1772795207571182300,4.744182373046875,0.0016723090084269643,0.00008497992530465126,0.00033317459747195244
1772795207581227300,4.754227294921875,0.0014516552910208702,0.00028255069628357887,-0.000324171909596771
1772795207591271400,4.764271484375,0.0007267427863553166,-0.0014434438198804855,0.000013250624760985374
1772795207601315300,4.7743154296875,-0.0006367515888996422,0.0008153407834470272,0.0018531596288084984
1772795207611359200,4.784359130859375,-0.001790432957932353,-0.0004134420305490494,0.0020291944965720177
1772795207621403100,4.794403076171875,0.0010110968723893166,0.00012012338265776634,0.0003879860742017627
1772795207631447300,4.804447265625,0.000037178921047598124,-0.00028414465487003326,0.0005624231416732073
1772795207641492500,4.814492431640625,0.0002992713707499206,0.00022855959832668304,0.002541450783610344
1772795207651536100,4.8245361328125,0.0010926269460469484,0.000483690295368433,0.0010197204537689686
1772795207661580300,4.834580322265625,0.002052373718470335,0.000037274789065122604,0.0006992160342633724
1772795207671624400,4.84462451171875,0.002534405793994665,-0.000351546797901392,-0.00017083878628909588
1772795207681668400,4.85466845703125,0.0005483528948388994,-0.000010913703590631485,-0.0018550448585301638
1772795207691712300,4.864712158203125,-0.000276694365311414,-0.00020878668874502182,-0.0034942205529659986
1772795207701757400,4.87475732421875,0.001153930788859725,0.0026353145949542522,0.0024842172861099243
1772795207711801300,4.88480126953125,-0.0018658274784684181,0.0006544548086822033,-0.002249551471322775
1772795207721845500,4.894845458984375,-0.00031694190693087876,0.000022790860384702682,0.0006903111934661865
1772795207731889200,4.90488916015625,-0.0004197399248369038,0.0012952489778399467,-0.0004495217581279576
1772795207741933300,4.914933349609375,0.00008717522723600268,0.001577653456479311,0.0007171030156314373
1772795207751977500,4.9249775390625,0.001337529392912984,-0.002176338341087103,0.0019261782290413976
1772795207762021400,4.935021484375,0.00012379977852106094,-0.0007929941639304161,0.00232657790184021
1772795207772066300,4.94506640625,-0.00012254260946065187,-0.0015543918125331402,-0.001600785879418254
1772795207782110500,4.9551103515625,0.00039521558210253716,-0.0004927157424390316,-0.002770677674561739
1772795207792154400,4.965154296875,0.0010090742725878954,-0.001222954597324133,-0.0003866157494485378
1772795207802198500,4.975198486328125,0.0020504845306277275,-0.0007543186657130718,-0.0005324234371073544
1772795207812242200,4.9852421875,0.0006938702426850796,0.0007295948453247547,-0.0012674558674916625
1772795207822286300,4.995286376953125,0.0014546680031344295,0.0015567927621304989,0.0007062613731250167
1772795207832331500,5.00533154296875,-0.001870022271759808,0.0006012506783008575,0.00005032471381127834
1772795207842375200,5.015375244140625,0.00038082036189734936,-0.0007684649899601936,0.0014152461662888527
1772795207852419300,5.02541943359375,0.0003858804702758789,-0.00029522133991122246,0.0007537170313298702
1772795207862463200,5.035463134765625,-0.00005821220111101866,0.0004652258940041065,-0.002245516050606966
1772795207872507400,5.04550732421875,0.001930902828462422,-0.00011001667007803917,-0.0006276456406340003
1772795207882551600,5.055551513671875,0.0019420392345637083,0.0013538701459765434,0.001728358562104404
1772795207892596200,5.06559619140625,0.0015827789902687073,-0.002592402044683695,0.0014500581892207265
1772795207902640400,5.075640380859375,-0.00040369914495386183,-0.0019214167259633541,0.0020844577811658382
1772795207912684500,5.0856845703125,0.0022964798845350742,-0.00022125476971268654,0.0027917935512959957
1772795207922728200,5.095728271484375,-0.0009744924027472734,-0.000897175632417202,0.0034880866296589375
1772795207932772400,5.1057724609375,0.000990387867204845,0.001708194613456726,0.00019695213995873928
1772795207942816300,5.115816162109375,0.001247417414560914,-0.00059943413361907,0.00038468348793685436
1772795207952861200,5.125861083984375,-0.00028576445765793324,-0.0017139669507741928,-0.0023130986373871565
1772795207962905300,5.1359052734375,0.0009086694335564971,0.0007303254678845406,-0.00006192794535309076
1772795207972949200,5.14594921875,-0.001988849835470319,0.001434465404599905,-0.0023016463965177536
1772795207982993400,5.155993408203125,0.0001443067449145019,0.0012356233783066273,-0.0014613992534577847
1772795207993037300,5.166037353515625,-0.0031612087041139603,-0.0006424379535019398,-0.0009492734097875655
1772795208003081200,5.176081298828125,-0.00024186450173147023,0.00101911136880517,0.0007118732901290059
1772795208013125400,5.18612548828125,0.0011333918664604425,0.0011080605909228325,-0.0005768302944488823
1772795208023170300,5.19617041015625,-0.0006601891946047544,0.0008786004036664963,0.00012595439329743385
1772795208033214200,5.206214111328125,0.002771293744444847,-0.0011017262004315853,-0.001732932054437697
1772795208043258400,5.21625830078125,-0.0011156274704262614,0.00037058163434267044,0.0007047508843243122
1772795208053302300,5.22630224609375,-0.0017321491613984108,0.0029815444722771645,-0.0005224336637184024
1772795208063346400,5.236346435546875,-0.0019139163196086884,-0.0007311427034437656,-0.0013369889929890633
1772795208073390300,5.246390380859375,-0.0019013995770365,0.0005588927306234837,-0.004847567994147539
1772795208083435300,5.256435302734375,0.0006953702541068196,0.0008424436673521996,-0.000524765404406935
1772795208093479400,5.2664794921875,-0.0011089213658124208,0.0006120800971984863,0.0014640832087025046
1772795208103523300,5.2765234375,0.001284219790250063,-0.0017237872816622257,0.0026914344634860754
1772795208113567200,5.286567138671875,0.0007635718793608248,0.0006413660012185574,-0.0014484493294730783
1772795208123611400,5.296611328125,0.001928962767124176,0.0002642441540956497,-0.0005406171549111605
1772795208133655300,5.3066552734375,0.0025428212247788906,-0.00218719569966197,0.0009233225136995316
1772795208143700500,5.316700439453125,0.0009807569440454245,0.0013666898012161255,-0.0005615758709609509
1772795208153744100,5.326744140625,0.0007328166393563151,0.00002658739686012268,0.00029329885728657246
1772795208163788300,5.336788330078125,0.0012410985073074698,0.0015056757256388664,0.0004903111839666963
1772795208173832400,5.34683251953125,0.0003888870123773813,0.0008180476725101471,-0.0004375341231934726
1772795208183876400,5.35687646484375,-0.0013164887204766273,0.001214830670505762,0.00351224048063159
1772795208193920300,5.366920166015625,-0.001070945174433291,-0.0007825400680303574,-0.000042813364416360855
1772795208203965400,5.37696533203125,-0.002196388551965356,0.00028017815202474594,-0.002039574086666107
1772795208214009300,5.38700927734375,0.00044440198689699173,0.0003185276873409748,0.0004190561594441533
1772795208224053500,5.397053466796875,0.0024783266708254814,-0.0018080486916005611,0.00008910964243113995
1772795208234097200,5.40709716796875,0.0007528647547587752,-0.0005720756016671658,0.0011770109413191676
1772795208244141300,5.417141357421875,-0.00007393112173303962,0.00029913708567619324,0.0012636254541575909
1772795208254185500,5.427185546875,0.0008142331498675048,0.0021484363824129105,-0.001955870073288679
1772795208264230100,5.437230224609375,0.002249346347525716,0.0010622325353324413,0.0004322325112298131
1772795208274274300,5.4472744140625,0.00026715564308688045,-0.0006778771057724953,-0.00011238397564738989
1772795208284318500,5.457318359375,-0.0005849665030837059,-0.0008693072013556957,0.0014013751642778516
1772795208294362400,5.4673623046875,-0.00042650839895941317,0.0020292773842811584,-0.003491384442895651
1772795208304406500,5.477406494140625,-0.0004362121399026364,-0.001779304351657629,0.0008688898524269462
1772795208314450200,5.4874501953125,0.001337186899036169,0.0004194015637040138,0.00023505743592977524
1772795208324495400,5.497495361328125,-0.00006590568227693439,0.0002825576812028885,0.001858723466284573
1772795208334539500,5.50753955078125,0.0017580933636054397,0.0008828341960906982,-0.00006594299338757992
1772795208344583200,5.517583251953125,0.000655040261335671,0.002093453425914049,0.00010259379632771015
1772795208354627300,5.52762744140625,0.0013224283466115594,0.00020101061090826988,-0.00035680143628269434
1772795208364671200,5.537671142578125,-0.0003112232661806047,-0.00008158432319760323,0.001414535567164421
1772795208374715400,5.54771533203125,0.0010262161958962679,0.0009232261218130589,-0.0006046732887625694
1772795208384760300,5.55776025390625,0.0012685033725574613,-0.0004055085591971874,0.00023944838903844357
1772795208394804200,5.56780419921875,0.0012586497468873858,0.0007947785779833794,0.0021824906580150127
1772795208404848400,5.577848388671875,-0.0006972856353968382,-0.0005475776270031929,-0.0012382499407976866
1772795208414892800,5.587892822265625,-0.00000646169064566493,-0.0006253421306610107,-0.0003325088764540851
1772795208424936700,5.597936767578125,-0.001883004792034626,-0.0019086641259491444,-0.0011996919056400657
1772795208434980600,5.607980712890625,-0.00003210786962881684,-0.00020104506984353065,-0.0006675923359580338
1772795208445025800,5.61802587890625,-0.0007830693502910435,0.0005481564439833164,0.0008422482060268521
1772795208455069700,5.628069580078125,-0.00010130013106390834,-0.0019110064022243023,0.00023131922353059053
1772795208465113600,5.638113525390625,0.00039013277273625135,0.0004097265191376209,0.00009800179395824671
1772795208475157800,5.64815771484375,0.001055656699463725,-0.0008403612300753593,0.0012407642789185047
1772795208485201700,5.65820166015625,0.0029674069955945015,-0.00018904497846961021,0.0031169094145298004
1772795208495245600,5.66824560546875,0.001165778492577374,-0.0001541576348245144,0.00014588679186999798
1772795208505290800,5.678290771484375,-0.00031216113711707294,-0.0004351940006017685,0.0030571112874895334
1772795208515334700,5.688334716796875,0.0006242063245736063,0.0018229000270366669,0.002491722349077463
1772795208525378800,5.69837890625,0.002818864770233631,-0.00038931844756007195,-0.00038237415719777346
1772795208535422700,5.708422607421875,-0.00042699597543105483,-0.000005823094397783279,0.000702065066434443
1772795208545466600,5.718466552734375,0.0035104977432638407,0.0008430751040577888,0.0006881082663312554
1772795208555510800,5.7285107421875,0.001033225329592824,-0.0009417752735316753,0.0011222035391256213
1772795208565555700,5.7385556640625,-0.0003288177540525794,-0.0005198749713599682,-0.00019299640553072095
1772795208575599600,5.748599609375,-0.002172257751226425,-0.0003486340865492821,-0.0011802302906289697
1772795208585643800,5.758643798828125,-0.0014200741425156593,0.00006451690569519997,0.0010884500807151198
1772795208595687700,5.768687744140625,0.0019349763169884682,0.0006642607040703297,0.0012445113388821483
1772795208605731800,5.77873193359375,0.00047043076483532786,-0.0005976250395178795,-0.0009713731124065816
1772795208615775700,5.788775634765625,0.0005258245510049164,0.001712667290121317,0.0007192015182226896
1772795208625820700,5.798820556640625,-0.00006099231541156769,-0.00039410172030329704,0.0025360225699841976
1772795208635864800,5.80886474609375,0.0028072320856153965,0.00021602865308523178,-0.00038839475018903613
1772795208645908500,5.818908447265625,0.0021728123538196087,0.0005051963962614536,0.0018908208003267646
1772795208655952600,5.82895263671875,0.00041672412771731615,-0.0004106643609702587,-0.00039763341192156076
1772795208665996800,5.838996826171875,0.0007111327722668648,-0.0008094203658401966,0.001295524649322033
1772795208676040700,5.849040771484375,0.0009923626203089952,-0.0019686943851411343,-0.00009544449858367443
1772795208686085600,5.859085693359375,0.0007996096974238753,0.00016415631398558617,-0.0027499785646796227
1772795208696129800,5.8691298828125,-0.0006747161969542503,0.0008461922407150269,-0.00007403444033116102
1772795208706173700,5.879173583984375,0.0010839489987120032,-0.000441928394138813,0.00045106501784175634
1772795208716217900,5.8892177734375,0.0009534541750326753,-0.001805200707167387,0.0009844962041825056
1772795208726261500,5.899261474609375,0.00013390230014920235,0.0007107006385922432,0.0018337713554501534
1772795208736305700,5.9093056640625,0.0001344349584542215,0.00028459448367357254,-0.000010201358236372471
1772795208746350800,5.919350830078125,-0.0010265922173857689,-0.0006615910679101944,-0.0015074871480464935
1772795208756394800,5.929394775390625,0.00020751665579155087,0.0006918273866176605,0.0024813953787088394
1772795208766438700,5.939438720703125,-0.0017744345823302865,0.0001079123467206955,-0.0007068311097100377
1772795208776482800,5.94948291015625,-0.0005033077904954553,0.0001955302432179451,-0.0018184345681220293
1772795208786526700,5.959526611328125,-0.00036142620956525207,0.0005074189975857735,-0.001448482391424477
1772795208796571000,5.96957080078125,0.0002668134984560311,0.0008200742304325104,0.0012000312563031912
1772795208806615600,5.979615478515625,0.00037609890569001436,0.0020556803792715073,0.0012058702996000648
1772795208816659700,5.98965966796875,0.0012988842790946364,0.0008841557428240776,0.0008636541897431016
1772795208826704000,5.999703857421875,0.000547403353266418,0.0008294563740491867,-0.00029422459192574024
1772795208836747500,6.00974755859375,0.0010089291026815772,-0.000005977228283882141,0.0015143280616030097
1772795208846791700,6.019791748046875,0.0001046288525685668,-0.0007325029000639915,0.001793656381778419
1772795208856835600,6.029835693359375,-0.00017340522026643157,0.0002025333233177662,0.0020815441384911537
1772795208866880800,6.039880859375,0.0005855450872331858,-0.0008570034988224506,-0.0001597146037966013
1772795208876924700,6.049924560546875,0.001065713120624423,0.0013984274119138718,-0.0008081942796707153
1772795208886968600,6.059968505859375,-0.0011428488651290536,0.0006939200684428215,-0.002425957005470991
1772795208897012700,6.0700126953125,-0.00044243750744499266,-0.0003724098205566406,-0.0023945318534970284
1772795208907057000,6.080056884765625,0.0010261551942676306,-0.000010884366929531097,-0.0024157799780368805
1772795208917100500,6.0901005859375,0.000718560186214745,0.001733219251036644,-0.0019076488679274917
1772795208927145700,6.100145751953125,0.0014837218914180994,-0.0009655007161200047,0.0010104665998369455
1772795208937190000,6.11018994140625,0.0005449576419778168,0.0011850018054246902,0.0011859689839184284
1772795208947233800,6.12023388671875,-0.0003562076308298856,-0.000431891530752182,-0.0010711776558309793
1772795208957277700,6.130277587890625,0.0005202386528253555,-0.0005559949204325676,-0.00042429578024894
1772795208967321600,6.140321533203125,-0.0012421332066878676,-0.0016129296272993088,0.004599623382091522
1772795208977365800,6.15036572265625,0.00012193789007142186,-0.002087770961225033,0.0008003581315279007
1772795208987410700,6.16041064453125,0.000877274782396853,-0.0008356408216059208,0.00025561952497810125
1772795208997454600,6.17045458984375,0.0014176302356645465,-0.0002846331335604191,-0.0008527881582267582
1772795209007498800,6.180498779296875,0.00029778038151562214,0.001457978505641222,-0.002669630106538534
1772795209017542700,6.190542724609375,0.0002716814633458853,0.00022147269919514656,-0.0024302119854837656
1772795209027586800,6.2005869140625,0.0003207630943506956,0.0019504139199852943,0.0013466124655678868
1772795209037630700,6.210630615234375,-0.0008382446249015629,0.001077430322766304,0.0011902848491445184
1772795209047675600,6.220675537109375,0.0007466390961781144,-0.0012233578599989414,-0.0012745739659294486
1772795209057719800,6.2307197265625,0.0016049760160967708,-0.0019077900797128677,-0.00007428729441016912
1772795209067763700,6.240763671875,-0.0018256239127367735,0.00015462515875697136,0.00010107352863997221
1772795209077807600,6.2508076171875,-0.0012005800381302834,0.0015253541059792042,-0.002913092263042927
1772795209087851800,6.260851806640625,0.0002739393385127187,0.0018977727741003036,0.002157815732061863
1772795209097895700,6.270895751953125,-0.00031728247995488346,0.0008570090867578983,-0.0005002853577025235
1772795209107940600,6.280940673828125,-0.000624548178166151,0.000556441955268383,-0.0009309716406278312
1772795209117984800,6.29098486328125,0.00011048425221815705,0.0022278418764472008,-0.0013879700563848019
1772795209128028700,6.301028564453125,0.00019941641949117184,-0.0012371805496513844,0.0004327122587710619
1772795209138072800,6.31107275390625,0.0011256638681516051,-0.0008262544870376587,-0.0006724995910190046
1772795209148116700,6.32111669921875,-0.0010484112426638603,-0.000634046271443367,-0.00039780139923095703
1772795209158160600,6.33116064453125,0.00035560724791139364,-0.0005163345485925674,0.0004203217104077339
1772795209168205800,6.341205810546875,0.00024079869035631418,0.0006618350744247437,-0.0006157826283015311
1772795209178249500,6.35124951171875,0.0017457508947700262,-0.0003192732110619545,-0.001496223732829094
1772795209188293600,6.361293701171875,0.0003722831606864929,-0.0013753147795796394,0.0021587677765637636
1772795209198337800,6.371337890625,0.000010359624866396189,0.0015038284473121166,0.0013395794667303562
1772795209208381700,6.381381591796875,0.0010774086695164442,-0.00008684350177645683,-0.0003886448685079813
1772795209218425900,6.39142578125,0.0015162975760176778,0.0014705732464790344,0.000736540649086237
1772795209228470800,6.401470703125,-0.0000757951638661325,-0.00012026773765683174,0.0030157503206282854
1772795209238514700,6.4115146484375,0.00023339781910181046,0.0017801634967327118,-0.0010998985962942243
1772795209248558800,6.421558837890625,-0.0016721768770366907,0.0023631881922483444,0.0000976076116785407
1772795209258602500,6.4316025390625,0.0013600982492789626,0.0027472153306007385,0.0004307690542191267
1772795209268646700,6.441646728515625,0.00009543064516037703,-0.0012443996965885162,0.0017857031198218465
1772795209278691800,6.45169189453125,-0.0007423998322337866,-0.00012880144640803337,-0.000044421060010790825
1772795209288735700,6.46173583984375,0.00038078840589150786,-0.0008125375024974346,0.002452068030834198
1772795209298779600,6.471779541015625,-0.0006740896496921778,-0.0006016148254275322,0.0014504531864076853
1772795209308823800,6.48182373046875,-0.00036330599687062204,0.0009184908121824265,-0.0018583460478112102
1772795209318867700,6.49186767578125,0.0006992952548898757,0.00004284363240003586,0.0033830213360488415
1772795209328912000,6.501911865234375,0.00031250505708158016,-0.0005342117510735989,-0.0025123320519924164
1772795209338956500,6.51195654296875,0.001498943311162293,-0.00026416731998324394,-0.0006579729961231351
1772795209349000700,6.522000732421875,0.0008043761481530964,0.0009369412437081337,-0.002684872131794691
1772795209359044900,6.532044921875,-0.0009897954296320677,0.001981965731829405,-0.000330903974827379
1772795209369088800,6.5420888671875,0.0008495962247252464,0.0005700774490833282,-0.001250434317626059
1772795209379132700,6.552132568359375,0.0014956791419535875,0.00041321711614727974,-0.00008343718945980072
1772795209389176600,6.562176513671875,-0.0007518434431403875,-0.0002812230959534645,0.0012725009582936764
1772795209399221800,6.5722216796875,0.0006090318784117699,0.0003952197730541229,0.000019217259250581264
1772795209409265700,6.582265625,-0.0004977353382855654,-0.0023526083678007126,-0.0003623387310653925
1772795209419308800,6.592308837890625,-0.002314810175448656,-0.000925953034311533,-0.000503486255183816
1772795209429353000,6.60235302734375,-0.0009091297979466617,-0.0018849722109735012,0.0011308558750897646
1772795209439397000,6.612397216796875,-0.0009674530010670424,0.000727322418242693,-0.002795442473143339
1772795209449441000,6.62244091796875,-0.001244676997885108,0.0013206759467720985,0.000011967029422521591
1772795209459486000,6.63248583984375,0.0009521645260974765,0.0007915059104561806,0.0016585994744673371
1772795209469530000,6.642530029296875,-0.0009407657780684531,-0.0009528351947665215,0.0004785937489941716
1772795209479574000,6.652573974609375,-0.0011753903236240149,0.0000517088919878006,-0.0010932039003819227
1772795209489618200,6.6626181640625,0.0023633399978280067,-0.001489295158535242,-0.0008685640059411526
1772795209499661800,6.672661865234375,-0.00016426603542640805,0.00025401031598448753,-0.0009138377499766648
1772795209509707000,6.68270703125,-0.0012009423226118088,0.0013338164426386356,0.0022295555099844933
1772795209519751200,6.692751220703125,-0.0005215699784457684,0.0025791111402213573,0.0009664184181019664
1772795209529794800,6.702794921875,-0.0007646185695193708,-0.0008894498459994793,0.002125146798789501
1772795209539839000,6.7128388671875,0.0010782888857647777,0.0020264452323317528,0.0014090228360146284
1772795209549883000,6.7228828125,0.0005457808147184551,0.0006144857034087181,0.0012710621813312173
1772795209559927000,6.732927001953125,0.0027554056141525507,-0.0005383966490626335,-0.00039980513975024223
1772795209569972000,6.742971923828125,0.0011826016707345843,0.0009310976602137089,-0.0004897152539342642
1772795209580015900,6.753015869140625,-0.000020348175894469023,-0.0014321915805339813,0.000933211762458086
1772795209590060000,6.76306005859375,0.0006267871940508485,0.0017147627659142017,0.0006387394387274981
1772795209600104200,6.773104248046875,0.00021452980581671,0.0006132791750133038,-0.00016127421986311674
1772795209610147800,6.78314794921875,0.00013970833970233798,0.0009526810608804226,-0.0010578270303085446
1772795209620192000,6.79319189453125,0.000017735525034368038,-0.001583979930728674,0.0016554014291614294
1772795209630237200,6.8032373046875,-0.0006171209388412535,0.0007250080816447735,-0.0009004849707707763
1772795209640281000,6.813281005859375,-0.00031911322730593383,0.0016555162146687508,0.0004476071335375309
1772795209650325000,6.823324951171875,-0.0006489803781732917,-0.0016045784577727318,-0.0005377026391215622
1772795209660369000,6.833368896484375,0.00013452162966132164,0.0005525820888578892,-0.0012434403179213405
1772795209670413000,6.8434130859375,0.0026903944090008736,-0.0006160978227853775,-0.0014427612768486142
1772795209680458000,6.8534580078125,0.000029097427614033222,0.0006315927021205425,-0.00003501435276120901
1772795209690502000,6.863501953125,-0.00017191993538290262,0.0013498482294380665,-0.0008159324061125517
1772795209700546000,6.873546142578125,-0.001199101097881794,0.001804716419428587,0.001893301378004253
1772795209710590000,6.88358984375,-0.0014890792081132531,-0.001293739303946495,0.0010317076230421662
1772795209720633900,6.8936337890625,0.0004672788782045245,0.00017632544040679932,-0.0010255841771140695
1772795209730678000,6.903677978515625,-0.0011314654257148504,0.0005067349411547184,0.00002307503018528223
1772795209740723000,6.913722900390625,-0.0010992411989718676,-0.0012094061821699142,0.0011503910645842552
1772795209750767000,6.92376708984375,-0.0010948575800284743,-0.0005067936144769192,-0.0034528241958469152
1772795209760811000,6.93381103515625,0.002752611180767417,0.0004253131337463856,0.002218643669039011
1772795209770855000,6.94385498046875,0.0017383936792612076,-0.000818322878330946,-0.0002319280756637454
1772795209780899000,6.953899169921875,0.0005207965150475502,-0.0024835974909365177,0.0014530540211126208
1772795209790943000,6.96394287109375,-0.001536863623186946,-0.0024103065952658653,0.0022892728447914124
1772795209800988000,6.97398779296875,-0.0005424392293207347,-0.0018321340903639793,0.00015395029913634062
1772795209811032000,6.984031982421875,-0.0006179847405292094,0.0007766089402139187,-0.001056342269293964
1772795209821076000,6.994075927734375,0.0019016320584341884,-0.00008652172982692719,0.0019314582459628582
1772795209831120100,7.0041201171875,0.0008935044170357287,0.00013913773000240326,-0.0000070607056841254234
1772795209841164000,7.0141640625,0.0014924495480954647,-0.0005082767456769943,0.00043289351742714643
1772795209851208000,7.0242080078125,0.0018392238998785615,-0.00009471084922552109,0.000727156875655055
1772795209861253000,7.034253173828125,-0.0005051569314673543,0.0005375239998102188,0.00013992981985211372
1772795209871296800,7.044296875,-0.0016629905439913273,0.002107844687998295,-0.0016561662778258324
1772795209881341000,7.0543408203125,0.0016672923229634762,-0.0006117755547165871,0.0034997137263417244
1772795209891385000,7.064385009765625,0.0011665250640362501,-0.002061363309621811,0.0021699692588299513
1772795209901429000,7.074428955078125,0.00037743040593340993,0.0008297641761600971,0.0009995100554078817
1772795209911474000,7.084473876953125,-0.00008417438948526978,-0.0014102347195148468,0.00044966372661292553
1772795209921518000,7.09451806640625,0.0006657718331553042,-0.0017793490551412106,-0.0009764590067788959
1772795209931562000,7.10456201171875,-0.0010774442926049232,-0.0008329423144459724,-0.0026208336930722
1772795209941606100,7.114606201171875,0.001056280336342752,0.0006115562282502651,-0.001780073856934905
1772795209951649800,7.12464990234375,0.0005289103137329221,-0.0019417810253798962,-0.0004866324597969651
1772795209961694000,7.13469384765625,0.0007539474172517657,0.0006081955507397652,-0.0006719884695485234
1772795209971739100,7.1447392578125,-0.0006558479508385062,-0.0018595177680253983,-0.0006065368070267141
1772795209981783000,7.154782958984375,0.00033724482636898756,0.00021987827494740486,0.0008352986769750714
1772795209991827000,7.164826904296875,-0.0003683934628497809,0.003808090928941965,-0.0007360498420894146
1772795210001871000,7.17487109375,-0.0017708140658214688,-0.0003056940622627735,0.0013982073869556189
1772795210011915000,7.1849150390625,-0.00020118767861276865,-0.0008048196323215961,0.0010781206656247377
1772795210021960000,7.1949599609375,0.001169275026768446,-0.00022638123482465744,0.0006605370435863733
1772795210032004000,7.205004150390625,0.0017745306249707937,-0.0005510090850293636,-0.0022179502993822098
1772795210042048000,7.215048095703125,0.0005689174286089838,0.0008194539695978165,0.0007629258325323462
1772795210052092200,7.225092041015625,0.0015385821461677551,0.0008857296779751778,0.002000018022954464
1772795210062135800,7.2351357421875,-0.0006212415173649788,0.0003941101022064686,0.0018953557591885328
1772795210072180000,7.245179931640625,0.00265289843082428,-0.00030141090974211693,0.0011184607865288854
1772795210082225200,7.25522509765625,0.00007123005343601108,-0.000020180828869342804,0.00006065319757908583
1772795210092269000,7.26526904296875,-0.00020676193526014686,0.00027295202016830444,-0.000644903106149286
1772795210102313000,7.27531298828125,0.00017620064318180084,0.0010655089281499386,0.0007481963839381933
1772795210112356900,7.28535693359375,-0.0023302652407437563,0.0022823489271104336,-0.0019510799320414662
1772795210122401000,7.295401123046875,-0.00021225318778306246,0.0011393208988010883,0.0008111507631838322
1772795210132445200,7.305445068359375,0.00027948268689215183,0.0009574918076395988,-0.0019474290311336517
1772795210142489900,7.31548974609375,-0.0012244044337421656,0.001278935931622982,0.0006648655980825424
1772795210152534000,7.325533935546875,0.0009243790991604328,-0.0015928102657198906,0.002442458411678672
1772795210162578200,7.335578125,0.0005241059698164463,0.0026671821251511574,-0.002225263975560665
1772795210172622000,7.3456220703125,0.0016945162788033485,0.0005551734939217567,0.0008685195352882147
1772795210182666000,7.355666015625,0.0012873189989477396,0.0008073747158050537,0.0031087705865502357
1772795210192711200,7.365711181640625,-0.000850122538395226,0.00019128108397126198,0.00033557077404111624
1772795210202755000,7.375755126953125,0.0018149027600884438,-0.00010619405657052994,0.0012258655624464154
1772795210212799000,7.385799072265625,0.0006913135875947773,-0.00041699595749378204,0.0013332555536180735
1772795210222843000,7.3958427734375,0.0022481975611299276,0.0007771654054522514,-0.00015332107432186604
1772795210232887000,7.405886962890625,-0.0012265248224139214,0.00019801082089543343,-0.00036654865834861994
1772795210242931000,7.415930908203125,-0.001073393039405346,-0.00018548406660556793,-0.00041927926940843463
1772795210252975900,7.425975830078125,0.003488441463559866,0.0009401785209774971,0.000259247375652194
1772795210263020000,7.43602001953125,0.0026910908054560423,-0.00036583561450242996,0.00041051488369703293
1772795210273064000,7.44606396484375,-0.0005284332437440753,-0.0002540694549679756,0.0015757073415443301
1772795210283108000,7.456108154296875,-0.0013135331682860851,0.001906819175928831,0.0008886117720976472
1772795210293152000,7.466152099609375,0.0011484064161777496,0.001834432128816843,0.0015694709727540612
1772795210303197000,7.476197021484375,0.0000703588011674583,-0.0005051549524068832,0.0025697541423141956
1772795210313241000,7.486240966796875,0.00021401123376563191,-0.000044796615839004517,0.0015429435297846794
1772795210323285000,7.496284912109375,0.001992470119148493,-0.0017454912886023521,0.0012728990986943245
1772795210333329000,7.506328857421875,-0.000887842383235693,0.000025776680558919907,-0.0009664959507063031
1772795210343373000,7.516373046875,-0.0017869255971163511,-0.0004887459799647331,-0.0020267004147171974
1772795210353417000,7.5264169921875,0.0025006085634231567,-0.00041793519631028175,0.0004408663371577859
1772795210363462000,7.5364619140625,0.0005064335418865085,0.001767188310623169,-0.0014012421015650034
1772795210373506000,7.546506103515625,-0.00001834158319979906,-0.00046090036630630493,0.0011575876269489527
1772795210383550000,7.556550048828125,0.002549211960285902,0.0012027760967612267,-0.0003636099863797426
1772795210393594000,7.566593994140625,0.002676286268979311,-0.00404566153883934,0.00034829287324100733
1772795210403637800,7.5766376953125,0.0024642986245453358,-0.0006954050622880459,0.00236217537894845
1772795210413683200,7.58668310546875,-0.00008634396363049746,0.001163950189948082,0.0014863001415506005
1772795210423727000,7.59672705078125,0.0005006167921237648,-0.0006065196357667446,-0.0006764528807252645
1772795210433771000,7.60677099609375,0.00009721174137666821,-0.0007248972542583942,0.0005914099747315049
1772795210443815000,7.61681494140625,-0.0007515376782976091,-0.000567504670470953,-0.0003233858151361346
1772795210453859000,7.626859130859375,0.0009122165502049029,0.0009568012319505215,0.0007736056577414274
1772795210463903200,7.6369033203125,-0.0005125745665282011,-0.00021498976275324821,-0.000043452135287225246
1772795210473948000,7.646947998046875,-0.0011053670896217227,0.0010421853512525558,-0.003468307899311185
1772795210483992000,7.656991943359375,-0.001124009257182479,0.0011833328753709793,-0.0028270184993743896
1772795210494036200,7.6670361328125,0.0014214020920917392,0.0006283950060606003,0.0011995284585282207
1772795210504080100,7.677080078125,-0.0002675746218301356,1.5506520867347717e-7,-0.00023325206711888313
1772795210514124000,7.6871240234375,0.0025917638558894396,0.00005353707820177078,0.0003678005887195468
1772795210524169000,7.6971689453125,0.0006282151443883777,-0.00042636459693312645,0.0009233359014615417
1772795210534213000,7.707213134765625,-0.0008883520495146513,0.0007721018046140671,-0.0006173762958496809
1772795210544257300,7.71725732421875,-0.0011317649623379111,0.0018520141020417213,-0.0007199079846031964
1772795210554301000,7.727301025390625,0.00033411907497793436,-0.00011545605957508087,-0.0015718251233920455
1772795210564345000,7.737344970703125,-0.0008123717270791531,0.0007415488362312317,-0.0002080203266814351
1772795210574389000,7.747388916015625,0.00036077864933758974,0.0001511853188276291,-0.00013995449990034103
1772795210584434000,7.757433837890625,0.00014213321264833212,-0.0008879802189767361,-0.0013655411312356591
1772795210594478000,7.76747802734375,0.0015105749480426311,0.000981704331934452,-0.0015654824674129486
1772795210604522000,7.77752197265625,0.0014969927724450827,-0.0006425576284527779,-0.0009050185326486826
1772795210614566100,7.787566162109375,0.0010948454728350043,0.0009956280700862408,0.001295339548960328
1772795210624610300,7.7976103515625,-0.0010255633387714624,0.0010390379466116428,-0.0009555642027407885
1772795210634655000,7.807655029296875,0.0007891679415479302,-0.0006807642057538033,0.0019472520798444748
1772795210644699100,7.81769921875,0.001627797377295792,-0.00016437703743577003,-0.0006171057466417551
1772795210654743300,7.827743408203125,-0.0012506239581853151,-0.00026032375171780586,-0.0017084404826164246
1772795210664787000,7.837786865234375,-0.001654891762882471,0.000018509570509195328,0.002205341123044491
1772795210674831000,7.8478310546875,0.0014163790037855506,0.0020036674104630947,0.0003757753875106573
1772795210684875000,7.857875,0.00042568298522382975,-0.00003551505506038666,-0.0005747067625634372
1772795210694920000,7.867919921875,0.0005220407620072365,-0.000015931669622659683,-0.002315937075763941
1772795210704964000,7.877964111328125,-0.00031445815693587065,-0.0008036945946514606,0.00045428285375237465
1772795210715008000,7.888008056640625,0.00038045726250857115,-0.00025214580819010735,-0.00006685685366392136
1772795210725052200,7.89805224609375,0.0007357229478657246,-0.002813574392348528,0.003893529763445258
1772795210735096000,7.908095947265625,0.0016416141297668219,0.001238950528204441,-0.0025677166413515806
1772795210745141000,7.91814111328125,-0.0018551163375377655,0.0011611860245466232,-0.0014361394569277763
1772795210755185200,7.92818505859375,-0.001950110075995326,-0.000028930138796567917,-0.0007026371313259006
1772795210765229000,7.93822900390625,0.000033944903407245874,-0.0008606351912021637,-0.0009732142789289355
1772795210775273000,7.94827294921875,0.00016299786511808634,0.0009312317706644535,0.003176450962200761
1772795210785317000,7.958317138671875,-0.0008474054629914463,0.0007653171196579933,-0.0009067074861377478
1772795210795361000,7.968361083984375,0.0008420128142461181,0.0017335424199700356,-0.00043192505836486816
1772795210805406200,7.97840625,0.00221061147749424,-0.0015517333522439003,0.0003068358637392521
1772795210815450000,7.9884501953125,0.0007727154297754169,0.00014634756371378899,-0.00023932196199893951
1772795210825494000,7.998493896484375,0.0005780382780358195,-0.0008195806294679642,0.0031663281843066216
1772795210835538200,8.0085380859375,0.0007813931442797184,0.0006236899644136429,0.00037061702460050583
1772795210845582000,8.01858203125,0.00010388495866209269,0.0015755039639770985,-0.00045256601879373193
1772795210855627000,8.028626953125,-0.0001894767046906054,-0.00135098397731781,0.0013403173070400953
1772795210865671200,8.038671142578124,-0.00029493786860257387,0.0006245486438274384,-0.00007035920862108469
1772795210875715000,8.048715087890624,-0.0021233276929706335,0.0007026158273220062,-0.0014232911635190248
1772795210885759200,8.05875927734375,0.002103108912706375,0.0008413665927946568,0.0003647551639005542
1772795210895803000,8.068802978515626,-0.00004984810948371887,-0.00010049669072031975,0.0019987178966403008
1772795210905847000,8.078846923828126,0.0002942322753369808,-0.0014549801126122475,0.0006133413407951593
1772795210915892200,8.088892333984376,-0.001041438546963036,0.001164876390248537,0.0021463020239025354
1772795210925935900,8.098935791015625,0.0006390160415321589,0.0007592765614390373,-0.0011850461596623063
1772795210935980000,8.10897998046875,0.0006469544023275375,0.0000973227433860302,0.000022832071408629417
1772795210946024200,8.119024169921875,0.0009958285372704268,-0.0012015006504952908,-0.00005759543273597956
1772795210956068000,8.129068115234375,-0.0009426049655303359,0.00015217578038573265,0.0011150954524055123
1772795210966113000,8.139113037109375,-0.00046323597780428827,0.0003836043179035187,0.0010439889738336205
1772795210976157200,8.1491572265625,-0.00009961449541151524,-0.0013667494058609009,-0.0018545319326221943
1772795210986201000,8.159201171875,0.0003294207854196429,0.00008573895320296288,0.0030145253986120224
1772795210996245200,8.169245361328125,-0.0003215241595171392,0.0006702234968543053,0.0006980840116739273
1772795211006289000,8.179288818359375,0.0011906188447028399,-0.0002823891118168831,0.001322062686085701
1772795211016334000,8.189333984375,-0.0012729838490486145,-0.0004001818597316742,0.0009761907858774066
1772795211026378200,8.199378173828125,0.0006032130331732333,-0.0008217599242925644,0.001138110994361341
1772795211036422000,8.209421875,-0.0006665096152573824,0.0005491399206221104,-0.0019354803953319788
1772795211046466000,8.219466064453124,0.0015116899739950895,0.0012293113395571709,-0.00024836789816617966
1772795211056510000,8.229510009765624,0.0013374738628044724,-0.0008253357373178005,-0.0015082332538440824
1772795211066554000,8.23955419921875,-0.0012202260550111532,-0.0001286529004573822,-0.001527940621599555
1772795211076599000,8.24959912109375,0.00012577587040141225,0.00019871024414896965,-0.00003081047907471657
1772795211086643000,8.259642822265626,0.0012802563142031431,-0.0010931892320513725,0.00036626681685447693
1772795211096687000,8.26968701171875,0.000505393894854933,0.01225410308688879,0.0034698580857366323
1772795211106731300,8.279731201171876,-0.0006517496076412499,0.004510962404310703,0.0041292570531368256
1772795211116775000,8.28977490234375,-0.0013245780719444156,0.015226807445287704,0.011647827923297882
1772795211126820000,8.299820068359375,-0.001055332482792437,0.00043800706043839455,0.0011709524551406503
1772795211136864300,8.3098642578125,0.0020456332713365555,-0.003980814013630152,-0.0002473739441484213
1772795211146908200,8.319908203125,0.0013289767084643245,-0.0021669352427124977,-0.0031342406291514635
1772795211156952000,8.3299521484375,0.003046848112717271,-0.008363003842532635,-0.0068525951355695724
1772795211166997200,8.339997314453125,-0.002494125161319971,-0.014171624556183815,-0.007466453127563
1772795211177042000,8.3500419921875,0.0016405100468546152,-0.005498711951076984,-0.0014258959563449025
1772795211187086000,8.360086181640625,0.000188554753549397,-0.0018507135100662708,-0.0008868721779435873
