time,seconds_elapsed,z,y,x
1772795095819977700,0.074977783203125,0.02271978133022785,0.008974438566993922,-0.020224238187447188
1772795095830021600,0.085021728515625,0.005819499933719634,0.007964154129463713,-0.01934135440569371
1772795095840065800,0.095065673828125,0.007476619490981102,-0.006030690432409756,-0.031678675268217917
1772795095850110700,0.10511083984375,0.03068330755531788,0.0016911245748517103,-0.012793558463733642
1772795095860154600,0.115154541015625,0.01019289271235466,0.002762411634752061,-0.02799633349366486
1772795095870198800,0.12519873046875,0.019631752187013626,-0.0013132106235716492,-0.02802645463729277
1772795095880243700,0.13524365234375,0.0162953012406826,-0.010737536966090555,0.004895937081705779
1772795095890287600,0.14528759765625,0.014713000485301017,-0.01492545820918167,-0.009138725750613957
1772795095900331800,0.155331787109375,0.02235211706161499,-0.01623259071841603,0.005536226012930274
1772795095910376000,0.1653759765625,0.044051323172450065,0.009020245903520845,-0.0011543394005857407
1772795095920420600,0.175420654296875,0.03736030110120773,0.01879029411090305,-0.004578066771570593
1772795095930464800,0.18546484375,0.0409258846282959,-0.006391655532177538,-0.0014989333208650349
1772795095940509000,0.195509033203125,0.020297522619366643,-0.003434878952661529,-0.004774959316849708
1772795095950553600,0.2055537109375,0.020314473754167554,0.002011821596312802,-0.007031250343658029
1772795095960597800,0.21559765625,0.027038229051232335,0.0030998908276553263,-0.004902275490947067
1772795095970642000,0.225641845703125,0.015224457138776779,0.0048181248884298835,-0.0026457104695029555
1772795095980685800,0.235685791015625,0.032712767556309696,-0.004351744919118937,0.002413253420498222
1772795095990730800,0.245730712890625,0.02238777289688587,0.0030408358504879288,0.01614535310966894
1772795096000774700,0.255774658203125,0.017608721926808357,0.000668601710256189,0.0005963584579527378
1772795096010818800,0.26581884765625,0.031523850032687185,0.005346498427377082,0.011053272401355207
1772795096020863700,0.27586376953125,0.027040567138791084,-0.00931735655341763,0.014549626617133616
1772795096030907600,0.28590771484375,-0.0009334814578294754,0.002924257982824929,0.0006441979213617742
1772795096040951800,0.295951904296875,0.01583002181649208,0.005202607861103024,0.007902827280107886
1772795096050995700,0.30599560546875,0.02540975106656551,0.01157696519860765,0.005657861364912241
1772795096061040600,0.31604052734375,0.037975218129158016,0.0054524361700168805,0.008183598716557026
1772795096071084800,0.326084716796875,0.02763327233493328,-0.005138949774054344,-0.0013298786305822432
1772795096081129000,0.33612890625,0.026885084316134452,-0.0035942753320327026,0.002892963228840381
1772795096091173600,0.346173583984375,0.026426819154620168,0.0030794439779594537,-0.006647073331661522
1772795096101217800,0.3562177734375,0.013995792126655578,-0.005120345538284164,0.017787074168398975
1772795096111262000,0.366261962890625,0.020432547175884247,0.008295703621790744,0.014128095003124326
1772795096121305600,0.3763056640625,0.02671557296812534,0.001011661260575056,-0.0006080671620555222
1772795096131350800,0.386350830078125,0.027312369817495345,-0.012941529266792349,0.004761990237422287
1772795096141395000,0.39639501953125,0.01997662010192871,0.000026255535974632947,0.0024780257523991166
1772795096151438600,0.4064384765625,0.019081717088818548,0.011238163981586695,0.0040576230940409
1772795096161483800,0.41648388671875,0.023120763346552848,0.00738769909851253,-0.00021263810368254778
1772795096171527700,0.426527587890625,0.007113046875596046,0.004840998873941135,0.001746131281275302
1772795096181571800,0.43657177734375,0.024161796832084654,-0.011397407380619552,-0.009437763496115803
1772795096191615700,0.44661572265625,0.03537818737328052,-0.012602575069433077,0.011957198971137404
1772795096201660700,0.45666064453125,0.0316366627573967,-0.004061068576585967,-0.002284311544895172
1772795096211704800,0.466704833984375,0.02430091304183006,-0.000030449937190860507,0.0009907828693278132
1772795096221748700,0.476748779296875,0.023399580287933347,0.002213502197852358,0.001568783686682582
1772795096231793700,0.486793701171875,0.016815525722503662,0.0067939938219496974,0.009423387910891324
1772795096241837800,0.496837890625,0.031181904727220534,0.004920950508664828,0.007684544886928052
1772795096251881700,0.5068818359375,0.015170096603035926,0.008085766648559365,-0.0004494790668599307
1772795096261925600,0.516925537109375,0.01712006162703037,-0.0019503372000413946,0.005861421112995594
1772795096271970800,0.526970703125,0.021004209583997725,0.011394719949900172,0.028000279016420243
1772795096282014700,0.5370146484375,0.009184007930755614,0.010256895575986708,-0.007566964655555784
1772795096292058600,0.54705859375,0.026241525715589523,-0.0007741809765808284,-0.009696414432302116
1772795096302103600,0.557103515625,0.016212299132347105,0.01578483553447295,-0.007065170879568905
1772795096312147700,0.567147705078125,0.015462357547879219,0.006121718300285283,0.008248444113694131
1772795096322191600,0.577191650390625,0.01681026502549648,-0.006059457585879136,-0.0060628254366107285
1772795096332235500,0.587235595703125,0.022498832055926322,-0.007535377640626392,-0.000576484713703394
1772795096342280700,0.59728076171875,0.02743453489243984,0.011271331032249145,-0.010727675442490725
1772795096352324600,0.60732470703125,0.02308569203317165,0.007731055476353503,-0.0022996187118813393
1772795096362368500,0.617368408203125,0.02129413244128227,0.011114816163131036,0.012448489619418978
1772795096372413700,0.62741357421875,0.026087211936712262,-0.0012505343506345524,-0.010015234590508043
1772795096382457600,0.63745751953125,0.015018120911717414,0.01074428636728553,-0.0023323336713947356
1772795096392501500,0.64750146484375,0.013070493975281714,-0.0020471075388253665,0.014846198410913348
1772795096402545700,0.657545654296875,0.035817747834324835,0.005841092994308564,-0.006989657957945018
1772795096412590600,0.667590576171875,0.018159926068782806,0.012461593412875662,0.008419197570718824
1772795096422634500,0.677634521484375,0.014722352835536003,-0.01584964211570332,0.012982176371011882
1772795096432678700,0.6876787109375,0.018313070803880692,-0.012067299148952588,0.00681583576099947
1772795096442723600,0.6977236328125,0.031028759992122647,0.003273354548285715,0.005713829335849732
1772795096452767500,0.707767578125,0.024748656809329986,0.00821561955632642,0.010359499717224389
1772795096462811600,0.717811767578125,0.019513094243407247,-0.010010106324241496,-0.00033856603829190133
1772795096472855600,0.72785546875,0.01651274338364601,-0.006134143957018386,-0.00793594409842044
1772795096482900700,0.737900634765625,0.01921148094832897,0.012513867022807244,-0.0056932980044744905
1772795096492944600,0.747944580078125,0.025792612904310223,0.016553000045509542,0.00283341506132856
1772795096502988500,0.757988525390625,0.016811434069275856,-0.008208121236460282,0.0025711656622588635
1772795096513033700,0.76803369140625,0.03177285635769367,-0.002272134766622912,0.007093173131346702
1772795096523077600,0.77807763671875,0.03865443256497383,0.011239198311336804,-0.0027359643025323746
1772795096533121500,0.78812158203125,0.02533493226468563,-0.005744877494662068,-0.026931736469455063
1772795096543165700,0.798165771484375,0.022342180189490315,-0.014907239849190226,-0.01910785617707297
1772795096553210600,0.808210693359375,0.025336101308465003,0.004298231483460404,-0.007666534306202084
1772795096563254500,0.818254638671875,0.022794015610218047,0.0029428256859770044,0.003637351855356246
1772795096573298700,0.828298583984375,0.02369008766710758,-0.002303381571546197,-0.017447686146199702
1772795096583343600,0.838343505859375,0.01082242278754711,-0.00539346339124022,-0.007184121084120124
1772795096593387500,0.848387451171875,0.016804419806599614,-0.0036039404928102157,0.017613580765016377
1772795096603431700,0.858431640625,0.009622399348020554,0.003472493849578313,0.019553791579976675
1772795096613475600,0.8684755859375,0.024740473502874373,0.0038555680331657637,-0.00755322839114815
1772795096623520500,0.8785205078125,0.03327332404851913,0.007908836895786225,-0.008101582988910377
1772795096633564700,0.888564697265625,0.016816694766283034,0.0050103595249005595,0.0016683898699469863
1772795096643608600,0.898608642578125,0.01936053403019905,-0.0016348620596807449,0.017973755846917627
1772795096653653500,0.908653564453125,0.02160918973982334,-0.010666846350056585,0.008593147631827742
1772795096663697700,0.91869775390625,0.014126725029945372,0.0009783937452128156,-0.008635123610030859
1772795096673741600,0.928741455078125,0.01382277364730835,0.004759410121268593,-0.009938223831541835
1772795096683785700,0.93878564453125,0.014862053567171097,-0.0013464233400067313,0.0005606295574456453
1772795096693830700,0.94883056640625,0.016508651730418204,0.0029562742560170587,-0.00813488247031346
1772795096703874600,0.95887451171875,0.014565116447210312,0.004984978488471825,0.0037904783241450783
1772795096713918700,0.968918701171875,0.006933014133572578,-0.001809487974224612,0.004664521212317049
1772795096723963400,0.97896337890625,0.01860240913927555,-0.0020858960460987874,0.0039006972329691052
1772795096734007600,0.989007568359375,0.024136077868938444,0.0015077856308897024,0.006015333033073693
1772795096744051700,0.9990517578125,0.026381226447224616,-0.0011907715539913623,0.007679978309664875
1772795096754095600,1.009095703125,0.010969137781858443,0.008055535907077136,-0.008430467883404343
1772795096764140500,1.019140625,0.026083120283484456,0.012382084736146498,-0.014381941900029777
1772795096774184700,1.029184814453125,0.01920095955431461,-0.0017190354950842447,-0.006235515122395009
1772795096784228600,1.039228515625,0.01740413926541805,0.0054940011562663125,-0.010065357342548667
1772795096794273500,1.0492734375,0.015007014995813368,-0.003015066654991824,0.0068407510065473616
1772795096804317700,1.059317626953125,0.018148235630989072,-0.003629627489915583,0.009023867199290544
1772795096814361600,1.069361572265625,0.00497837293446064,-0.010409937563096173,0.0032473478907719252
1772795096824406500,1.079406494140625,0.021288287222385405,0.008431088937912137,-0.010258834088034928
1772795096834450700,1.08945068359375,0.016653613159060478,0.006336100836482364,0.006864186681061982
1772795096844494600,1.09949462890625,0.03267068198025226,0.006016369646112434,-0.008843450864776968
1772795096854538800,1.109538818359375,0.037010757011175156,-0.011736158365290612,-0.001896810064651072
1772795096864583400,1.11958349609375,0.03177519444525242,0.0062526831696159205,-0.00970366615699604
1772795096874627600,1.129627685546875,0.03326689430773258,0.01392042076892685,-0.008439527972694486
1772795096884671700,1.139671630859375,0.007525134807825088,-0.011588806333451065,0.0022566746192984283
1772795096894716400,1.14971630859375,0.02802373295724392,-0.0015872189590940252,-0.00634259222606197
1772795096904760600,1.159760498046875,0.01964461166858673,-0.011465307817945723,-0.00899157236488536
1772795096914804700,1.1698046875,0.017249825486540794,0.0069909639990422875,-0.009514792521391063
1772795096924848600,1.1798486328125,0.01934475193917751,0.018111049992335027,0.009332403425499796
1772795096934893600,1.1898935546875,0.023682488882541656,0.013475540245370938,-0.017072496158257126
1772795096944937700,1.199937744140625,0.03011632132232189,0.008755197192588821,-0.008262436106428503
1772795096954981600,1.209981689453125,0.03101823859810829,-0.006028500758612062,0.008566040429193527
1772795096965026600,1.220026611328125,0.021742460730671882,-0.005000742313184309,0.007162859100382775
1772795096975070700,1.23007080078125,0.006481178712844848,-0.006347793557564728,0.00828435567729175
1772795096985114600,1.240114501953125,0.026833646389842033,-0.006327417489816434,0.004955704444926232
1772795096995158800,1.25015869140625,0.026535540226101873,0.007809993330924771,-0.004409286075923591
1772795097005203700,1.26020361328125,0.017706921604275703,-0.016283103912812655,0.016393902776949108
1772795097015247600,1.27024755859375,0.02025368347764015,-0.008170312260009813,-0.008462744451500475
1772795097025291800,1.280291748046875,0.02489011110663414,-0.0019189990635728462,-0.02055935189332813
1772795097035336400,1.29033642578125,0.010224456894397735,0.008408977570803836,-0.001043188910000026
1772795097045380600,1.300380615234375,0.028478490987420082,-0.0010318181326147168,-0.006532342644501477
1772795097055424800,1.3104248046875,0.02593348267972469,-0.000774843130283989,0.006602558336500078
1772795097065468700,1.32046875,0.0036392332851886747,-0.0022002362909028304,0.009071158673427998
1772795097075513600,1.330513671875,0.01725683974921703,-0.007055423520400654,0.002687759512942284
1772795097085557800,1.340557861328125,0.031169629767537115,-0.009509358294447883,0.001883274729643017
1772795097095601700,1.3506015625,0.021744214296340943,-0.0023823468255810437,-0.011470876758918166
1772795097105646600,1.360646484375,0.02055120511949062,-0.01717099494653521,-0.00016894509242847562
1772795097115690800,1.370690673828125,0.012021277183294295,-0.010346930213307496,0.017001020090933888
1772795097125734700,1.380734619140625,0.03237549842596054,-0.01142154402474407,-0.0021191475784406067
1772795097135778600,1.390778564453125,0.028483167162537574,0.015967471225536427,-0.01824941271683201
1772795097145823700,1.40082373046875,0.00289221431016922,0.004551413943374064,0.008693356603290885
1772795097155867600,1.41086767578125,0.013515315133333206,0.01090029891290469,0.0004019318643957376
1772795097165911600,1.42091162109375,0.01905073742866516,0.005754307476710528,0.015447963696345686
1772795097175956700,1.430956787109375,0.02982522942125797,0.004900832452531903,0.002310633296240121
1772795097186000600,1.441000732421875,0.03491407699286937,-0.0030415893357363527,-0.006103267044853419
1772795097196044800,1.451044921875,0.01934825907051563,-0.0007574992698384448,-0.004654511274956166
1772795097206088400,1.46108837890625,0.030869770038127898,0.008971595872647594,0.004619823554065078
1772795097216133600,1.471133544921875,0.028326515296101567,-0.006652936816867441,0.013931914843898266
1772795097226177800,1.481177734375,0.026830723780393598,0.010069501511415,-0.00175948395319283
1772795097236221400,1.491221435546875,0.02114507935941219,-0.00977028566939989,-0.0077327862091362476
1772795097246266600,1.5012666015625,0.014559855750203132,-0.0060118373181787315,0.00117735494999215
1772795097256310800,1.511310791015625,0.023537527453899382,-0.01065060760130873,0.0014219956271350382
1772795097266354700,1.521354736328125,0.01575637205839157,0.00497443426157115,-0.005143372504133731
1772795097276398600,1.531398681640625,0.017552023303508756,0.010950133970577735,0.0014415953767485917
1772795097286443800,1.54144384765625,0.009620061260461806,-0.0017623312141164206,0.004532200069539249
1772795097296487700,1.55148779296875,0.019043138644099233,-0.017348109645687507,-0.009743322313949466
1772795097306530600,1.561530517578125,0.02682663212716579,-0.003167496720748022,0.012206461024470627
1772795097316575500,1.571575439453125,0.029965514674782753,-0.005966671585757285,-0.002786068788263947
1772795097326619600,1.58161962890625,0.019039631512761116,0.0037493403128697534,-0.03283177255978808
1772795097336663600,1.59166357421875,0.02397942600250244,0.007092086285958066,-0.0077629256190732115
1772795097346707500,1.60170751953125,0.026074936977028847,0.009563506484345998,0.002582161980308592
1772795097356752600,1.611752685546875,0.03490180203318596,0.004948112510226201,-0.00889713554708287
1772795097366796500,1.621796630859375,0.01664601437449455,-0.0023137865178403444,-0.018344233127124607
1772795097376840700,1.6318408203125,0.03325812647938728,-0.011933893444074783,-0.010556337463576346
1772795097386885600,1.6418857421875,0.030113398712873458,-0.0023984691266086882,-0.012177874250803142
1772795097396929500,1.651929443359375,0.01709317362010479,0.013364453686866909,0.0045980318473652
1772795097406973700,1.6619736328125,0.006768763482570648,-0.0035691842732601797,0.007048457206785678
1772795097417017300,1.672017333984375,0.006621463966369629,-0.00587721462046029,-0.004977276955917477
1772795097427062500,1.6820625,0.01949088241159916,0.0005558871669578366,0.00042717590350657697
1772795097437106700,1.692106689453125,0.010962123519182205,0.0009093767797457985,-0.004911426911782473
1772795097447150600,1.702150634765625,0.012760697373747824,-0.0034272071028593927,-0.005639905583113431
1772795097457195500,1.712195556640625,0.0420890831887722,-0.0018258431706926785,-0.019000322415679692
1772795097467239700,1.72223974609375,0.02622983527779579,-0.0044090280643082225,-0.012301445831544697
1772795097477283600,1.73228369140625,0.016202362260222435,0.004529928197350819,-0.0049295470903627575
1772795097487327500,1.742327392578125,0.020837620845437048,0.002276582612877246,-0.0027542854105122388
1772795097497372700,1.75237255859375,0.021734861946105955,0.018462968702544456,0.0008593567756935953
1772795097507416600,1.76241650390625,0.026671733826398848,-0.00836996758453315,0.007214644086547196
1772795097517460500,1.77246044921875,0.03280570653676986,0.013262596181011757,0.011192479942645876
1772795097527505700,1.782505615234375,0.01694528958201408,0.004791581658087671,-0.0032506175600923596
1772795097537549600,1.792549560546875,0.023829788398742675,0.0015129298801766708,-0.0006146065006963908
1772795097547593500,1.802593505859375,0.03744856390655041,-0.005993685173557605,0.005644727888703346
1772795097557637400,1.812637451171875,0.018595979398488997,0.007518090862396638,0.014849157552979886
1772795097567682600,1.8226826171875,0.0259288065046072,0.002002583410509396,0.007677950749360025
1772795097577726700,1.832726806640625,0.017698153775930404,0.008838658241939265,0.0025150515608489514
1772795097587770400,1.842770263671875,0.031163200026750562,0.002534477780526504,0.0020942505992017687
1772795097597815600,1.852815673828125,0.022932547298073768,0.0007568530991557054,0.011309274722728878
1772795097607859700,1.862859619140625,0.018293197059631346,0.004632020881935022,0.000655066375248134
1772795097617903400,1.8729033203125,0.019041969600319862,0.0029107180812396106,0.000999879491236061
1772795097627947500,1.882947509765625,0.024428923335671423,-0.0040739942735293876,-0.007251742960233241
1772795097637992700,1.89299267578125,0.015894319224357602,-0.0035851764268358234,0.0026301841068081555
1772795097648036400,1.903036376953125,0.015593290451169013,-0.0067085052122944034,-0.022889858933817595
1772795097658080500,1.91308056640625,0.011405191111564636,-0.01025416476278333,-0.021603271455690264
1772795097668125700,1.923125732421875,0.018738018217682836,0.0032695551560027523,-0.011091631650365889
1772795097678169600,1.933169677734375,0.024426585248112677,0.0013123589569120667,0.008496865916810929
1772795097688213500,1.943213623046875,0.02712298472523689,0.00910859547383152,0.000569835777208209
1772795097698257400,1.95325732421875,0.03610124095082283,-0.0009944041650975122,-0.0188960765899159
1772795097708302600,1.963302490234375,0.011562427499890327,0.0026735209250357,-0.005920951014198363
1772795097718346500,1.973346435546875,0.03221066325306892,0.009349037183180916,-0.008883088755421339
1772795097728390400,1.983390380859375,0.019642273581027984,0.00615144443497993,-0.007904471247922628
1772795097738435600,1.993435546875,0.023388474372029303,-0.0056788219545502215,-0.013434724177792668
1772795097748479500,2.0034794921875,0.02548690795600414,-0.00002749536170158535,-0.011731445657555014
1772795097758523400,2.0135234375,0.014864976176619528,-0.009354925784561782,-0.003965122504997998
1772795097768567600,2.023567626953125,0.026835399955511093,-0.0009116509352228604,0.00032598055135458706
1772795097778612700,2.03361279296875,0.030879706910252568,-0.002285763716464862,-0.0034748547700233757
1772795097788656400,2.043656494140625,0.02444704351425171,0.01209686088686576,-0.003231401402968913
1772795097798700500,2.053700439453125,0.01232347500026226,-0.004116374393820297,-0.0018965360700152814
1772795097808745700,2.063745849609375,0.024441782817244528,-0.003383411343616899,-0.0023019750657491383
1772795097818789400,2.073789306640625,0.02908230209946632,-0.007120636527007445,0.012147515645157545
1772795097828833500,2.08383349609375,0.025193477967381476,-0.0068845969981397494,0.004025638786889612
1772795097838877400,2.09387744140625,0.02833528312444687,-0.0013790058687794954,0.004133665738627315
1772795097848922400,2.10392236328125,0.011427402943372725,0.00019470972134731708,-0.0029726774015463885
1772795097858966500,2.113966552734375,0.015170096603035926,-0.0016396934984251857,0.01029949489198625
1772795097869010400,2.124010498046875,0.01965980923771858,0.002165395589673426,0.01139178364071995
1772795097879055600,2.1340556640625,0.032978140494227405,0.003943874220992438,0.005596084707695991
1772795097889099500,2.144099609375,0.025346038180589673,-0.0009048764178529381,0.004397960964310914
1772795097899143400,2.154143310546875,0.018909867653250693,-0.0029431750291376373,-0.0012512604364193975
1772795097909187600,2.1641875,0.025792028382420538,0.011743814232072327,-0.007468874575942754
1772795097919232500,2.174232421875,0.020702011767029762,-0.013541383439640049,0.020399887015298008
1772795097929276400,2.1842763671875,0.030129180803894994,-0.011278653538890649,-0.009385868912097067
1772795097939320600,2.194320556640625,0.02893207997381687,0.015456601377238983,-0.00626651304885745
1772795097949365500,2.204365478515625,0.030875030735135076,-0.001221210074739065,0.001236756987031549
1772795097959409400,2.214409423828125,0.023238836768269537,0.005148281574691645,-0.008761891794856638
1772795097969453600,2.22445361328125,0.01276478902697563,0.001762034386594314,0.0036703408095054325
1772795097979497500,2.23449755859375,0.015755787536501885,-0.008387930216197855,0.004948544051777571
1772795097989542400,2.24454248046875,0.03161678901314735,-0.007648192648624535,0.005057082460168749
1772795097999586600,2.254586669921875,0.02502981183826923,0.007636063819413539,0.001923807669430971
1772795098009630500,2.26463037109375,0.023981764090061187,0.0007709912223624997,-0.015307550578657536
1772795098019675400,2.27467529296875,0.006473579928278923,0.00700285764952423,-0.007372227534744888
1772795098029719600,2.284719482421875,0.023531682235002516,0.00724527212025132,-0.01024690618822351
1772795098039763500,2.294763427734375,0.01919452981352806,0.004853876621823292,-0.007727836039382964
1772795098049807600,2.3048076171875,0.010514964273571967,0.011650950600137003,-0.00327195260906592
1772795098059852500,2.3148525390625,0.01979015761911869,0.010206843605893664,-0.009826360954903066
1772795098069896400,2.324896484375,0.012757774764299392,0.0026111209300230254,0.004262187489122152
1772795098079940600,2.334940673828125,0.022633856612443923,0.00040647332548396657,0.004434164788853377
1772795098089985500,2.344985595703125,0.03310848887562751,0.005093185820011422,0.013689283460751175
1772795098100029400,2.355029541015625,0.003181552645564079,-0.017696228963613975,0.0006587744359858334
1772795098110073600,2.365073486328125,0.01799801350533962,-0.005272734504844993,-0.004784293400775641
1772795098120117500,2.375117431640625,0.01545534328520298,-0.005679449858923908,-0.007108096705842763
1772795098130162400,2.385162353515625,0.021740707165002822,-0.003985146946297027,-0.0024397213023155924
1772795098140206600,2.39520654296875,0.02622983527779579,0.008690098350413608,-0.00017930208966135977
1772795098150250500,2.40525048828125,0.023235329636931416,0.009871834931289777,-0.007774835252575576
1772795098160295400,2.41529541015625,0.016800912675261497,0.003795647689606994,0.0137846335940063
1772795098170339600,2.425339599609375,0.019193945291638374,0.0020806262159370815,0.015204108470492065
1772795098180383500,2.435383544921875,0.012011340311169624,0.013907011014793533,0.005613218505587428
1772795098190427600,2.445427734375,0.02143792482614517,0.0018216624692082403,0.0024587913289666175
1772795098200472600,2.45547265625,0.027425767064094542,0.004044322937761899,-0.003255165871046483
1772795098210516500,2.4655166015625,0.0247305366307497,0.012984480209241155,-0.01099578832676634
1772795098220560600,2.475560546875,0.02802314843535423,0.0010137048039003274,-0.01054070150302723
1772795098230605600,2.48560546875,0.025931144592165944,0.010820950066379736,0.00442757065128535
1772795098240649500,2.4956494140625,0.026530279529094696,-0.004469838890433312,-0.022486009106971322
1772795098250693600,2.505693603515625,0.03191723326444626,-0.007189671758783515,-0.01020451008491218
1772795098260737500,2.515737548828125,0.032516368201375004,-0.001673381138895638,-0.01707253269087523
1772795098270782500,2.525782470703125,0.021741291686892508,-0.003737921586423181,-0.0020465755325742067
1772795098280826600,2.53582666015625,0.009918167424201966,0.0013218962535262108,0.020327150572650134
1772795098290870500,2.54587060546875,0.016804419806599614,-0.01233123818160966,-0.0051017253194935615
1772795098300915500,2.55591552734375,0.017555530434846877,0.00235713931908831,-0.005688859291374683
1772795098310960000,2.565960205078125,0.02159574573636055,-0.010863531116070226,-0.01214545155223459
1772795098321004000,2.576004150390625,0.015761048233509063,0.0014798632942140102,-0.0005319149196147918
1772795098331048000,2.5860478515625,0.023244097465276718,0.0013936965478351339,0.007135879761911928
1772795098341093000,2.596093017578125,0.0218985280752182,-0.0012697413746034726,-0.008064849441405385
1772795098351137300,2.60613720703125,0.02309504438340664,-0.006143596771953161,0.00808905230090022
1772795098361181000,2.616180908203125,0.024441198295354842,0.004896380039700307,-0.002879774953704327
1772795098371226000,2.62622607421875,0.022194880673289296,0.009596392690506763,-0.000283584448043257
1772795098381270300,2.636270263671875,0.01501344473659992,0.007863253321545197,0.007537866425234824
1772795098391314000,2.64631396484375,0.008131868529319762,0.002338379819691181,-0.009425068411324173
1772795098401359000,2.656359130859375,0.021598083823919294,0.001483018799102865,0.00639498000042513
1772795098411403300,2.6664033203125,0.02354278815090656,-0.0012524842791259289,-0.017584939192421732
1772795098421447000,2.676447021484375,0.02040273655951023,0.006449084807839244,-0.022539346729405222
1772795098431491000,2.686490966796875,0.03207388513088226,-0.005597865672828629,0.0005968881809152662
1772795098441536300,2.696536376953125,0.028331191471219062,-0.01161825390693266,0.0066371181932277975
1772795098451580200,2.706580078125,0.015014613780379294,-0.010594765211245976,0.006392276586685329
1772795098461624000,2.7166240234375,0.014863807132840155,0.01545636619850993,0.00827213551653549
1772795098471669200,2.726669189453125,0.019053660038113592,-0.008257517902716062,-0.004716452328953891
1772795098481713200,2.736713134765625,0.022044658547639845,0.006447870098287239,-0.005108757848478853
1772795098491757000,2.746757080078125,0.02039922942817211,0.01660512295839144,-0.0068806994244456285
1772795098501801000,2.756801025390625,0.03162438779771328,0.01258700989083154,-0.0004444740981794894
1772795098511846100,2.76684619140625,0.01770750612616539,-0.0030820651933085173,0.004607238067127764
1772795098521890000,2.77689013671875,0.023093875339627264,0.0030957557919435203,0.005449442778620869
1772795098531934000,2.786933837890625,0.02234334923326969,0.0065347400975646446,-0.011428955579642205
1772795098541979100,2.796979248046875,0.020098785176873205,0.011535165033629164,-0.020242504496499895
1772795098552023300,2.807023193359375,0.018454525101184845,-0.0023750836844439616,0.007889547673426568
1772795098562067000,2.81706689453125,0.029978958678245543,-0.008852143344597425,0.012942447148822247
1772795098572111000,2.827111083984375,0.018905776000022887,-0.0013419480942888184,-0.004730572185851633
1772795098582156300,2.83715625,0.014418985974788665,0.013787257092643994,-0.005500204851478338
1772795098592200000,2.847199951171875,0.031027590948343276,0.011303899861290118,-0.0069078066270798445
1772795098602244000,2.857244140625,0.017410569006204604,0.0060110313172917805,0.002215959016419947
1772795098612289300,2.867289306640625,0.0286345583319664,0.007512610969680826,-0.0046226730982773
1772795098622333000,2.8773330078125,0.0172626849681139,0.010939455029647797,-0.004281549776718021
1772795098632377000,2.887377197265625,0.012923778980970382,-0.0023144441049662416,-0.005724843920208513
1772795098642421000,2.8974208984375,0.01636544386744499,0.0035334051404031924,0.008632438462600112
1772795098652466200,2.907466064453125,0.022501754665374754,-0.00586940805662889,0.0007429638544097542
1772795098662510000,2.917510009765625,0.019657471150159835,0.002011711998458486,-0.004119947740528733
1772795098672554000,2.927553955078125,0.021754151168465612,-0.005433822801092174,-0.0006019844811409711
1772795098682599200,2.93759912109375,0.02773965531885624,-0.0036710098130744878,-0.002524367378465831
1772795098692643000,2.94764306640625,0.031031098079681393,-0.00032946941638365383,-0.013926800277363508
1772795098702687000,2.95768701171875,0.02893558710515499,0.008221014967362862,0.013143814939819276
1772795098712731100,2.967731201171875,0.023398411244153976,0.010739964101905934,0.006667403733637184
1772795098722776000,2.977776123046875,0.014869652351737022,-0.009887897866813,0.0028170301821082828
1772795098732820000,2.987820068359375,0.02818798360824585,-0.00008196549529675393,-0.014955595335830001
1772795098742864100,2.997864013671875,0.02594225050806999,0.0010069987851893528,-0.0014149448318406938
1772795098752909000,3.007908935546875,0.01621522174179554,-0.006354054334992543,-0.0165339505684562
1772795098762953000,3.017952880859375,0.01067863040268421,0.0004107522083795629,-0.0017243030419573186
1772795098772997000,3.0279970703125,0.026540216401219365,0.013925003329210449,0.005470357702486217
1772795098783041000,3.038041015625,0.031924247527122494,0.006846673857257701,0.002159424789901823
1772795098793086000,3.0480859375,0.018456278666853905,0.002834638904035091,-0.0007350362762808799
1772795098803130000,3.058130126953125,0.03072539313137531,0.015117909758072345,-0.012599917321465908
1772795098813174000,3.068174072265625,0.029528876823186872,-0.0054046309559373186,0.002545903356838971
1772795098823219000,3.078218994140625,0.008877133938670158,0.0030608443087665363,-0.005315203673392534
1772795098833263000,3.08826318359375,0.022646131572127342,0.005066640306380577,0.0015313742857426403
1772795098843307000,3.09830712890625,0.018455694144964216,0.01189478527639294,-0.004023720824439078
1772795098853351200,3.10835107421875,0.026086627414822577,0.0032881639583501963,-0.010803279695659876
1772795098863396000,3.11839599609375,0.012167992177605629,-0.0031439605815336107,-0.0016411913357675075
1772795098873440000,3.12843994140625,0.018153496327996253,0.003932551392668392,-0.004199424451217055
1772795098883484200,3.138484130859375,0.03296878814399242,-0.006163874658290296,-0.0011437266750261186
1772795098893529000,3.148529052734375,0.014266425761580466,-0.007659823720913846,0.0001683057716116309
1772795098903573000,3.158572998046875,0.026386487144231793,-0.00463031983190449,-0.003456131803244352
1772795098913617200,3.1686171875,0.009776128605008125,0.009004141868802253,0.006663312080409377
1772795098923661000,3.1786611328125,0.016658873856067655,-0.00455838254027767,0.0026023645181208845
1772795098933706000,3.1887060546875,0.033716391640901566,-0.004636824921215884,-0.0052347040493972595
1772795098943750100,3.198750244140625,0.03655950611233711,0.016901918514457066,-0.002515489952266216
1772795098953794000,3.2087939453125,0.02952595421373844,0.000673348667321261,-0.005278890250995755
1772795098963839000,3.2188388671875,0.032815643408894535,-0.0017443662991630843,-0.0031259500008076428
1772795098973883100,3.228883056640625,0.015308628290891647,-0.012767570072528905,-0.012079985100589693
1772795098983927000,3.238927001953125,0.019648703321814537,-0.009440081034076866,0.0021676446289755403
1772795098993971200,3.24897119140625,0.011716156756877899,0.008714177912322338,0.004646583696827292
1772795099004016000,3.25901611328125,0.017703414472937582,0.01639389364379458,-0.004686952239833772
1772795099014060000,3.26906005859375,0.028927988320589064,0.009414508201403077,0.007117850914876908
1772795099024104200,3.279104248046875,0.01860416270494461,-0.005210935014742426,0.0008765819051302969
1772795099034149000,3.289149169921875,0.02249357135891914,0.003320205347717274,-0.007113174739759415
1772795099044193000,3.299193115234375,0.035512627407908434,0.01076248646096792,-0.0009587620295584201
1772795099054237200,3.3092373046875,0.019952070182561874,0.006304582320211921,-0.0038681284039281307
1772795099064282000,3.3192822265625,0.026685762351751324,0.0021197184005985036,-0.0060020168937742705
1772795099074326000,3.329325927734375,0.02219604971706867,0.007541220576234627,0.0029615532193332907
1772795099084370200,3.3393701171875,0.02159925286769867,-0.005227781118266284,-0.012798051975760609
1772795099094414000,3.3494140625,0.02309972055852413,-0.004836779356549959,0.013010909275151788
1772795099104459000,3.359458984375,0.015921791753172872,-0.0014407414268003775,0.0053378904292359945
1772795099114503200,3.369503173828125,0.021607436174154282,0.0013921621778747067,-0.0033508082652464505
1772795099124547000,3.379547119140625,0.02235387062728405,0.0016169268274796194,-0.00792850971063599
1772795099134592000,3.389592041015625,0.02070610342025757,0.0027395810317248103,0.0031965492852963507
1772795099144636200,3.39963623046875,0.039709494575858116,0.000290948053880129,-0.009115545804426074
1772795099154680000,3.40968017578125,0.03611819208562374,0.0074800946562783785,-0.0001413812320679426
1772795099164724200,3.41972412109375,0.01367196699976921,-0.0013924453056650236,-0.006161554837040603
1772795099174769200,3.42976904296875,0.01935878046452999,-0.0003059492601896636,-0.007628065459337085
1772795099184813000,3.43981298828125,0.015469371810555457,0.002953406445495784,-0.02520425508972257
1772795099194857200,3.449857177734375,0.02295125199854374,0.006241574970423243,-0.01590982732074335
1772795099204902100,3.459902099609375,0.02654430805444717,0.006435238945577293,0.00602327887751162
1772795099214946000,3.469946044921875,0.015620762979984283,-0.0014134652608074247,0.0010795023323968052
1772795099224990200,3.479990234375,0.024900632500648497,0.009955227481981273,-0.0020833273463882504
1772795099235034000,3.4900341796875,0.010836451312899589,-0.0022625609373906628,-0.0014399879415519534
1772795099245079000,3.5000791015625,0.024753332984447478,-0.0025649756667786277,0.011030713509675114
1772795099255123200,3.510123291015625,0.01547404798567295,0.00937487487733597,-0.008549071028083562
1772795099265167000,3.5201669921875,0.019068857607245443,-0.00010129125027451664,0.0004431223913095891
1772795099275212000,3.5302119140625,0.023411855247616766,-0.006397879776987247,-0.004189925970509648
1772795099285256200,3.540256103515625,0.022961773392558095,0.0023143504901323468,-0.002763254168257117
1772795099295300000,3.550300048828125,0.034334231278300285,-0.008490344844479114,-0.00888707081079483
1772795099305344000,3.560343994140625,0.02610533211529255,-0.0002333977639209479,-0.006303063933271914
1772795099315389000,3.570388916015625,0.02939969748556614,0.004033867759117856,-0.006764891025051474
1772795099325433000,3.58043310546875,0.018178046247363088,-0.0008890966101200319,-0.012066321901418268
1772795099335477000,3.59047705078125,0.018627543580532074,-0.0004463212786824442,-0.011902400043979286
1772795099345522000,3.60052197265625,0.00665536623597145,0.007325052508327644,-0.0035775844921357926
1772795099355566000,3.610566162109375,0.01099544126689434,0.0051845173652749505,-0.0007117101996205747
1772795099365610000,3.62060986328125,0.019823475366830826,0.010614570456836373,-0.004328092332184314
1772795099375654000,3.63065380859375,0.02206803942322731,0.000703606808267068,0.001978113406244665
1772795099385699000,3.640698974609375,0.01892564974427223,-0.0013672400824609212,0.0070745414961129426
1772795099395743000,3.650742919921875,0.013690087178349495,0.0002482619729125872,0.0026943171178922054
1772795099405787000,3.660786865234375,0.029402035573124884,0.0072180827192263675,0.0017846549270674585
1772795099415832000,3.67083203125,0.02745557768046856,0.011687063093134201,0.003389459775201976
1772795099425876000,3.6808759765625,0.028052959051728246,-0.0007704089837614447,0.011706128553207963
1772795099435920100,3.690920166015625,0.036733693635463714,0.010298727707006036,-0.007787365940585732
1772795099445965000,3.700965087890625,0.020574585995078085,0.007246671776182483,-0.011543923728819936
1772795099456009000,3.711009033203125,0.02925707414448261,0.005080298938974738,-0.009139456402976065
1772795099466053000,3.72105322265625,0.03674012337625027,-0.002992665310227312,0.0009488251574337482
1772795099476096800,3.7310966796875,0.019532383465766905,-0.006691200167755596,-0.0241310363676399
1772795099486142000,3.741141845703125,0.005768062007427215,-0.011733363620005547,0.004877104517072439
1772795099496186000,3.75118603515625,-0.00021685762107372282,0.008838968769193161,-0.007650222492218017
1772795099506229800,3.761229736328125,0.015194062000513075,0.011044659836636855,-0.009706442635972052
1772795099516275000,3.77127490234375,0.020433131697773933,0.008407623580645304,0.00011398176848888397
1772795099526319000,3.781319091796875,0.013249942195415495,0.001606754776625894,0.008906159103754908
1772795099536363000,3.791363037109375,0.023874796584248542,0.008733565316093154,0.00864093229630962
1772795099546407000,3.801406982421875,0.01729191106259823,0.002667456510430202,0.0017021460090763866
1772795099556452000,3.8114521484375,0.02043546978533268,-0.0015120827800943516,0.01731912786308676
1772795099566496000,3.82149609375,0.021330957320332525,-0.0030335224770009516,-0.00012512421701103447
1772795099576540000,3.831539794921875,0.03255494664609432,-0.005273490273382048,-0.014712379430793225
1772795099586585000,3.841585205078125,0.01729132654070854,-0.00027347176269395276,-0.008322934122011065
1772795099596629000,3.85162890625,0.01759060174822807,-0.0056931975397747,0.00032912235651165245
1772795099606673000,3.8616728515625,0.027615736678242683,-0.017585299952025523,-0.0044572168708778915
1772795099616717000,3.871717041015625,0.024473346999287604,-0.0054508903836132955,0.014545352300815283
1772795099626762000,3.881761962890625,0.03539455398619175,0.001199500566429924,-0.0002398914367891848
1772795099636806000,3.891805908203125,0.019383330383896828,0.007030396393709816,-0.002630366769898683
1772795099646849800,3.901849853515625,0.022079145339131353,0.0010579480877146124,-0.00025280571728944777
1772795099656895000,3.91189501953125,0.022981062614917752,0.0004474309569573961,0.00030042598498985167
1772795099666939100,3.921939208984375,0.018043606212735173,-0.0002529495644732378,-0.012089392249751835
1772795099676982800,3.931982666015625,0.02432838557064533,-0.0015979892315692266,0.0020157968018203972
1772795099687027000,3.94202685546875,0.016247954967617988,0.0010203263409319333,0.020880071747675536
1772795099697072000,3.952072021484375,0.016847674426436424,-0.0008738670749473386,0.0037453422744758427
1772795099707115800,3.96211572265625,0.03704933545589447,-0.008537298391899093,0.004078136159107089
1772795099717160000,3.972159912109375,0.02358253563940525,-0.00011613947624573483,0.007246390931680798
1772795099727205000,3.982205078125,0.025378771406412124,-0.011556943040597251,-0.006615637013781816
1772795099737249000,3.9922490234375,0.017599369576573373,-0.008794666119874454,0.007241349430382251
1772795099747293000,4.00229296875,0.03331131797134876,-0.0023848264770349485,-0.0008130516822449863
1772795099757338000,4.012338134765625,0.025979075387120246,0.0032942786053055894,-0.003489486083574593
1772795099767382000,4.022382080078125,0.030468203499913214,0.002067022382270079,-0.003200567873287946
1772795099777426000,4.032426025390625,0.02164016939997673,-0.003457972133881412,-0.00703483054023236
1772795099787470000,4.042469970703125,0.011015315011143684,-0.000737769372772891,-0.0036454803628847
1772795099797515000,4.052514892578125,0.023283844953775404,-0.00237503801867133,-0.010939455029647797
1772795099807559000,4.062558837890625,0.02717325360774994,0.0036485787855577655,-0.01279839903563261
1772795099817602800,4.072602783203125,0.026724925318360328,-0.0069830889365519394,0.0016154175736941396
1772795099827648000,4.08264794921875,0.028967151287198064,0.000015453297458589077,0.014835037696082144
1772795099837692000,4.09269189453125,0.034952070915699004,-0.007946417543373536,-0.0012023797933943569
1772795099847735800,4.10273583984375,0.011907295414805412,0.002271136969490908,-0.010533742039278149
1772795099857780000,4.112780029296875,0.011759995898604393,0.011081425350182689,0.0006934804231859743
1772795099867825200,4.1228251953125,0.021038696375489233,0.02010344536897028,0.0016361498344689607
1772795099877868800,4.132868896484375,0.01984159554541111,0.006270285041676833,-0.0090158117569983
1772795099887913000,4.142912841796875,0.01714578059017658,-0.000948016873258166,0.013311828450486063
1772795099897958100,4.152958251953125,0.01924246060848236,-0.0011187931631691753,0.0035579116772860284
1772795099908001800,4.163001708984375,0.03705050449967384,-0.010380544788541737,-0.006693323626182973
1772795099918046000,4.1730458984375,0.03256079186499119,0.003838272121781483,-0.00013873261725530028
1772795099928090000,4.183090087890625,0.017146949633955955,0.017945290087547618,0.004455956495553255
1772795099938134800,4.193134765625,0.025376433318853378,0.013107366803393233,0.004245181555394083
1772795099948179000,4.203178955078125,0.023429975426197052,0.022398214375798125,-0.0010463855140842497
1772795099958223000,4.21322314453125,0.023131869262456892,0.001585273597179912,-0.002489844054356217
1772795099968268000,4.22326806640625,0.02073649855852127,-0.002557166819658596,0.014205270158872008
1772795099978312000,4.23331201171875,0.019987141495943068,0.0019040024238405747,0.01475042815255001
1772795099988355800,4.24335595703125,0.018042437168955802,0.009977010055526625,0.005214391913730651
1772795099998400000,4.25339990234375,0.012355623704195021,-0.00028885199491633103,-0.004072930261027068
1772795100008445000,4.26344482421875,0.027021277916431427,-0.00876078896644758,0.009028488575480878
1772795100018488800,4.27348876953125,0.01594634167253971,-0.006286943915532902,0.014141064082551747
1772795100028533000,4.283532958984375,0.008313654837012291,-0.0034273509500431826,0.006906783713772893
1772795100038578000,4.293577880859375,0.02118307328224182,-0.005601439019537065,0.013648421727400273
1772795100048621800,4.303621826171875,0.03150748341977596,-0.008477684009016957,0.005847794446442276
1772795100058666000,4.313666015625,0.021480010402202605,0.007502402386208995,0.007976751032844185
1772795100068711200,4.323711181640625,0.012201309925317764,0.015297216414310968,0.0032894882657565176
1772795100078754800,4.3337548828125,0.019084639698266983,-0.0008515707614598795,-0.004196593173313886
1772795100088799000,4.343799072265625,0.02492109076678753,0.001223678309749812,-0.011319960513524711
1772795100098843100,4.353843017578125,0.02387128945291042,0.0012014573447871953,-0.002759600906446576
1772795100108887800,4.3638876953125,0.011749474504590034,-0.005116162553511094,0.013621095329057425
1772795100118932000,4.373931884765625,0.010102876341342925,-0.002392432111466769,0.006543777353968471
1772795100128976000,4.383975830078125,0.031949966490268704,-0.0013775651136529632,0.0016406433464959264
1772795100139020800,4.394020751953125,0.01175005902647972,-0.0008239772183471359,0.005893460219074041
1772795100149065000,4.40406494140625,0.02027940244078636,-0.005049209680967033,-0.0035248313915915786
1772795100159108900,4.41410888671875,0.011749474504590034,0.010028377199871465,0.004055632066354156
1772795100169153000,4.424153076171875,0.018186814075708387,0.011313206545752472,0.009199479494523256
1772795100179198000,4.434197998046875,0.026266075634956358,0.0036217569940024986,-0.00043504868270829316
1772795100189241900,4.444241943359375,0.011899696630239485,0.000050985835143364966,0.01028241589302197
1772795100199286000,4.4542861328125,0.015041501787304878,0.004641731708485167,0.0048491205316036935
1772795100209331000,4.4643310546875,0.014592004454135894,0.00808460902122315,0.006619947862718254
1772795100219374800,4.474374755859375,0.016090718579292295,-0.0006630921347881667,-0.005677844707015901
1772795100229419000,4.4844189453125,0.024173487269878387,0.007082256728399079,0.000904511091671884
1772795100239464000,4.4944638671875,0.030159575942158696,0.004118605166813358,0.004197689151857048
1772795100249507800,4.5045078125,0.03778992469012737,0.009299455570545978,-0.006064378072880208
1772795100259552000,4.514552001953125,0.022378420546650884,0.010190013485390228,0.01226980858426541
1772795100269596200,4.52459619140625,0.014596680629253386,-0.0039409835775848475,-0.0018469795735552906
1772795100279640800,4.534640869140625,0.022526304584741592,0.005349631099379621,-0.014910897677578031
1772795100289685000,4.54468505859375,0.010405658680200576,0.0018101021788665093,0.00437808722006157
1772795100299729000,4.55472900390625,0.014749240842461585,-0.008427257579588331,0.015672858493402598
1772795100309773600,4.564773681640625,0.013252280282974243,0.006670931414572988,0.021750260444637386
1772795100319817500,4.5748173828125,0.018787702578306198,0.00028080111920135095,0.006119177000038325
1772795100329861600,4.584861572265625,0.013551555490493774,0.00220636007101275,-0.003694799397327006
1772795100339905800,4.59490576171875,0.03045885114967823,0.005108878862776328,0.012793722860515116
1772795100349950500,4.604950439453125,0.020579262170195577,-0.007106692483334336,0.009039229165203869
1772795100359994600,4.61499462890625,0.02282441074848175,-0.021378915514750404,-0.0036522754298523065
1772795100370038800,4.625038818359375,0.020132687446475027,-0.0026335131416330114,-0.0014769954836927354
1772795100380083500,4.63508349609375,0.023572598767280576,0.012694577901554293,-0.0030640272131189704
1772795100390127600,4.645127685546875,0.016088965013623238,0.0014780298134428448,0.00504783970778808
1772795100400171800,4.655171875,0.021027590459585188,0.01084815316713648,-0.007479268105793744
1772795100410215700,4.665215576171875,0.03479717261493206,0.008054234432557131,-0.01137888762652874
1772795100420260600,4.675260498046875,0.01983282771706581,0.0033161045613349415,0.003985014515556395
1772795100430304800,4.6853046875,0.02028115600645542,0.003888803582487162,-0.010247965634148566
1772795100440348700,4.6953486328125,0.03165302937030792,0.009241284226079005,-0.0002370418925769627
1772795100450393600,4.7053935546875,0.020579846692085266,0.006779357941821217,0.01292200714899227
1772795100460437500,4.7154375,0.00920855785012245,-0.003584948097972665,0.008498162824753672
1772795100470481700,4.725481689453125,0.01654021591246128,0.002541613057500217,0.018364216469228267
1772795100480526600,4.735526611328125,0.03479775713682175,0.016336669864109716,-0.011807543101068586
1772795100490570500,4.745570556640625,0.023877134671807288,-0.009861795311176683,-0.013440587662998587
1772795100500614700,4.75561474609375,0.022380174112319944,-0.00045099288722267374,-0.0043340288826264435
1772795100510658800,4.765658935546875,0.049915831291675566,0.005526282290939707,0.0010255436554551123
1772795100520703500,4.775703369140625,0.02193593747615814,-0.002019845072564203,0.002214552510622889
1772795100530747600,4.78574755859375,0.01789572217464447,-0.0008205226026475429,-0.015256459712237118
1772795100540791800,4.795791748046875,0.02597615277767181,-0.010057966337248217,0.0009165668556466698
1772795100550836500,4.80583642578125,0.0163999306589365,-0.0028142217370914296,-0.0021033654874190685
1772795100560880600,4.815880615234375,0.021339725148677824,0.006252847566397395,-0.0018452442741952835
1772795100570924800,4.8259248046875,0.026125790381431577,-0.009088883843075019,-0.0016568455626256762
1772795100580968700,4.83596875,0.03405599885880947,0.003992359855084214,0.010265775285474956
1772795100591013600,4.846013671875,0.03195931884050369,-0.009492699420591815,0.001656991693098098
1772795100601057800,4.856057861328125,0.022529227194190024,-0.011619968656694981,-0.005367993306554853
1772795100611101700,4.866101806640625,0.020133271968364716,-0.0028923650072189048,-0.00499532406926155
1772795100621146600,4.876146728515625,0.03375029391050339,0.0008858543402631766,0.004456815012078732
1772795100631190500,4.8861904296875,0.02537058809995651,-0.01614939681383548,0.0007142857491970061
1772795100641234700,4.896234619140625,0.02133037279844284,0.0024908920838381163,0.008040025527402758
1772795100651279600,4.906279541015625,0.01310030459165573,0.001546464540308807,0.010605912226345389
1772795100661323500,4.916323486328125,0.007713350856304168,0.015710551022132858,-0.0016696319789625703
1772795100671367700,4.92636767578125,0.01848608928322792,0.01264519036845304,0.010239599664602429
1772795100681411800,4.936411865234375,0.008013795107603073,-0.0003648124411120079,0.005133563496172428
1772795100691456500,4.94645654296875,0.030609657797217367,0.006413043096789624,0.0031971703398041423
1772795100701500700,4.956500732421875,0.03494739474058151,0.010815570638363714,-0.0031769130030646917
1772795100711544800,4.966544921875,0.03569382919371128,-0.003365905369678512,0.010210154374409466
1772795100721589500,4.976589599609375,0.02656710440814495,-0.0030893169180024414,0.008918616726528853
1772795100731633700,4.986633544921875,0.022677695754170415,0.007203362357418518,0.005388341974839568
1772795100741677800,4.996677734375,0.02881225298643112,-0.004779407163104042,-0.0018553090104833244
1772795100751721700,5.0067216796875,0.024171149182319638,-0.009308394645538646,0.009541516131535172
1772795100761766700,5.0167666015625,0.022523381975293157,0.004869231737870723,0.0067516479509882625
1772795100771810800,5.026810791015625,0.02566694069802761,0.0009226883524679579,0.005638919202424586
1772795100781854700,5.036854736328125,0.026713819402456283,0.005605724752298556,-0.0025076902383007107
1772795100791899600,5.046899658203125,0.009504325926303863,0.016880263805075083,-0.008384929974935949
1772795100801943600,5.056943603515625,0.030004093119502067,0.00430164728325326,0.0016182123189792037
1772795100811987700,5.06698779296875,0.039132571470737454,0.00083962459533941,-0.000004877104517072439
1772795100822031600,5.077031494140625,0.020578093126416206,-0.0031157779499539173,-0.008682415084168314
1772795100832076500,5.08707666015625,0.020129764837026595,-0.0073157207076903425,-0.006096618108358234
1772795100842120700,5.09712060546875,0.02686287248432636,-0.007846114957076497,-0.01254895431920886
1772795100852164900,5.107164794921875,0.0306038125783205,0.011689104353170842,-0.007907192927971481
1772795100862209500,5.11720947265625,0.015641221246123313,0.016696006979083175,-0.008719148631673305
1772795100872253700,5.127253662109375,0.020130933880805967,0.0048533857147675,0.005382679419033229
1772795100882297900,5.1372978515625,0.01519172391295433,0.0041661866186070255,0.014908157731220126
1772795100892342500,5.147342529296875,0.009805354699492454,0.018685308499622622,0.0014472396662458776
1772795100902386700,5.15738671875,0.021326281145215033,-0.00272252943222411,0.005007379833236336
1772795100912430800,5.167430908203125,0.010701426756381988,-0.01466132281370228,-0.0005591317201033235
1772795100922474500,5.177474609375,0.01968202106952667,0.00423484054118162,0.000020768793392926452
1772795100932519700,5.187519775390625,0.021028759503364563,0.006941587882384192,0.0012372501773759723
1772795100942563600,5.1975634765625,0.02836041756570339,0.012802716734434942,0.003706818628683686
1772795100952607700,5.207607666015625,0.017882862693071364,-0.0020246559617109593,-0.0007707834430970251
1772795100962652700,5.217652587890625,0.016087211447954178,0.010517446208314504,-0.0009645889821462332
1772795100972696600,5.227696533203125,0.01833177550435066,0.006769165341369807,0.025811646398343144
1772795100982740700,5.23774072265625,0.024766192466020583,-0.013225040649599396,0.01861537821870297
1772795100992784600,5.24778466796875,0.021323943057656287,-0.00002931514274096116,-0.017319566254504024
1772795101002829600,5.25782958984375,0.025212767189741133,-0.005057374721113592,-0.004247172583080828
1772795101012873700,5.267873779296875,0.01668225473165512,0.005191280466201715,0.006749328129738569
1772795101022917600,5.277917724609375,0.0319458748370409,0.013136953657481352,0.011590612414758651
1772795101032962600,5.287962646484375,0.019376316121220587,0.007575161661743186,0.015474851703271269
1772795101043006700,5.2980068359375,0.020724808120727536,0.011465383166470564,0.007916380881424993
1772795101053051000,5.30805078125,0.02970364886820316,-0.010340616920241155,0.004627148343995214
1772795101063095600,5.318095458984375,0.012045827102661132,-0.007459508525975979,-0.0037696729981340467
1772795101073139700,5.3281396484375,0.01503916369974613,-0.006283525832451414,0.01065196159146726
1772795101083183900,5.338183837890625,0.03135083155333996,0.005367251237749587,-0.00736663804417476
1772795101093227500,5.3482275390625,0.016238602617383004,0.002754888198710978,-0.005816522525344044
1772795101103272700,5.358272705078125,0.030303952848911284,-0.0033620374787366016,-0.004049403254967183
1772795101113316600,5.368316650390625,0.021023498806357382,0.0066798864725860765,-0.0045270672366954385
1772795101123360500,5.378360595703125,0.008601824128627776,0.0012445338681107386,0.00887006487706676
1772795101133405700,5.38840576171875,0.02610708568096161,0.00661176227297401,-0.0017561412186361848
1772795101143449600,5.39844970703125,0.01952303111553192,0.008755674399912823,-0.01849620881844312
1772795101153493800,5.40849365234375,0.013088029631972312,0.0005953560942434706,-0.00775927235726267
1772795101163537700,5.41853759765625,0.035235564032197,0.006813125497393775,-0.0032023762378841636
1772795101173582600,5.42858251953125,0.028652678510546682,0.0003080590188852511,0.007062065607029944
1772795101183626800,5.438626708984375,0.021767595171928403,0.0042445947502157645,0.008772906379215418
1772795101193670700,5.448670654296875,0.01443710615336895,-0.002403277732466813,0.012597305239271371
1772795101203715600,5.458715576171875,0.014136661902070045,-0.005263420970516745,-0.00960004138574004
1772795101213759700,5.468759765625,0.022816227442026136,0.0022818798425025305,0.01240961891375482
1772795101223803600,5.4788037109375,0.023864275190234183,0.0053139410147792655,0.010496679698210208
1772795101233847600,5.48884765625,0.020123335096240043,-0.005899563449586275,-0.0034088037964887913
1772795101243892700,5.498892822265625,0.03987432974874973,0.0002131838096654974,0.0035757395949214694
1772795101253936600,5.5089365234375,0.0287999780267477,-0.004343888122937642,0.005461023618560284
1772795101263980500,5.51898046875,0.01877542761862278,0.0045996621154481545,0.02663481761580333
1772795101274025700,5.529025634765625,0.026706805139780042,-0.007537941773759666,0.005999861469306051
1772795101284069600,5.539069580078125,0.03523497951030731,0.00687106851299759,0.000380304554477334
1772795101294113500,5.549113525390625,0.0156330379396677,0.0012487168528838083,-0.0002050210528075695
1772795101304158700,5.55915869140625,0.024310849913954734,0.004471412076300476,-0.014365904080681502
1772795101314203000,5.569202880859375,0.028650340422987936,-0.011737720134714618,0.0049330724880099295
1772795101324246800,5.579246826171875,0.027601123631000517,0.002051251707691699,0.004844718351121991
1772795101334291000,5.589291015625,0.02969546556174755,0.008010717234527691,0.0004759652149863541
1772795101344336000,5.5993359375,0.023109072908759114,0.014991995523194782,-0.007904946171958
1772795101354379800,5.6093798828125,0.0308913973480463,0.003593989920953754,-0.0032233642269857226
1772795101364424000,5.619423828125,0.035980829441547395,-0.01063187550137518,-0.01150244094096124
1772795101374468900,5.62946875,0.02804886739850044,0.004077243393252138,-0.007046758440043777
1772795101384513000,5.639512939453125,0.01278524729311466,0.0029706110253348013,0.006063519556354731
1772795101394557000,5.649556884765625,0.020716040292382238,-0.0008783605869743041,0.002772643051110208
1772795101404600800,5.659600830078125,0.010538929671049118,0.0010797329445485957,0.00222799651408568
1772795101414646000,5.66964599609375,0.0014081132322549819,-0.0048769857860635965,-0.0018177900116890667
1772795101424690000,5.67968994140625,0.006641337710618972,0.0035450270795379765,0.008416658553760498
1772795101434733800,5.68973388671875,0.022052841854095458,0.004801493414037395,0.003576634644065052
1772795101444779000,5.699779052734375,0.025943419551849364,0.013284239473950583,-0.006730002374760806
1772795101454823000,5.709822998046875,0.031630817538499834,0.0014793358545401132,0.008129201648198067
1772795101464866800,5.71986669921875,0.014273440024256706,-0.009021531395020429,0.006637629649881273
1772795101474912000,5.729912109375,0.0027525135785341263,0.010635186269890982,-0.011860277935303747
1772795101484956000,5.739955810546875,0.02265489940047264,0.0046828080709674395,-0.0004237053047865629
1772795101494999800,5.749999755859375,0.02953764465153217,0.0013605431969044728,0.004174180412106216
1772795101505044000,5.7600439453125,0.0361199456512928,0.0012126180596183985,-0.0035558475843630727
1772795101515089000,5.7700888671875,0.030733576437830923,0.010405327603348996,-0.013058693939633667
1772795101525132800,5.7801328125,0.028491350468993187,-0.0011168592176982201,-0.010111187511961906
1772795101535177000,5.790177001953125,0.026993805387616157,-0.015310566802939865,-0.01256367696430534
1772795101545222000,5.800221923828125,0.025347207224369048,0.01899100203148555,-0.0000031418051570653915
1772795101555265800,5.810265869140625,0.023850246664881704,0.010522193165379575,-0.012337540058232843
1772795101565310000,5.82031005859375,0.022350948017835617,-0.0026057300855638456,-0.02894935990218073
1772795101575353900,5.830353759765625,0.02010638396143913,-0.002330685137002729,0.0014238587906584142
1772795101585399000,5.84039892578125,0.04389817843735218,0.004414850450318772,0.013332889504823833
1772795101595443000,5.85044287109375,0.03536649693548679,-0.008914901815925259,-0.01059133571172133
1772795101605486800,5.86048681640625,0.029530045866966247,0.011946289418055676,0.00761568090179935
1772795101615532000,5.870531982421875,0.026088965502381323,0.013350934334879275,0.001518368673697114
1772795101625576000,5.880575927734375,0.015314473509788512,-0.0009780992009793407,-0.00793479332095012
1772795101635619800,5.890619873046875,0.01890343791246414,0.015193607626075389,-0.0068622869849205015
1772795101645664000,5.9006640625,0.018755553874373436,0.006785084429709241,-0.002596446233987808
1772795101655708700,5.910708740234375,0.034468086791038514,0.005860690460633486,-0.0006325805488042533
1772795101665752800,5.9207529296875,0.030429040533304214,-0.006305000162031501,0.0015427724625915289
1772795101675797000,5.930796875,0.026240941193699834,0.011863508788717444,0.011221066716313361
1772795101685842000,5.940842041015625,0.010530161842703818,0.00910588064364856,-0.0038261889583431183
1772795101695885800,5.9508857421875,0.006341477981209755,-0.009853118814376649,-0.005573087424598634
1772795101705930000,5.960929931640625,0.02579553551375866,0.015338059881352818,0.0055763936265371735
1772795101715975000,5.970974853515625,0.04195581219792366,0.0037733057103469035,-0.006426946041267365
1772795101726018800,5.981018798828125,0.036868718191981315,-0.0050502554271603,-0.020605748318322
1772795101736063000,5.99106298828125,0.017864157992601392,-0.008187215445749461,-0.01601094960765913
1772795101746107000,6.00110693359375,0.016218728873133657,0.010391888166463468,-0.0053932190793566405
1772795101756151800,6.01115185546875,0.03462415413558483,-0.003201476622163318,0.006575378068629652
1772795101766196000,6.021196044921875,0.028487843337655066,0.00511944820585195,-0.0027404578145593405
1772795101776239900,6.031239990234375,0.01277706398665905,0.0049479983457946216,-0.01645487571656704
1772795101786284800,6.041284912109375,0.03417407228052616,-0.00581003341905307,0.0012877199892885982
1772795101796329000,6.051328857421875,0.008286182308197021,0.012300587315019219,-0.0044375988549552855
1772795101806372900,6.061372802734375,0.011429741030931473,-0.0018148674022406338,-0.009460906909685582
1772795101816418000,6.07141796875,0.018611176967620848,0.00014491576286964117,-0.008744337871856987
1772795101826461700,6.081461669921875,0.02818739908635616,0.007146700266737025,-0.011608988321665674
1772795101836505900,6.091505859375,0.04060615115463734,0.002685220495983958,-0.008513232529722154
1772795101846550000,6.101550048828125,0.011276596295833587,-0.005418485951353796,0.004898074239864945
1772795101856594700,6.1115947265625,0.020853402936458588,-0.0040202342426986434,0.016550097985658794
1772795101866638800,6.121638916015625,0.006938859352469444,0.0043568389360560105,0.000790346660092473
1772795101876683000,6.13168310546875,0.02624211023747921,0.0001847865489544347,-0.005934413283970206
1772795101886728000,6.14172802734375,0.020557634860277174,-0.0012526349761756137,-0.0017978066695854068
1772795101896771800,6.151771728515625,0.023699440017342567,0.010464775306161026,0.005650810569617897
1772795101906816000,6.16181591796875,0.017114216408133504,0.0008822832768433726,0.0026249051434919235
1772795101916860000,6.17185986328125,0.03162731040716171,0.0063052444739150814,0.005083933934476226
1772795101926904800,6.18190478515625,0.02474456515610218,0.004463975405227393,-0.01435516349095851
1772795101936949000,6.191948974609375,0.03641571372747421,0.0012204794223769568,-0.0007808847120031714
1772795101946993000,6.201992919921875,0.014864391654729843,0.004836745107220486,0.015006229544524102
1772795101957037800,6.212037841796875,0.023539281019568443,0.002006359969906043,0.010298910370096564
1772795101967081700,6.222081787109375,0.022940146082639692,0.02329637335849693,-0.003500153608061373
1772795101977126000,6.2321259765625,0.033116087660193444,0.005469142992934212,-0.014393120881170033
1772795101987170000,6.242170166015625,0.028626375025510787,-0.0011199553570826538,0.007539875719230622
1772795101997214700,6.252214599609375,0.0245867442458868,0.010251020674337632,-0.008755809113942086
1772795102007259000,6.2622587890625,0.02234159566760063,0.00031510753089096397,-0.013883235130272805
1772795102017303000,6.272302978515625,0.0160556472659111,-0.00595192839106312,-0.011536105748545378
1772795102027347700,6.28234765625,0.026978023296594617,-0.001130577215796802,0.006460903109796345
1772795102037392000,6.292391845703125,0.02398644026517868,-0.008157697090320288,-0.002596738494932651
1772795102047436000,6.30243603515625,0.03326338717639446,-0.011134511810867114,-0.00251072244560346
1772795102057480700,6.312480712890625,0.02219137354195118,0.011329977300751488,0.004611567182373255
1772795102067524900,6.32252490234375,0.023388474372029303,0.0019535086879506705,-0.0018306129606440662
1772795102077569000,6.332569091796875,0.011565934631228446,0.0150430430071312,0.004572385949455201
1772795102087613000,6.342613037109375,0.015457681372761725,-0.0010774679222260602,-0.014065532894618808
1772795102097657900,6.352657958984375,0.027577742755413054,-0.003504012365848757,-0.000007945844437927008
1772795102107702000,6.362701904296875,0.03131868284940719,0.0020674356575123964,-0.00552789657600224
1772795102117746000,6.372745849609375,0.018896423649787903,0.01120560885227751,-0.000843300690036267
1772795102127790800,6.382790771484375,0.014255904367566108,-0.004823805710545275,0.0022031178011558948
1772795102137834800,6.392834716796875,0.023384967240691185,0.0014712004971457644,-0.0002617196761071682
1772795102147879000,6.40287890625,0.015154899033904075,0.008264134873170405,0.0007841909139417111
1772795102157923000,6.412923095703125,0.014703648135066031,0.0043368373276432975,-0.0072816083755344145
1772795102167967700,6.4229677734375,0.02293430086374283,0.010828521451482083,-0.009807272661942989
1772795102178012000,6.433011962890625,0.024880758756399154,-0.007703276986861601,-0.004692523464094847
1772795102188056000,6.44305615234375,0.02622632814645767,0.00795214631455019,0.004230440643988549
1772795102198100700,6.453100830078125,0.01979132666289806,0.003731347998452838,-0.006269472190923988
1772795102208145000,6.463144775390625,0.020090601870417595,0.014018300785985774,0.004342906308826059
1772795102218189000,6.47318896484375,0.020242577561736107,0.0160799848394352,-0.011838778489548712
1772795102228233700,6.483233642578125,0.033110242441296574,0.006108504908974282,-0.00007911138450726866
1772795102238278000,6.49327783203125,0.04493161313831806,0.009302108751935883,-0.014893964809086172
1772795102248322000,6.503322021484375,0.02188800668120384,0.013720137540029827,0.004757478459086269
1772795102258366000,6.513365966796875,0.02308744559884071,0.006094793760741595,-0.007675904922746122
1772795102268411000,6.523410888671875,0.029973113459348676,-0.0048997341907001096,-0.0033455475682392715
1772795102278455000,6.533455078125,0.022193711629509925,-0.014172774395067244,-0.005304737078305334
1772795102288499000,6.5434990234375,0.026685762351751324,0.006248895193776116,0.008316595712769777
1772795102298543900,6.5535439453125,0.016061492484807968,0.01656971828487003,-0.011589278974197804
1772795102308588500,6.563588623046875,0.009926350730657577,0.006819943397247698,0.0012778744487091898
1772795102318632700,6.5736328125,0.013366846573352813,-0.0016064853485673665,-0.004930935329850763
1772795102328676400,6.58367626953125,0.02324351294338703,0.004638165211642627,-0.0001333988550119102
1772795102338721500,6.593721435546875,0.016207622957229613,0.0018034075765986925,0.018102204532176255
1772795102348765400,6.603765380859375,0.03386544472277164,0.0011932329391362146,-0.0011822685871273279
1772795102358809300,6.613809326171875,0.021444939088821408,0.001090300004335586,-0.0010790091420523821
1772795102368854500,6.6238544921875,0.023687749579548834,0.0011469620950170791,0.0006412205129861831
1772795102378898400,6.6338984375,0.01321136375069618,-0.003869069118844345,-0.0029267559005878865
1772795102388942600,6.643942626953125,0.03431085040271282,-0.00025823537765536455,-0.0033328159508295356
1772795102398987500,6.653987548828125,0.0304208572268486,0.009663877569301985,-0.014813300788309424
1772795102409031400,6.664031494140625,0.013658522996306419,0.0005404795352718793,-0.003746566117182374
1772795102419075600,6.67407568359375,0.01186111818552017,0.01515828515094472,-0.008352689939457923
1772795102429119500,6.684119384765625,0.020837036323547362,-0.004649492606543936,-0.003094659813400358
1772795102439164400,6.694164306640625,0.02412847908437252,-0.02467419420047663,0.0045054947257041926
1772795102449208600,6.70420849609375,0.04163432515859604,0.001709728810621891,-0.012931176836136728
1772795102459252500,6.71425244140625,0.028017887738347052,-0.004113709795987234,-0.012044840721972285
1772795102469297400,6.72429736328125,0.023976503393054006,0.003594827887881547,0.006325604558642953
1772795102479341600,6.734341552734375,0.01664426080882549,0.005345466380915604,0.00032157837087288496
1772795102489385700,6.7443857421875,0.014847440519928931,0.006243575131264515,-0.007372556328307837
1772795102499430400,6.754430419921875,0.02951075664460659,0.001618260268040467,0.0024310448055155573
1772795102509474600,6.764474609375,0.026518004569411276,0.014862459992547518,0.000492916349787265
1772795102519518500,6.7745185546875,0.027115970462560653,0.008543424455297644,0.002999346212763339
1772795102529562400,6.784562255859375,0.03369827146232128,0.0007101644132169895,0.008009886117465793
1772795102539607600,6.794607666015625,0.027264439022541043,-0.007278000779496505,0.00024224779065698383
1772795102549651500,6.8046513671875,0.03833411456942558,0.008578169258404522,-0.012832922359742224
1772795102559695400,6.8146953125,0.01798106237053871,-0.005366027395043056,-0.007883976449165492
1772795102569740500,6.824740478515625,0.019625322446227073,0.005739936458063311,0.010087770103756338
1772795102579784400,6.834784423828125,0.028153496816754338,-0.0031745246831560506,0.000007379588857293129
1772795102589828600,6.84482861328125,0.029947979018092152,0.006219552651571575,0.00008954144697636365
1772795102599872500,6.85487255859375,0.017227613654732705,-0.0013950117220869287,-0.001424863437656313
1772795102609917400,6.86491748046875,0.01677811632156372,0.011053998487140051,-0.008796104591712355
1772795102619961600,6.874961669921875,0.028001521125435826,0.009734874146012588,-0.008165862130466849
1772795102630005500,6.885005615234375,0.014983049598336219,0.013743735328037292,0.012922390741482376
1772795102640050400,6.895050537109375,0.019324293673038482,0.009974879747233352,-0.005382094897143542
1772795102650094600,6.905094482421875,0.025457681861519813,0.016615769933280535,-0.005314399955794215
1772795102660138500,6.915138427734375,0.027105449068546294,0.0014792993219220078,-0.010303221219033003
1772795102670183400,6.925183349609375,0.016631401327252385,0.00394449527550023,-0.007289682084135711
1772795102680227600,6.9352275390625,0.009748071554303168,0.00035306035452522334,-0.021204901521559804
1772795102690271500,6.945271484375,0.016183073037862778,0.011325808015710207,-0.002338690346945077
1772795102700315400,6.9553154296875,0.021270751565694808,0.001936089478980284,-0.008164419092051685
1772795102710360600,6.965360595703125,0.011243863070011139,-0.00812960807357449,-0.005858261041529476
1772795102720404500,6.975404541015625,0.02875087818801403,-0.006413070496253203,-0.00738614646224305
1772795102730448400,6.985448486328125,0.01917231798171997,-0.003318641295004636,-0.015406955832522362
1772795102740493600,6.99549365234375,0.007502338454127311,-0.003999620712932665,0.002066759804077446
1772795102750537500,7.005537353515625,0.03443593808710575,-0.0045564577279612415,-0.0039853615754283965
1772795102760581400,7.015581298828125,0.01932254010736942,0.008651106630451978,-0.0012944237247109413
1772795102770625500,7.02562548828125,0.016029928302764892,0.02140925813737558,-0.008769910704530775
1772795102780670500,7.03567041015625,0.034734628772735594,0.0035382320125703698,0.003045907034538686
1772795102790714600,7.045714599609375,0.029497897163033485,0.0006348387212608941,-0.001869922057725489
1772795102800758500,7.055758544921875,0.013185644787549971,0.0001965272190980613,0.01584324662424624
1772795102810803500,7.065803466796875,0.021865210327506063,-0.01149316622253973,0.007525043476279824
1772795102820847600,7.07584765625,0.02425824294388294,-0.0006468259865767322,-0.012396229709219187
1772795102830891300,7.085891357421875,0.032788170880079265,0.005535826437419746,-0.014454367815423756
1772795102840936400,7.0959365234375,0.01617898138463497,0.004380009749089368,-0.013211582946404813
1772795102850980600,7.105980712890625,0.016478256592154503,0.015516809415165334,-0.019958207662403582
1772795102861024300,7.116024169921875,0.020217443120479583,-0.007311768335069063,-0.01750363585082814
1772795102871068400,7.126068359375,0.02335983279943466,-0.01219673193161143,0.004337097622547298
1772795102881113600,7.136113525390625,0.023659692528843878,-0.017532798013230783,-0.01553392494674772
1772795102891157500,7.146157470703125,0.02800093660354614,-0.00965751632717438,-0.012143350926693528
1772795102901201400,7.156201416015625,0.01887304277420044,0.009908495413558557,-0.010359700646623969
1772795102911246600,7.16624658203125,0.020670447584986686,0.0160801149868872,-0.018038199385255575
1772795102921290500,7.17629052734375,0.020222119295597075,0.00932950593222631,-0.005294215684290975
1772795102931334400,7.18633447265625,0.025011107137799263,-0.00500087246063631,0.005003087250608951
1772795102941378600,7.196378662109375,0.021121113961935042,-0.012153399679961149,0.003702233785111457
1772795102951423500,7.206423583984375,0.02186930198073387,0.0022019578905310483,0.007896872463356703
1772795102961467400,7.21646728515625,0.0058604164659976955,0.007713225275429431,-0.012334836644493042
1772795102971511600,7.226511474609375,0.01648410181105137,-0.0010077591203036718,0.0005197495577856898
1772795102981556500,7.236556396484375,0.020525486156344412,0.006798642597603611,0.0007439867677167057
1772795102991600600,7.2466005859375,0.011697452056407927,0.005210021699289791,-0.002945533666294068
1772795103001644300,7.256644287109375,0.01663607750236988,-0.0007989067091722972,0.00023906945288181304
1772795103011689500,7.266689453125,0.024267595294117927,-0.008115568131778854,-0.01563917541950941
1772795103021733600,7.276733642578125,0.021423896300792694,0.005634868648392148,0.008163414445053786
1772795103031777300,7.28677734375,0.037136429217457766,0.00027014272786909715,-0.000042998891510069364
1772795103041821400,7.296821533203125,0.026063246539235113,0.0011632647758466192,-0.0007768295913934707
1772795103051866600,7.30686669921875,0.025762217766046522,0.005502960780856665,0.010927107004728168
1772795103061910300,7.31691015625,0.023368016105890274,0.0024325631924555636,-0.009118541479110717
1772795103071954400,7.326954345703125,0.023666706791520116,-0.0000613679485511966,-0.005858114911057055
1772795103081999600,7.33699951171875,0.020673370194435117,0.016687492595775982,-0.007246573594771325
1772795103092043500,7.34704345703125,0.010946925950050354,0.004980347979126963,-0.02520438295388594
1772795103102087400,7.35708740234375,0.027256255716085434,-0.0005966004865476861,-0.003874923470895737
1772795103112132600,7.367132568359375,0.0137900404214859,0.011730297163373324,-0.003963880395982414
1772795103122176500,7.377176513671875,0.02860533223748207,-0.006554693756916094,0.004320402216073126
1772795103132220400,7.387220458984375,0.006757073044776916,0.0026069128290750086,0.005907744472753256
1772795103142264600,7.3972646484375,0.01887596538364887,0.010418824122450314,-0.005559040632937103
1772795103152309500,7.4073095703125,0.021121113961935042,-0.0035558749838266518,0.010778291384875774
1772795103162353400,7.417353515625,0.02037058785557747,0.013802952418697532,-0.0010406316267326473
1772795103172397300,7.427397216796875,0.012139935126900672,0.010914263506175484,-0.012739106596447527
1772795103182442500,7.4374423828125,0.015429039800167082,0.010693229750194586,-0.010962306182272731
1772795103192486400,7.447486328125,0.01752455077469349,0.004744082404684741,0.0035572540901601312
1772795103202530300,7.4575302734375,0.023362170886993407,-0.007387902311200741,-0.0038136034714058038
1772795103212574500,7.467574462890625,0.014834581038355827,-0.010348060441180132,-0.01207282470744103
1772795103222619600,7.47761962890625,0.021567104163765907,-0.002923408599453978,0.0004300985129550099
1772795103232663300,7.487663330078125,0.01094224977493286,-0.005807010344904847,0.008617880214285105
1772795103242707500,7.49770751953125,0.02411094342768192,-0.00010863658980233594,0.016241835754085332
1772795103252752600,7.507752685546875,0.011992635610699652,-0.0024582912887562997,0.0008216733801178634
1772795103262796300,7.51779638671875,0.020970307314395902,0.016243593886331655,0.009029054831061511
1772795103272840400,7.52784033203125,0.024711831930279732,-0.008050124513020273,-0.00036178251709789033
1772795103282885600,7.5378857421875,0.02022270381748676,-0.016188507264805956,0.004883716920949519
1772795103292929500,7.547929443359375,0.011095979031920432,0.005281043392175343,0.007310779671091586
1772795103302973400,7.557973388671875,0.02067278567254543,0.009254214489599689,0.013437865982949732
1772795103313017000,7.56801708984375,0.01678103893101215,0.006513742975308559,0.0016934695122763513
1772795103323062000,7.57806201171875,0.019623568880558013,0.017770166416082065,-0.0034160555211827158
1772795103333106000,7.58810595703125,0.017977555239200593,0.0008641904977266676,0.0032952056204900142
1772795103343150000,7.598150146484375,0.03084580464065075,-0.007699728756328113,-0.011843217202648519
1772795103353195000,7.608195068359375,0.03324175986647606,0.0017070139804389326,-0.022546251394227147
1772795103363239200,7.6182392578125,0.026358430093526838,-0.007020162694063037,-0.005508735217805952
1772795103373282800,7.62828271484375,0.037732641544938085,-0.002946657044300809,-0.009880831088498234
1772795103383328000,7.638327880859375,0.020374679508805275,-0.00657625256817555,0.005367883708700537
1772795103393372200,7.6483720703125,0.017234043395519257,0.0010488468992291018,0.01279684639936313
1772795103403415800,7.658415771484375,0.024119126734137533,0.008520082395616918,0.005392707622703164
1772795103413460000,7.6684599609375,0.030855156990885733,-0.0008968575081788003,-0.0022531309553422032
1772795103423505200,7.678505126953125,0.02471884619295597,-0.012445729123463388,-0.010385456142388283
1772795103433548800,7.688548828125,0.025613164684176442,-0.0025442274229833853,-0.001597571389749646
1772795103443593000,7.698593017578125,0.0221685771882534,-0.007091985821258276,-0.002498611882701516
1772795103453638100,7.70863818359375,0.022320552879571912,0.006770852691668551,-0.002976750788465142
1772795103463682000,7.71868212890625,0.022618074521422386,-0.013495576103113124,0.004685436136182397
1772795103473726000,7.728725830078125,0.029351766690611836,0.0020512813904439097,-0.009807053466234356
1772795103483770000,7.73877001953125,0.031000118419528006,-0.000430203544232063,-0.0015923472253605723
1772795103493815000,7.74881494140625,0.013047697621583938,-0.002375375945388805,-0.008973232990596443
1772795103503859000,7.75885888671875,0.02082885301709175,-0.013200794407620559,-0.010020513553824275
1772795103513903000,7.768903076171875,0.018437573966383933,0.001613447095605079,0.00015045958766713737
1772795103523948000,7.778947998046875,0.009610124388337134,0.0016671272113337181,0.010096556198410689
1772795103533992000,7.788991943359375,0.011106500425934791,-0.00154191166277742,-0.013561821156181394
1772795103544035800,7.799035888671875,0.022479542833566665,0.0071980514280614435,-0.007678370874468237
1772795103554081000,7.8090810546875,0.015893734702467917,0.010575407490227371,0.006321585970651358
1772795103564125200,7.819125244140625,0.014696633872389793,-0.0003003711860626936,-0.00295324204871431
1772795103574168800,7.8291689453125,0.02397416530549526,0.007434273620019667,0.0020979221273213625
1772795103584213000,7.839212890625,0.008264554998278618,0.009358686360938008,0.00506627041362226
1772795103594258200,7.849258056640625,0.011108838513493537,0.008057545201072935,-0.0016061200223863124
1772795103604301800,7.8593017578125,0.02412789456248283,0.011842082408198621,-0.015911361690703778
1772795103614346000,7.869345947265625,0.007518120545148849,0.0031817238922114484,-0.009934150444623082
1772795103624391200,7.87939111328125,0.010212766456604003,0.010668654714652802,0.002415280980803072
1772795103634434800,7.889434814453125,0.011703297275304794,0.004697220188810024,0.008678232099395245
1772795103644479000,7.89947900390625,-0.001174304476380348,0.0004146155327442102,0.009656593878567219
1772795103654523100,7.909523193359375,0.03353986603021621,-0.006109317759727127,0.0019816753365099428
1772795103664568000,7.919568115234375,0.03712532330155372,0.002298993090796284,-0.006376311832573265
1772795103674612000,7.929612060546875,-0.007314706927537918,0.010727858105581254,-0.0067049592650495465
1772795103684656000,7.93965625,0.040565234622359274,0.002100598141597584,0.018613204527925697
1772795103694701000,7.949701171875,0.01722644461095333,0.00211376130055869,0.007446553146280348
1772795103704745000,7.959744873046875,0.04386544521152973,-0.00048291097900364543,0.0036972288164310156
1772795103714788900,7.969788818359375,-0.0011596914291381836,-0.009065272355335764,-0.008932005931064486
1772795103724834000,7.979833984375,0.03625789281725883,-0.0010512900180649012,0.00196410314720124
1772795103734878000,7.9898779296875,-0.007428104174137115,0.008073589870287105,0.004220540304481983
1772795103744921900,7.999921875,0.03641746729314327,-0.0070642758304253215,-0.00752305244859308
