time,seconds_elapsed,z,y,x
1772795095819977700,0.074977783203125,0.000807539327070117,-0.0011268430389463902,0.0014561342541128397
1772795095830021600,0.085021728515625,-0.0014652464305981994,-0.0017320658080279827,-0.0005642442847602069
1772795095840065800,0.095065673828125,-0.002332371659576893,-0.0007365760393440723,0.0003484210465103388
1772795095850110700,0.10511083984375,-0.0017927053850144148,0.00003652134910225868,0.002000374486669898
1772795095860154600,0.115154541015625,0.0003652541199699044,0.0006149597465991974,0.001060544978827238
1772795095870198800,0.12519873046875,0.00023575860541313887,0.00025267433375120163,-0.000750028295442462
1772795095880243700,0.13524365234375,-0.00013495341408997774,0.0018127541989088058,0.0009280294179916382
1772795095890287600,0.14528759765625,0.0004430183907970786,0.0005891271866858006,-0.0005237696459516883
1772795095900331800,0.155331787109375,-0.0016033545834943652,0.00127888610586524,0.0014355180319398642
1772795095910376000,0.1653759765625,0.0012231704313308,0.00031841592863202095,0.001801869715563953
1772795095920420600,0.175420654296875,0.00046337058302015066,0.0014553191140294075,0.0019315656973049045
1772795095930464800,0.18546484375,-0.00036532781086862087,-0.0016236272640526295,-0.0018932162784039974
1772795095940509000,0.195509033203125,-0.0006417639669962227,0.0009937272407114506,-0.0015685770194977522
1772795095950553600,0.2055537109375,0.00044970924500375986,-0.0007783574983477592,0.0005081502022221684
1772795095960597800,0.21559765625,0.0012017859844490886,-0.0022873044945299625,0.0013342626625671983
1772795095970642000,0.225641845703125,0.000004928442649543285,0.0015995302237570286,0.0004783779149875045
1772795095980685800,0.235685791015625,-0.0007910904241725802,0.0001864572986960411,-0.0018092774553224444
1772795095990730800,0.245730712890625,-0.00015704671386629343,-0.0004452355206012726,0.002182803815230727
1772795096000774700,0.255774658203125,0.0012216717004776,-0.00022685620933771133,0.0008150043431669474
1772795096010818800,0.26581884765625,-0.0009604565566405654,-0.0008249068632721901,-0.0003052311949431896
1772795096020863700,0.27586376953125,-0.0009016006952151656,0.0001056017354130745,0.002362457336857915
1772795096030907600,0.28590771484375,-0.0011118118418380618,-0.0012830090709030628,0.0009233427699655294
1772795096040951800,0.295951904296875,-0.00003216636832803488,-0.00045343441888689995,0.00014916190411895514
1772795096050995700,0.30599560546875,0.00016022368799895048,-0.0004145698621869087,-0.0007539218058809638
1772795096061040600,0.31604052734375,-0.003771933726966381,0.0014144894666969776,-0.0008958683465607464
1772795096071084800,0.326084716796875,0.0002204658230766654,0.0009220619685947895,0.0009297252399846911
1772795096081129000,0.33612890625,-0.0015579932369291782,0.0007553482428193092,-0.0001264844322577119
1772795096091173600,0.346173583984375,0.0013706523459404707,0.0009814021177589893,0.0005281757330521941
1772795096101217800,0.3562177734375,0.0002494615036994219,0.0017206957563757896,-0.00027689780108630657
1772795096111262000,0.366261962890625,-0.0004593374324031174,-0.0031557439360767603,0.0012977833393961191
1772795096121305600,0.3763056640625,-0.0001461496576666832,0.000921289436519146,0.002743613440543413
1772795096131350800,0.386350830078125,0.0012610204285010695,0.0006641419604420662,0.0017280456377193332
1772795096141395000,0.39639501953125,0.0007741947192698717,-0.0010685105808079243,0.0005693042185157537
1772795096151438600,0.4064384765625,0.0001154604833573103,-0.0014912295155227184,0.0011206252966076136
1772795096161483800,0.41648388671875,-0.000929297530092299,0.0008416995406150818,-0.002425373764708638
1772795096171527700,0.426527587890625,-0.0004925500834360719,0.0012645046226680279,-0.0010036712046712637
1772795096181571800,0.43657177734375,0.0033466629683971405,-0.0016271555796265602,-0.0025448426604270935
1772795096191615700,0.44661572265625,0.0006214171880856156,0.001044746022671461,-0.0015660757198929787
1772795096201660700,0.45666064453125,-0.0008041728870011866,0.0012916205450892448,0.0009093325352296233
1772795096211704800,0.466704833984375,-0.0017525135772302747,0.0008941162377595901,-0.0027981610037386417
1772795096221748700,0.476748779296875,0.0008536557434126735,0.0020280899479985237,-0.0006897365674376488
1772795096231793700,0.486793701171875,0.001610548235476017,-0.001700392458587885,-0.0015163298230618238
1772795096241837800,0.496837890625,0.0003479435108602047,0.001332682091742754,-0.00040792213985696435
1772795096251881700,0.5068818359375,-0.002503415336832404,0.0011676056310534477,-0.0014783049700781703
1772795096261925600,0.516925537109375,0.0005981019930914044,-0.002389578614383936,-0.0002465930301696062
1772795096271970800,0.526970703125,0.0012882398441433907,0.0016569588333368301,-0.0007017628522589803
1772795096282014700,0.5370146484375,-0.0007852973649278283,-0.00030312733724713326,0.000831419019959867
1772795096292058600,0.54705859375,0.0004913220182061195,0.0006653838790953159,-0.0013984831748530269
1772795096302103600,0.557103515625,0.0024807034060359,-0.0006587398238480091,0.0012628136901184916
1772795096312147700,0.567147705078125,0.0014024085830897093,-0.0009103165939450264,0.0018808958120644093
1772795096322191600,0.577191650390625,-0.0006921675521880388,-0.0013153832405805588,0.0006731522735208273
1772795096332235500,0.587235595703125,-0.0006027595372870564,-0.0010733213275671005,-0.0003277066280134022
1772795096342280700,0.59728076171875,-0.0011604254832491279,-0.0015348470769822598,0.0008555357344448566
1772795096352324600,0.60732470703125,-0.0023103742860257626,-0.0007179235108196735,0.001028410973958671
1772795096362368500,0.617368408203125,0.00279064429923892,-0.0007269782945513725,0.002037216443568468
1772795096372413700,0.62741357421875,0.0008827465353533626,-0.0015317830257117748,0.0006307109724730253
1772795096382457600,0.63745751953125,-0.0002890443429350853,0.0003063306212425232,-0.001955218380317092
1772795096392501500,0.64750146484375,0.000987397856079042,-0.0006299070082604885,0.002118315314874053
1772795096402545700,0.657545654296875,0.0018191031413152814,-0.0001340261660516262,0.0010165655985474586
1772795096412590600,0.667590576171875,-0.0026374137960374355,-0.0001994650810956955,0.0013503421796485782
1772795096422634500,0.677634521484375,0.0010816907742992043,-0.00036990735679864883,0.0008765658130869269
1772795096432678700,0.6876787109375,0.0019868011586368084,0.00009985826909542084,0.0019017577869817615
1772795096442723600,0.6977236328125,0.0006570848636329174,-0.000006934627890586853,0.00014007685240358114
1772795096452767500,0.707767578125,0.0016882441705092788,-0.0025624926201999187,0.002473957370966673
1772795096462811600,0.717811767578125,-0.00013229262549430132,0.003297260496765375,0.001313351676799357
1772795096472855600,0.72785546875,0.0002114559756591916,-0.0003293636254966259,-0.00010912318248301744
1772795096482900700,0.737900634765625,-0.0005712470738217235,-0.0004731742665171623,0.003470165189355612
1772795096492944600,0.747944580078125,0.000490816542878747,-0.001518497709184885,0.001962722046300769
1772795096502988500,0.757988525390625,-0.0012042855378240347,0.00006901239976286888,0.0002686853986233473
1772795096513033700,0.76803369140625,0.00024039531126618385,-0.0007070396095514297,-0.0016232789494097233
1772795096523077600,0.77807763671875,-0.002510383725166321,-0.0008005164563655853,0.0027437726967036724
1772795096533121500,0.78812158203125,-0.00006866070907562971,-0.0006831376813352108,-0.0001647520111873746
1772795096543165700,0.798165771484375,0.0006591812707483768,0.00006414530798792839,0.0011018473887816072
1772795096553210600,0.808210693359375,0.002309621311724186,-0.0006628339178860188,-0.00036901357816532254
1772795096563254500,0.818254638671875,0.0005138517590239644,0.0011723502539098263,0.0023258388973772526
1772795096573298700,0.828298583984375,-0.000016641104593873024,0.000281547661870718,0.00022862525656819344
1772795096583343600,0.838343505859375,0.0002813666360452771,-0.0017525749281048775,0.002190043218433857
1772795096593387500,0.848387451171875,-0.0005981225403957069,-0.00047945743426680565,-0.00044403522042557597
1772795096603431700,0.858431640625,-0.00035763910273090005,0.0004172287881374359,-0.0011543002910912037
1772795096613475600,0.8684755859375,0.0008357138140127063,0.002848648000508547,0.00024128740187734365
1772795096623520500,0.8785205078125,0.00001359602902084589,-0.0013287859037518501,-0.0014937620144337416
1772795096633564700,0.888564697265625,-0.0002230526297353208,-0.0005310359410941601,-0.001284370431676507
1772795096643608600,0.898608642578125,-0.00018949678633362055,-0.0003145206719636917,-0.0020289903040975332
1772795096653653500,0.908653564453125,-0.0012079216539859772,0.001354500651359558,-0.004740568809211254
1772795096663697700,0.91869775390625,-0.00031389849027618766,0.0001672636717557907,0.0013255795929580927
1772795096673741600,0.928741455078125,-0.002156429225578904,0.00039871688932180405,0.00260587758384645
1772795096683785700,0.93878564453125,0.0001847556559368968,0.0020940848626196384,0.00007640721742063761
1772795096693830700,0.94883056640625,0.0012822237331420183,-0.00030598463490605354,0.001703474554233253
1772795096703874600,0.95887451171875,0.0000268096337094903,0.0006809826008975506,0.0007471332792192698
1772795096713918700,0.968918701171875,0.000902040395885706,0.0002569924108684063,-0.0012233852175995708
1772795096723963400,0.97896337890625,0.0020346827805042267,-0.001486578956246376,-0.0016268540639430285
1772795096734007600,0.989007568359375,-0.0030887965112924576,-0.0006517516449093819,-0.0007786080823279917
1772795096744051700,0.9990517578125,0.0020172824151813984,0.0004161759279668331,0.0008027770090848207
1772795096754095600,1.009095703125,-0.0003920345916412771,0.0005632298998534679,-0.0001835009315982461
1772795096764140500,1.019140625,-0.00037152826553210616,-0.0010719508863985538,0.0008002708200365305
1772795096774184700,1.029184814453125,0.0022496816236525774,0.0006094011478126049,-0.0008429024019278586
1772795096784228600,1.039228515625,0.0007029175758361816,0.0024147573858499527,-0.002567032817751169
1772795096794273500,1.0492734375,-0.00013943237718194723,0.0012938687577843666,0.0015070781810209155
1772795096804317700,1.059317626953125,-0.0011125514283776283,0.00044831540435552597,-0.00213159853592515
1772795096814361600,1.069361572265625,0.0015054811956360936,-0.0007840106263756752,0.0014967864844948053
1772795096824406500,1.079406494140625,-0.0004000106710009277,-0.0005155638791620731,-0.0016422814223915339
1772795096834450700,1.08945068359375,0.00048035860527306795,-0.0023833252489566803,0.0009577793534845114
1772795096844494600,1.09949462890625,-0.0005505509907379746,-0.0018078163266181946,0.001941018272191286
1772795096854538800,1.109538818359375,0.0021993471309542656,0.0003033587709069252,0.0012735291384160519
1772795096864583400,1.11958349609375,0.0003830711357295513,0.000025324523448944092,0.0030431996565312147
1772795096874627600,1.129627685546875,-0.003809663699939847,0.0016903989017009735,-0.0008884014096111059
1772795096884671700,1.139671630859375,0.0023715330753475428,-0.000642264261841774,0.00006980390753597021
1772795096894716400,1.14971630859375,0.000020728446543216705,-0.00015037087723612785,0.0011931282933801413
1772795096904760600,1.159760498046875,0.0000644042156636715,-0.0005320017226040363,0.0018378796521574259
1772795096914804700,1.1698046875,-0.00009451375808566809,-0.00004815170541405678,-0.0012823055731132627
1772795096924848600,1.1798486328125,-0.0010039833141490817,0.0014165863394737244,-0.002229325706139207
1772795096934893600,1.1898935546875,-0.00040600390639156103,0.0007509966380894184,-0.0006526830256916583
1772795096944937700,1.199937744140625,0.001861411496065557,-0.00019043078646063805,0.0009369577746838331
1772795096954981600,1.209981689453125,0.00031178281642496586,-0.0010108333081007004,-0.0006190642016008496
1772795096965026600,1.220026611328125,-0.0004304402391426265,-0.0009660921059548855,0.0005378129426389933
1772795096975070700,1.23007080078125,0.0016769776120781898,-0.00012047402560710907,0.0005157234845682979
1772795096985114600,1.240114501953125,-0.0009438393171876669,-0.0006443178281188011,-0.0016417033039033413
1772795096995158800,1.25015869140625,0.00023213576059788465,-0.0005991035141050816,0.002145191887393594
1772795097005203700,1.26020361328125,-0.0005455072387121618,-0.002013508230447769,-0.0005368776037357748
1772795097015247600,1.27024755859375,0.0006170547567307949,0.00232230918481946,0.0008035632781684399
1772795097025291800,1.280291748046875,0.0006333000492304564,0.0015111095272004604,-0.0006015205290168524
1772795097035336400,1.29033642578125,0.0007177888182923198,-0.0011983388103544712,-0.0008825711556710303
1772795097045380600,1.300380615234375,0.0001886187819764018,0.0009425762109458447,0.00025619647931307554
1772795097055424800,1.3104248046875,-0.0019231513142585754,-0.00037159817293286324,-0.0005536599201150239
1772795097065468700,1.32046875,-0.00015401339624077082,0.000613505020737648,-0.001431437791325152
1772795097075513600,1.330513671875,-0.0007030077977105975,0.00029980577528476715,0.00046525418292731047
1772795097085557800,1.340557861328125,5.994224920868874e-7,0.00012243911623954773,-0.0009515475248917937
1772795097095601700,1.3506015625,0.0004975652555003762,-0.0021103499457240105,-0.00018403748981654644
1772795097105646600,1.360646484375,0.0006538928719237447,-0.0005513355135917664,0.0008218383882194757
1772795097115690800,1.370690673828125,-0.0011494895443320274,0.0005021677352488041,-0.0012658360647037625
1772795097125734700,1.380734619140625,0.0005472103366628289,-0.003738383762538433,0.002436756854876876
1772795097135778600,1.390778564453125,-0.0013101610820740461,0.0013071484863758087,-0.0025703320279717445
1772795097145823700,1.40082373046875,0.0006762907141819596,0.0019335243850946426,-0.0016619277885183692
1772795097155867600,1.41086767578125,-0.0004054437158629298,-0.0009390613995492458,-0.000818211177829653
1772795097165911600,1.42091162109375,0.0003066855715587735,0.0011754883453249931,-0.001437396160326898
1772795097175956700,1.430956787109375,-0.0003039633156731725,-0.000588306225836277,0.0011092659551650286
1772795097186000600,1.441000732421875,0.002448413521051407,-0.0007132082246243954,0.002933797426521778
1772795097196044800,1.451044921875,-0.000482529925648123,0.000287455040961504,-0.0009902070742100477
1772795097206088400,1.46108837890625,-0.000634063791949302,0.0012086424976587296,0.0004391114925965667
1772795097216133600,1.471133544921875,-0.0008546604076400399,-0.0012256610207259655,0.00012636708561331034
1772795097226177800,1.481177734375,0.0034820311702787876,0.0006539979949593544,0.0008464858401566744
1772795097236221400,1.491221435546875,-0.0002150817308574915,-0.0015183575451374054,-0.0018135049613192677
1772795097246266600,1.5012666015625,-0.00028565555112436414,-0.0007534977048635483,0.0013545914553105831
1772795097256310800,1.511310791015625,-0.0013236264931038022,0.0009929877705872059,-0.00007682014256715775
1772795097266354700,1.521354736328125,0.0011419280199334025,0.0008025718852877617,-0.0007183756097219884
1772795097276398600,1.531398681640625,-0.000341565057169646,0.0013062208890914917,0.0015641790814697742
1772795097286443800,1.54144384765625,-0.001674210885539651,0.0009661349467933178,0.002488828729838133
1772795097296487700,1.55148779296875,-0.0014724148204550147,0.0002607242204248905,0.0024232445284724236
1772795097306530600,1.561530517578125,0.0010922093642875552,0.000405067577958107,-0.0017509942408651114
1772795097316575500,1.571575439453125,-0.0006567565724253654,0.0023739454336464405,0.00040710088796913624
1772795097326619600,1.58161962890625,0.0008607127238065004,-0.0004998715594410896,0.0023890254087746143
1772795097336663600,1.59166357421875,-0.000023498432710766792,-0.0009286096319556236,-0.0009631073335185647
1772795097346707500,1.60170751953125,0.0012052841484546661,0.0011734231375157833,-0.0016051954589784145
1772795097356752600,1.611752685546875,-0.0006640602950938046,0.00022333208471536636,0.000440721632912755
1772795097366796500,1.621796630859375,-0.0006480813608504832,-0.00000996096059679985,-0.0013201604597270489
1772795097376840700,1.6318408203125,0.0018424736335873604,0.0007676291279494762,0.0009768101153895259
1772795097386885600,1.6418857421875,0.0003646855475381017,0.0009892038069665432,-0.001301257754676044
1772795097396929500,1.651929443359375,-0.00022993714082986116,0.001808286178857088,-0.0016521847574040294
1772795097406973700,1.6619736328125,-0.0000312653137370944,0.0019254651851952076,0.0005001820391044021
1772795097417017300,1.672017333984375,-0.0016488173278048635,-0.002090001478791237,-0.0002603325410746038
1772795097427062500,1.6820625,0.00033630291000008583,0.0007601133547723293,0.002000691369175911
1772795097437106700,1.692106689453125,0.0009474273538216949,-0.00046767015010118484,-0.00027036992833018303
1772795097447150600,1.702150634765625,0.00013063580263406038,0.0013976078480482101,-0.0012983500491827726
1772795097457195500,1.712195556640625,0.0003459217259660363,0.0006855996325612068,0.000973379472270608
1772795097467239700,1.72223974609375,0.0010039887856692076,0.00018599070608615875,-0.001870876643806696
1772795097477283600,1.73228369140625,-0.00121858820784837,0.001956904772669077,-0.000010575284250080585
1772795097487327500,1.742327392578125,0.00015240709763020277,0.0023414655588567257,0.000016588950529694557
1772795097497372700,1.75237255859375,-0.0008812827873043716,0.0010308437049388885,0.001214553602039814
1772795097507416600,1.76241650390625,0.0012529744999483228,0.0018614837899804115,0.001606304431334138
1772795097517460500,1.77246044921875,-0.0005348867853172123,-0.00042449403554201126,0.0007208043243736029
1772795097527505700,1.782505615234375,-0.0005146467592567205,-0.00001969374716281891,0.0014190851943567395
1772795097537549600,1.792549560546875,-0.0002454783534631133,-0.00045468611642718315,0.0013581874081864953
1772795097547593500,1.802593505859375,-0.0006452188245020807,-0.00004961946979165077,0.0009949322557076812
1772795097557637400,1.812637451171875,0.0008492839988321066,-0.0010269591584801674,0.0008279207395389676
1772795097567682600,1.8226826171875,0.0005877616349607706,-0.0003337385132908821,-0.000679694814607501
1772795097577726700,1.832726806640625,-0.0007581690442748368,-0.0007018665783107281,-0.0026862439699470997
1772795097587770400,1.842770263671875,-0.000892925017978996,0.0023927264846861362,-0.0012305600102990866
1772795097597815600,1.852815673828125,-0.0009973631240427494,-0.0013726376928389072,0.002596033737063408
1772795097607859700,1.862859619140625,-0.00005566945765167475,0.0010969117283821106,-0.0015308007132261992
1772795097617903400,1.8729033203125,0.0002921528648585081,-0.00017390772700309753,-0.0016597509384155273
1772795097627947500,1.882947509765625,0.0010487567633390427,0.002326267771422863,-0.0006394939846359193
1772795097637992700,1.89299267578125,-0.00016100634820759296,0.0025197952054440975,0.0008695708820596337
1772795097648036400,1.903036376953125,-0.0006486311904154718,-0.00035322271287441254,-0.0007317879935726523
1772795097658080500,1.91308056640625,-0.0013751989463344216,-0.00021063396707177162,0.0020782691426575184
1772795097668125700,1.923125732421875,-0.0011424387339502573,0.000010142102837562561,-0.000017372309230268
1772795097678169600,1.933169677734375,0.0012612956343218684,-0.001305019948631525,0.00026849762070924044
1772795097688213500,1.943213623046875,-0.0013949411222711205,-0.0003436189144849777,0.0003273534821346402
1772795097698257400,1.95325732421875,-0.0006475134287029505,0.001042710617184639,-0.0013758662389591336
1772795097708302600,1.963302490234375,0.002772784326225519,0.00006559677422046661,-0.0003244502586312592
1772795097718346500,1.973346435546875,-0.0006435622926801443,0.00022455397993326187,0.0011430280283093452
1772795097728390400,1.983390380859375,-0.0000033383257687091827,0.00003200722858309746,0.0009211867582052946
1772795097738435600,1.993435546875,0.00015921273734420538,-0.0017782715149223804,0.0008630601223558187
1772795097748479500,2.0034794921875,0.0001456305617466569,-0.001035515684634447,-0.00037344556767493486
1772795097758523400,2.0135234375,-0.0030871210619807243,-0.0007786490023136139,-0.00025092397117987275
1772795097768567600,2.023567626953125,0.0005305170780047774,0.0006344243884086609,0.0003685272531583905
1772795097778612700,2.03361279296875,0.001082316623069346,-0.0016401121392846107,-0.0024624469224363565
1772795097788656400,2.043656494140625,0.0009707302087917924,0.0009407568722963333,0.0014358882326632738
1772795097798700500,2.053700439453125,-0.0016418423037976027,0.0034345751628279686,-0.0009482384193688631
1772795097808745700,2.063745849609375,0.0011134641245007515,-0.000475212000310421,0.003186851739883423
1772795097818789400,2.073789306640625,0.0010122164385393262,0.0012057297863066196,0.00047478917986154556
1772795097828833500,2.08383349609375,-0.0011766355019062757,0.0004749586805701256,0.0005256555741652846
1772795097838877400,2.09387744140625,-0.000701074255630374,-0.0002990388311445713,-0.0006551854312419891
1772795097848922400,2.10392236328125,-0.0012608707183972,-0.0009858678095042706,0.0005573517410084605
1772795097858966500,2.113966552734375,-0.0012562605552375317,-0.0002881004475057125,0.00007367099169641733
1772795097869010400,2.124010498046875,0.0007658775430172682,-0.001494778785854578,0.0012880724389106035
1772795097879055600,2.1340556640625,-0.0018476329278200865,-0.0012554316781461239,0.0009075709385797381
1772795097889099500,2.144099609375,0.00015000428538769484,-0.0006242622621357441,0.0015099778538569808
1772795097899143400,2.154143310546875,0.0006074147531762719,0.000978314783424139,-0.002835963387042284
1772795097909187600,2.1641875,-0.0000874039251357317,-0.00007816124707460403,0.00036196038126945496
1772795097919232500,2.174232421875,-0.0007388682570308447,0.0009199413470923901,0.001761585008352995
1772795097929276400,2.1842763671875,-0.0024281111545860767,-0.001710729207843542,-0.00044750707456842065
1772795097939320600,2.194320556640625,0.00026460038498044014,0.0002333470620214939,-0.0006278257933445275
1772795097949365500,2.204365478515625,0.0018537086434662342,0.0008970065973699093,-0.0012257054913789034
1772795097959409400,2.214409423828125,0.0012369094183668494,0.003242834471166134,0.0010668665636330843
1772795097969453600,2.22445361328125,-0.00007096899207681417,0.0007575727067887783,-0.00046604900853708386
1772795097979497500,2.23449755859375,-0.00004996138159185648,-0.0001657167449593544,0.0026058126240968704
1772795097989542400,2.24454248046875,0.0007311438675969839,-0.0009678606875240803,0.00229582074098289
1772795097999586600,2.254586669921875,-0.0014372901059687138,0.0007651643827557564,0.0008043161360546947
1772795098009630500,2.26463037109375,0.0027840863913297653,0.0003965827636420727,0.00006422353908419609
1772795098019675400,2.27467529296875,-0.0008975721430033445,0.0010536517947912216,0.0024357798974961042
1772795098029719600,2.284719482421875,-0.001452042255550623,0.00029118871316313744,-0.000044155633077025414
1772795098039763500,2.294763427734375,0.0007028833497315645,-0.0010299887508153915,0.0005200761370360851
1772795098049807600,2.3048076171875,-0.0005005990969948471,-0.000379911158233881,0.0011962528806179762
1772795098059852500,2.3148525390625,0.000010166317224502563,0.00009160768240690231,-0.0006968665402382612
1772795098069896400,2.324896484375,0.00009059382136911154,-0.000650349073112011,-0.0008502646815031767
1772795098079940600,2.334940673828125,-0.0007296978728845716,0.0028224997222423553,-0.0026059215888381004
1772795098089985500,2.344985595703125,-0.00009852868970483541,-0.00005025230348110199,-0.004797703120857477
1772795098100029400,2.355029541015625,-0.0016964043024927378,0.00038433540612459183,-0.0021884897723793983
1772795098110073600,2.365073486328125,-0.001916914014145732,-0.0010630926117300987,-0.001155982376076281
1772795098120117500,2.375117431640625,0.0022505205124616623,0.0019576051272451878,0.0013410684186965227
1772795098130162400,2.385162353515625,0.0018313389737159014,-0.001867759507149458,0.0018944733310490847
1772795098140206600,2.39520654296875,0.000010498333722352982,0.0033776629716157913,0.0008111901115626097
1772795098150250500,2.40525048828125,0.00040198303759098053,-0.0008274680003523827,-0.0015286632115021348
1772795098160295400,2.41529541015625,0.0007109458092600107,0.0002771550789475441,-0.0026137307286262512
1772795098170339600,2.425339599609375,-0.001308529288507998,0.0012342948466539383,-0.0016616506036370993
1772795098180383500,2.435383544921875,0.0009851355571299791,0.00041183875873684883,0.0005165879847481847
1772795098190427600,2.445427734375,0.003025116864591837,-0.00040335487574338913,0.00055626907851547
1772795098200472600,2.45547265625,-0.0008198860450647771,0.00002805842086672783,-0.0011453614570200443
1772795098210516500,2.4655166015625,-0.0015794195933267474,0.0006203455850481987,-0.0006220502546057105
1772795098220560600,2.475560546875,-0.0019374254625290632,-0.0007595419883728027,-0.0013539681676775217
1772795098230605600,2.48560546875,0.0011017738142982125,-0.002014689613133669,-0.0012762038968503475
1772795098240649500,2.4956494140625,0.00033706321846693754,-0.0034177913330495358,-0.0013538404600694776
1772795098250693600,2.505693603515625,0.0002694189315661788,-0.0007013669237494469,0.0014856219058856368
1772795098260737500,2.515737548828125,-0.0007487477269023657,0.00007694074884057045,-0.0018969570519402623
1772795098270782500,2.525782470703125,0.0010773817775771022,0.0018271701410412788,-0.002339308150112629
1772795098280826600,2.53582666015625,-0.0012287365971133113,0.0008297101594507694,0.00003187614493072033
1772795098290870500,2.54587060546875,-0.000451626256108284,-0.0012885681353509426,0.0002941975835710764
1772795098300915500,2.55591552734375,0.0015423926524817944,-0.0008132141083478928,0.0009184782393276691
1772795098310960000,2.565960205078125,-0.0005415310151875019,0.0009809578768908978,0.0020489899907261133
1772795098321004000,2.576004150390625,0.0002146253827959299,-0.0016287346370518208,-0.0016953437589108944
1772795098331048000,2.5860478515625,0.0018769704038277268,0.0007204399444162846,-0.0016956101171672344
1772795098341093000,2.596093017578125,-0.0011929725296795368,0.00046958262100815773,0.0018465629545971751
1772795098351137300,2.60613720703125,-0.001363148563541472,0.0005641249008476734,-0.0008046138100326061
1772795098361181000,2.616180908203125,0.0019165774574503303,-0.0001253676600754261,-0.0011327455285936594
1772795098371226000,2.62622607421875,-0.002466719364747405,0.0010861046612262726,-0.0010669655166566372
1772795098381270300,2.636270263671875,-0.0009263888350687921,-0.0017483565025031567,-0.0010427129454910755
1772795098391314000,2.64631396484375,-0.003006317652761936,0.0016234712675213814,0.001326701370999217
1772795098401359000,2.656359130859375,-0.00022754422388970852,-0.0023826519027352333,-0.001100462395697832
1772795098411403300,2.6664033203125,-0.0007223595166578889,0.0005971589125692844,0.000016467412933707237
1772795098421447000,2.676447021484375,-0.001430033822543919,-0.0002748072147369385,-0.0017862212844192982
1772795098431491000,2.686490966796875,0.0005023558624088764,-0.0002353927120566368,-0.0001031035790219903
1772795098441536300,2.696536376953125,-0.001828586682677269,-0.0008611143566668034,0.0006208394188433886
1772795098451580200,2.706580078125,0.00009767781011760235,-0.001709863543510437,0.0003228316782042384
1772795098461624000,2.7166240234375,-0.001734181889332831,-0.001014776062220335,0.0003326298901811242
1772795098471669200,2.726669189453125,-0.002264417242258787,0.00038072047755122185,0.0022679492831230164
1772795098481713200,2.736713134765625,0.0003151567652821541,0.0014743190258741379,0.0017705883365124464
1772795098491757000,2.746757080078125,-0.0005194778786972165,-0.00051479646936059,-0.0004587438888847828
1772795098501801000,2.756801025390625,-0.0005796318291686475,-0.0014902399852871895,-0.00030445423908531666
1772795098511846100,2.76684619140625,0.002206300850957632,0.0005153869278728962,0.0011483000125735998
1772795098521890000,2.77689013671875,-0.0017413044115528464,-0.000472385436296463,0.00020067824516445398
1772795098531934000,2.786933837890625,0.00140735087916255,0.000879435334354639,0.0009538200683891773
1772795098541979100,2.796979248046875,-0.000643028412014246,-0.000603776890784502,0.0005071581108495593
1772795098552023300,2.807023193359375,0.0009498081635683775,-0.0015433402732014656,0.002134881913661957
1772795098562067000,2.81706689453125,0.0012712234165519476,0.00003532087430357933,-0.0014299742178991437
1772795098572111000,2.827111083984375,-0.0002031025942414999,0.0005897912196815014,-0.002775136847048998
1772795098582156300,2.83715625,-0.000964110076893121,0.00033933622762560844,-0.000172692583873868
1772795098592200000,2.847199951171875,0.0035499478690326214,-0.0011024991981685162,0.0003732554614543915
1772795098602244000,2.857244140625,0.0010997665813192725,-0.001799526158720255,-0.0032842340879142284
1772795098612289300,2.867289306640625,-0.00009892217349261045,0.0017523318529129028,-0.0023553234059363604
1772795098622333000,2.8773330078125,-0.0004253071965649724,-0.0017209481447935104,0.000903652748093009
1772795098632377000,2.887377197265625,-0.00155448738951236,-0.00020108185708522797,-0.0007224734290502965
1772795098642421000,2.8974208984375,-0.0001235977979376912,-0.002702166559174657,-0.0008382615051232278
1772795098652466200,2.907466064453125,-0.00004796404391527176,0.0008310494013130665,-0.0014790180139243603
1772795098662510000,2.917510009765625,0.0004019406624138355,0.00003659119829535484,-0.0009398661204613745
1772795098672554000,2.927553955078125,0.0010418981546536088,0.0008467244915664196,-0.0007417269516736269
1772795098682599200,2.93759912109375,-0.0006185658276081085,-0.00004966370761394501,0.0013475960586220026
1772795098692643000,2.94764306640625,0.0010336593259125948,0.00043130340054631233,0.001580356154590845
1772795098702687000,2.95768701171875,-0.0006068087532185018,0.0013158032670617104,-0.0009596931049600244
1772795098712731100,2.967731201171875,-0.00012637453619390726,-0.00030526239424943924,-0.000354622898157686
1772795098722776000,2.977776123046875,-0.0018395294900983572,-0.0016922848299145699,-0.001052818144671619
1772795098732820000,2.987820068359375,0.00011523079592734575,0.001471283845603466,0.0013903657672926784
1772795098742864100,2.997864013671875,-0.000508392695337534,-0.0006140824407339096,0.00005576096009463072
1772795098752909000,3.007908935546875,0.001797372242435813,0.0006618378683924675,0.00009384425356984138
1772795098762953000,3.017952880859375,0.00019569997675716877,-0.001005722675472498,-0.0014818860217928886
1772795098772997000,3.0279970703125,-0.0007385369390249252,0.0008065584115684032,0.0010121642844751477
1772795098783041000,3.038041015625,-0.000056441291235387325,0.0009116013534367085,0.0009231752483174205
1772795098793086000,3.0480859375,0.0020503855776041746,-0.002195775043219328,0.0008930814219638705
1772795098803130000,3.058130126953125,0.00044101313687860966,-0.0008116932585835457,-0.00017133902292698622
1772795098813174000,3.068174072265625,-0.0007638009265065193,-0.0002854526974260807,0.0008076390950009227
1772795098823219000,3.078218994140625,-0.0017542699351906776,0.001576458103954792,-0.0002828248543664813
1772795098833263000,3.08826318359375,-0.00020830496214330196,-0.0006811032071709633,0.00033636006992310286
1772795098843307000,3.09830712890625,0.0012099582236260176,0.000416044145822525,0.002182731870561838
1772795098853351200,3.10835107421875,-0.00211419933475554,0.001305007841438055,-0.001157937222160399
1772795098863396000,3.11839599609375,-0.0011981818825006485,0.0004868721589446068,0.0000842764275148511
1772795098873440000,3.12843994140625,-0.0011137595865875483,-0.00021114246919751167,-0.0015967108774930239
1772795098883484200,3.138484130859375,-0.0019363043829798698,0.00009827455505728722,-0.0005645028431899846
1772795098893529000,3.148529052734375,-0.0013219130923971534,0.0002263728529214859,-0.00253577483817935
1772795098903573000,3.158572998046875,0.00022940721828490496,-0.00032318755984306335,-0.0006607684772461653
1772795098913617200,3.1686171875,0.000731945619918406,0.000565775204449892,0.002064444124698639
1772795098923661000,3.1786611328125,-0.0008836562628857791,-0.00032933102920651436,0.001249558525159955
1772795098933706000,3.1887060546875,0.0022357041016221046,-0.0002848566509783268,-0.0007946839323267341
1772795098943750100,3.198750244140625,-0.0015023612650111318,-0.00010092975571751595,-0.0006055301055312157
1772795098953794000,3.2087939453125,-0.0005550748319365084,0.0011243908666074276,-0.001573322806507349
1772795098963839000,3.2188388671875,0.0015490697696805,-0.0017553148791193962,0.0024740751832723618
1772795098973883100,3.228883056640625,-0.0025013317354023457,0.0006098384037613869,-0.0004189169267192483
1772795098983927000,3.238927001953125,0.001737874699756503,0.0014622765593230724,-0.00040671852184459567
1772795098993971200,3.24897119140625,0.0009104306809604168,-0.001093825325369835,0.0010598842054605484
1772795099004016000,3.25901611328125,-0.0014129417249932885,-0.0017793313600122929,0.0023733254056423903
1772795099014060000,3.26906005859375,0.0021453078370541334,-0.00026905257254838943,0.0010087215341627598
1772795099024104200,3.279104248046875,-0.00036697660107165575,-0.0014941892586648464,-0.0007487179827876389
1772795099034149000,3.289149169921875,-0.0014050768222659826,0.003413483500480652,-0.000012353993952274323
1772795099044193000,3.299193115234375,-0.0003887395141646266,-0.0006812745705246925,-0.0006825373275205493
1772795099054237200,3.3092373046875,-0.0014683849876746535,0.0008037039078772068,-0.0008612354286015034
1772795099064282000,3.3192822265625,-0.000503112212754786,-0.0005691507831215858,-0.0013711440842598677
1772795099074326000,3.329325927734375,0.0005919795949012041,0.0015941355377435684,-0.001053695334121585
1772795099084370200,3.3393701171875,0.0016242885030806065,-0.001649209763854742,0.0014373960439115763
1772795099094414000,3.3494140625,0.0003435742110013962,-0.0036761416122317314,-0.0017458804650232196
1772795099104459000,3.359458984375,0.0007514647440984845,-0.002423237543553114,-0.00023848231649026275
1772795099114503200,3.369503173828125,0.001287558930926025,0.002115321811288595,-0.00020332855638116598
1772795099124547000,3.379547119140625,0.000845188507810235,0.001614630687981844,-0.00010029890108853579
1772795099134592000,3.389592041015625,-0.000532464706338942,-0.00043919961899518967,-0.000817754422314465
1772795099144636200,3.39963623046875,0.0019254928920418024,0.0007576476782560349,0.001867108279839158
1772795099154680000,3.40968017578125,-0.0005887975567020476,-0.0006596865132451057,-0.0007798075675964355
1772795099164724200,3.41972412109375,-0.0004900337662547827,0.0012695342302322388,0.0007119824877008796
1772795099174769200,3.42976904296875,-0.0006085444474592805,-0.0018634083680808544,0.000659518176689744
1772795099184813000,3.43981298828125,-0.0004763422766700387,-0.0009997510351240635,-0.0007928857812657952
1772795099194857200,3.449857177734375,-0.0005740803317166865,-0.001139034517109394,0.0007978202775120735
1772795099204902100,3.459902099609375,-0.000985506922006607,-0.0008746269159018993,0.0013416403671726584
1772795099214946000,3.469946044921875,0.0020094839856028557,-0.00040324730798602104,-0.0010006099473685026
1772795099224990200,3.479990234375,-0.00039981200825423,0.0004663965664803982,0.0011721549089998007
1772795099235034000,3.4900341796875,-0.0003595981979742646,-0.0018952945247292519,-0.0009045781334862113
1772795099245079000,3.5000791015625,-0.0006527742370963097,0.0010056095197796822,-0.0015226163668558002
1772795099255123200,3.510123291015625,0.0010593720944598317,-0.0007898937910795212,-0.000983326230198145
1772795099265167000,3.5201669921875,0.00004351162351667881,0.00009765522554516792,-0.0037375795654952526
1772795099275212000,3.5302119140625,0.0006573701975867152,-0.0006072837859392166,-0.0027066702023148537
1772795099285256200,3.540256103515625,0.00037010759115219116,-0.0003015170805156231,0.0010415016440674663
1772795099295300000,3.550300048828125,0.0007863596547394991,-0.0002445257268846035,-0.0005281655467115343
1772795099305344000,3.560343994140625,-0.001226857420988381,-0.00044232048094272614,0.0014174273237586021
1772795099315389000,3.570388916015625,-0.0019230077741667628,-0.0015320861712098122,-0.0007684953743591905
1772795099325433000,3.58043310546875,0.0009055309928953648,-0.0005196849815547466,0.00103558914270252
1772795099335477000,3.59047705078125,0.00009459839202463627,-0.000136455986648798,-0.0005215610726736486
1772795099345522000,3.60052197265625,0.0017758789472281933,-0.00012579094618558884,-0.00021453737281262875
1772795099355566000,3.610566162109375,0.0017228820361196995,-0.0005210037343204021,-0.001080597285181284
1772795099365610000,3.62060986328125,-0.0015914405230432749,0.0005660420283675194,0.000266574090346694
1772795099375654000,3.63065380859375,-0.0000814282102510333,-0.0008299872279167175,-0.0005851047462783754
1772795099385699000,3.640698974609375,-0.0008908682502806187,-0.0005554738454520702,0.0025125090032815933
1772795099395743000,3.650742919921875,-0.002693561837077141,0.00014813337475061417,0.0003630716819316149
1772795099405787000,3.660786865234375,-0.0011594871757552028,0.0022494960576295853,0.001352897030301392
1772795099415832000,3.67083203125,-0.0008476310176774859,0.0019805170595645905,-0.0009227741393260658
1772795099425876000,3.6808759765625,0.00032370281405746937,0.00006365543231368065,0.0014749412657693028
1772795099435920100,3.690920166015625,-0.000361262122169137,0.001065004151314497,0.0011950429761782289
1772795099445965000,3.700965087890625,0.0005826745182275772,-0.002546936273574829,0.00007370114326477051
1772795099456009000,3.711009033203125,-0.001149179064668715,0.0004941276274621487,-0.0011103402357548475
1772795099466053000,3.72105322265625,0.0005223843036219478,-0.0019259252585470676,0.0014967580791562796
1772795099476096800,3.7310966796875,0.0010355754056945443,-0.0018031536601483822,-0.0001906207180581987
1772795099486142000,3.741141845703125,-0.0018196523888036609,-0.00028094416484236717,0.0013568876311182976
1772795099496186000,3.75118603515625,-0.0006649057031609118,-0.0005981270223855972,0.0011483619455248117
1772795099506229800,3.761229736328125,0.00038823194336146116,0.0005827276036143303,-0.001989940647035837
1772795099516275000,3.77127490234375,-0.0016030136030167341,0.0006935149431228638,0.0009211607975885272
1772795099526319000,3.781319091796875,0.0006972817936912179,0.00007037399336695671,0.00018510629888623953
1772795099536363000,3.791363037109375,-0.0006960841128602624,-0.0017214007675647736,0.0014969793846830726
1772795099546407000,3.801406982421875,0.0017665952909737825,-0.0016957465559244156,-0.0005834705661982298
1772795099556452000,3.8114521484375,-0.00027604936622083187,-0.00017747841775417328,0.0006841941503807902
1772795099566496000,3.82149609375,-0.0004698155098594725,0.0020600459538400173,0.0026425677351653576
1772795099576540000,3.831539794921875,-0.0012253543827682734,-0.0005879346281290054,0.00020630774088203907
1772795099586585000,3.841585205078125,-0.0005071196355856955,-0.00034537073224782944,-0.000370410387404263
1772795099596629000,3.85162890625,0.0003384340088814497,0.0007643685676157475,0.0011968598701059818
1772795099606673000,3.8616728515625,0.0017645510379225016,-0.0013385135680437088,-0.00020494777709245682
1772795099616717000,3.871717041015625,0.00018822611309587955,-0.00015873322263360023,0.0001207567984238267
1772795099626762000,3.881761962890625,-0.0009126801742240787,0.0012346357107162476,0.0012347712181508541
1772795099636806000,3.891805908203125,0.0013448813697323203,-0.0014471672475337982,0.0006254399195313454
1772795099646849800,3.901849853515625,0.00024859700351953506,-0.0021894066594541073,-0.0002639998565427959
1772795099656895000,3.91189501953125,0.0002917401725426316,-0.0008218735456466675,-0.0006019549909979105
1772795099666939100,3.921939208984375,-0.0002292902208864689,-0.00023092934861779213,0.0018028013873845339
1772795099676982800,3.931982666015625,-0.002279391512274742,-0.0028059398755431175,0.0009971950203180313
1772795099687027000,3.94202685546875,-0.0007119794026948512,0.0005161087028682232,-0.0010873666033148766
1772795099697072000,3.952072021484375,0.0014526378363370895,-0.0022232187911868095,0.004082893952727318
1772795099707115800,3.96211572265625,-0.0003376418026164174,0.0005415868945419788,-0.0016108175041154027
1772795099717160000,3.972159912109375,-0.00146975158713758,-0.0008187559433281422,0.0004917482146993279
1772795099727205000,3.982205078125,0.00010127725545316935,-0.00023590819910168648,0.001013543107546866
1772795099737249000,3.9922490234375,-0.0025099520571529865,0.0007459996268153191,-0.00040512270061299205
1772795099747293000,4.00229296875,-0.0024916529655456543,-0.0015486646443605423,0.00036717276088893414
1772795099757338000,4.012338134765625,-0.0013811145909130573,-0.00043626222759485245,0.00029393588192760944
1772795099767382000,4.022382080078125,-0.001883551012724638,0.0007394151762127876,0.0018841970013454556
1772795099777426000,4.032426025390625,-0.0018697025952860713,-0.0005287821404635906,0.00026739202439785004
1772795099787470000,4.042469970703125,-0.0024209110997617245,0.0009650974534451962,-0.001266851439140737
1772795099797515000,4.052514892578125,-0.0007567018619738519,0.001037003006786108,-0.0013094620080664754
1772795099807559000,4.062558837890625,0.0016577565111219883,-0.00040488364174962044,0.0014225580962374806
1772795099817602800,4.072602783203125,0.0008273827843368053,-0.0016046375967562199,0.0022960747592151165
1772795099827648000,4.08264794921875,-0.0009644001256674528,0.002997024916112423,0.0008122310973703861
1772795099837692000,4.09269189453125,-0.0024693524464964867,0.00022520730271935463,0.0005629592342302203
1772795099847735800,4.10273583984375,0.0009193517034873366,-0.0006575114093720913,0.0005581812001764774
1772795099857780000,4.112780029296875,-0.0005150268552824855,-0.0023909625597298145,0.0009640470379963517
1772795099867825200,4.1228251953125,-0.0040171220898628235,0.002056392375379801,-0.003130704862996936
1772795099877868800,4.132868896484375,0.0022676715161651373,0.0005386574193835258,-0.0003812575014308095
1772795099887913000,4.142912841796875,0.0009542028419673443,-0.0005433387123048306,0.0025340858846902847
1772795099897958100,4.152958251953125,-0.0009190647397190332,0.0006380393169820309,0.0008293964201584458
1772795099908001800,4.163001708984375,0.002205224009230733,-0.001842669676989317,-0.000391516019590199
1772795099918046000,4.1730458984375,0.0011684554629027843,-0.000009349547326564789,0.00011741404887288809
1772795099928090000,4.183090087890625,0.0002251912374049425,0.0004982929676771164,0.0003093231935054064
1772795099938134800,4.193134765625,-0.000014227000065147877,0.0012240041978657246,-0.0005266430671326816
1772795099948179000,4.203178955078125,0.00008787540718913078,0.00021146005019545555,0.000027495785616338253
1772795099958223000,4.21322314453125,-0.0018013711087405682,-0.0008530053310096264,-0.00036292365984991193
1772795099968268000,4.22326806640625,-0.0019994559697806835,0.001887875609099865,-0.0007158780354075134
1772795099978312000,4.23331201171875,-0.0012340634129941463,0.0002681412734091282,-0.0007212043274194002
1772795099988355800,4.24335595703125,-0.0016130197327584028,-0.0008330191485583782,0.000655453884974122
1772795099998400000,4.25339990234375,-0.00021699070930480957,-0.0007384768687188625,-0.000963481783401221
1772795100008445000,4.26344482421875,-0.0005955781671218574,0.0012488639913499355,0.001178992330096662
1772795100018488800,4.27348876953125,0.000008693081326782703,-0.0006134845316410065,-0.000998940784484148
1772795100028533000,4.283532958984375,0.0012346634175628424,0.001072135753929615,-0.0004529854631982744
1772795100038578000,4.293577880859375,-0.00028813211247324944,0.00016293255612254143,-0.0013789664953947067
1772795100048621800,4.303621826171875,-0.0027084918692708015,-0.000713918823748827,0.000015590805560350418
1772795100058666000,4.313666015625,0.0003520126920193434,0.0011412394233047962,-0.0013940202770754695
1772795100068711200,4.323711181640625,-0.0015265278052538633,-0.00010896660387516022,0.000759318470954895
1772795100078754800,4.3337548828125,-0.0009459586581215262,-0.0013683754950761795,0.00182697968557477
1772795100088799000,4.343799072265625,-0.0010090912692248821,0.0009096791036427021,0.0009901353623718023
1772795100098843100,4.353843017578125,-0.0007246656459756196,0.0013083540834486485,0.000745657249353826
1772795100108887800,4.3638876953125,-0.00043190736323595047,-0.0003205854445695877,-0.000747244746889919
1772795100118932000,4.373931884765625,-0.0009347121231257915,0.0009590634144842625,-0.000001027015969157219
1772795100128976000,4.383975830078125,-0.000752159277908504,-0.00021468289196491241,0.002797795692458749
1772795100139020800,4.394020751953125,-0.00036333774914965034,-0.00002027209848165512,0.0033615867141634226
1772795100149065000,4.40406494140625,0.0012289114529266953,-0.0006189788691699505,0.00044881843496114016
1772795100159108900,4.41410888671875,0.0014017507201060653,-0.002715951995924115,0.0007934315362945199
1772795100169153000,4.424153076171875,-0.0008378458442166448,-0.002653791569173336,0.002006218768656254
1772795100179198000,4.434197998046875,-0.00034729158505797386,0.001076498068869114,-0.0014843865064904094
1772795100189241900,4.444241943359375,-0.0016993411118164659,0.001412255223840475,-0.002466111909598112
1772795100199286000,4.4542861328125,0.0002935022348538041,0.0020349021069705486,0.001269238069653511
1772795100209331000,4.4643310546875,-0.0016246750019490719,-0.00016930652782320976,-0.0016309171915054321
1772795100219374800,4.474374755859375,0.0009471398079767823,-0.0020945053547620773,-0.0005824307445436716
1772795100229419000,4.4844189453125,0.00032618397381156683,-0.000965725164860487,0.0016328681958839297
1772795100239464000,4.4944638671875,-0.0017896974459290504,-0.0007787710055708885,-0.0014891554601490498
1772795100249507800,4.5045078125,-0.0009822649881243706,-0.0009340830147266388,0.002156730741262436
1772795100259552000,4.514552001953125,-0.0006965078646317124,0.0003303862176835537,-0.0015306819695979357
1772795100269596200,4.52459619140625,-0.0015516680432483554,-0.00046671880409121513,-0.0008873254992067814
1772795100279640800,4.534640869140625,-0.00027920969296246767,0.001067261677235365,-0.00023218791466206312
1772795100289685000,4.54468505859375,-0.0010544026736170053,-0.0024606394581496716,0.00014532648492604494
1772795100299729000,4.55472900390625,0.000007133348844945431,-0.000532777514308691,-0.0015748091973364353
1772795100309773600,4.564773681640625,-0.0015611323760822415,-0.0004225783050060272,0.0004901016363874078
1772795100319817500,4.5748173828125,-0.002969678258523345,0.0002682455815374851,0.002537273336201906
1772795100329861600,4.584861572265625,0.000966448918916285,0.0013223453424870968,-0.0012449135538190603
1772795100339905800,4.59490576171875,-0.0011390461586415768,0.0013348623178899288,0.0012805620208382607
1772795100349950500,4.604950439453125,-0.0014978265389800072,0.0020937505178153515,-0.0003431732766330242
1772795100359994600,4.61499462890625,-0.0004506715922616422,-0.0009499760344624519,-0.0024063242599368095
1772795100370038800,4.625038818359375,0.0023191121872514486,0.00044033443555235863,-0.00004195224028080702
1772795100380083500,4.63508349609375,-0.0007400608155876398,0.001153529155999422,-0.0005985528696328402
1772795100390127600,4.645127685546875,0.000018569407984614372,-0.0025765104219317436,-0.0005154409445822239
1772795100400171800,4.655171875,0.00004173885099589825,-0.0016593178734183311,-0.0004549872246570885
1772795100410215700,4.665215576171875,0.0012924214825034142,-0.0013256343081593513,-0.0011206582421436906
1772795100420260600,4.675260498046875,-0.0013757995329797268,-0.0008342810906469822,-0.001621865201741457
1772795100430304800,4.6853046875,-0.001115013612434268,0.001194867305457592,-0.00005942443385720253
1772795100440348700,4.6953486328125,-0.0012124852510169148,-0.0006219414062798023,0.0008604314643889666
1772795100450393600,4.7053935546875,-0.000757782137952745,0.0012950953096151352,-0.0007538216887041926
1772795100460437500,4.7154375,0.000875534606166184,-0.00038456032052636147,0.00029706163331866264
1772795100470481700,4.725481689453125,0.0003168674884364009,-0.0002507180906832218,0.0004932007286697626
1772795100480526600,4.735526611328125,-0.0012943448964506388,0.00022465595975518227,-0.002441602759063244
1772795100490570500,4.745570556640625,0.0017885480774566531,-0.0005248365923762321,0.0020467410795390606
1772795100500614700,4.75561474609375,0.0011501883855089545,-0.00032722996547818184,0.00031968101393431425
1772795100510658800,4.765658935546875,-0.000008273404091596603,-0.00018412014469504356,0.0023344354704022408
1772795100520703500,4.775703369140625,-0.0006753953057341278,-0.0002728034742176533,0.001337880385108292
1772795100530747600,4.78574755859375,-0.0005869529559276998,-0.0014653480611741543,0.0018561877077445388
1772795100540791800,4.795791748046875,-0.0011251778341829777,-0.000017653685063123703,-0.0005590331275016069
1772795100550836500,4.80583642578125,0.001320025883615017,-0.002797079971060157,-0.001033141161315143
1772795100560880600,4.815880615234375,-0.0025889617390930653,0.0012053847312927246,0.0016151061281561852
1772795100570924800,4.8259248046875,-0.00006431271322071552,0.002396564930677414,0.0004215092631056905
1772795100580968700,4.83596875,-0.00033702037762850523,0.0007515302859246731,0.0003381522838026285
1772795100591013600,4.846013671875,-0.0010223261779174209,0.0013344394974410534,0.001527794054709375
1772795100601057800,4.856057861328125,-0.0006129982648417354,0.000014842953532934189,0.0015259297797456384
1772795100611101700,4.866101806640625,0.0005335557507351041,-0.0006944038905203342,0.0009107030928134918
1772795100621146600,4.876146728515625,-0.0003210526192560792,-0.0003601768985390663,0.0033405714202672243
1772795100631190500,4.8861904296875,-0.000492254679556936,-0.0002661687321960926,0.0012095302809029818
1772795100641234700,4.896234619140625,0.0010710209608078003,-0.0014534061774611473,0.0011876921635121107
1772795100651279600,4.906279541015625,0.0013919861521571875,-0.00005341414362192154,0.00047018914483487606
1772795100661323500,4.916323486328125,0.0029510005842894316,0.0013522026129066944,-0.0008318302570842206
1772795100671367700,4.92636767578125,-0.0008920888649299741,-0.0005002962425351143,0.0014305569930002093
1772795100681411800,4.936411865234375,-0.001302481978200376,-0.0014595668762922287,-0.0011511113261803985
1772795100691456500,4.94645654296875,-0.0004260044079273939,-0.00036873435601592064,0.00005796528421342373
1772795100701500700,4.956500732421875,-0.00004144397098571062,0.000001444946974515915,-0.000010477961041033268
1772795100711544800,4.966544921875,-0.0035689882934093475,-0.0013057845644652843,0.0006485964404419065
1772795100721589500,4.976589599609375,-0.0013567002024501562,-0.000037054531276226044,0.00006776093505322933
1772795100731633700,4.986633544921875,-0.0006668625865131617,-0.0011602542363107204,-0.00254523241892457
1772795100741677800,4.996677734375,-0.0015654130838811398,0.0004743938334286213,0.00038238056004047394
1772795100751721700,5.0067216796875,-0.000113861751742661,0.0004780814051628113,-0.0005680634058080614
1772795100761766700,5.0167666015625,-0.0015383865684270859,0.00041975826025009155,0.0011747092939913273
1772795100771810800,5.026810791015625,-0.00042772787855938077,-0.0016481587663292885,0.0006271697347983718
1772795100781854700,5.036854736328125,-0.0011427865829318762,-0.00005212659016251564,-0.0005880306707695127
1772795100791899600,5.046899658203125,-0.00024900888092815876,0.0000989232212305069,-0.0024197883903980255
1772795100801943600,5.056943603515625,-0.001243433216586709,-0.0004286486655473709,0.0023360848426818848
1772795100811987700,5.06698779296875,-0.0011291985865682364,-0.0015729442238807678,0.0004242360591888428
1772795100822031600,5.077031494140625,-0.0014349294360727072,-0.0008949032053351402,-0.0010815152199938893
1772795100832076500,5.08707666015625,-0.0013035036390647292,0.0002808687277138233,0.0008561050053685904
1772795100842120700,5.09712060546875,0.002151148859411478,-0.0006272690370678902,0.0006734122289344668
1772795100852164900,5.107164794921875,-0.00010172801557928324,-0.0003409292548894882,0.0011961334384977818
1772795100862209500,5.11720947265625,0.001475928584113717,-0.0002533113583922386,0.0011934703215956688
1772795100872253700,5.127253662109375,-0.0006261537200771272,0.00007744831964373589,-0.00005193974357098341
1772795100882297900,5.1372978515625,0.0005914435023441911,0.0012005032040178776,0.00280856154859066
1772795100892342500,5.147342529296875,0.001976978499442339,0.0005123186856508255,0.0008112294599413872
1772795100902386700,5.15738671875,0.00021929212380200624,-0.0006413627415895462,-0.00126310670748353
1772795100912430800,5.167430908203125,-0.0011882634134963155,-0.0002537020482122898,0.0007276837714016438
1772795100922474500,5.177474609375,0.0012171035632491112,-0.0021357578225433826,0.0012581853661686182
1772795100932519700,5.187519775390625,-0.001675933599472046,-0.0004717521369457245,-0.0006975537398830056
1772795100942563600,5.1975634765625,0.000804800889454782,0.0019711656495928764,-0.001713549718260765
1772795100952607700,5.207607666015625,0.001324203098192811,0.0016057146713137627,-0.0013044257648289204
1772795100962652700,5.217652587890625,0.00005227734800428152,-0.0008664974011480808,-0.0010218643583357334
1772795100972696600,5.227696533203125,0.0007169937016442418,-0.0008779088966548443,0.00027446262538433075
1772795100982740700,5.23774072265625,-0.0008814355824142694,-0.0005415515042841434,-0.0016861564945429564
1772795100992784600,5.24778466796875,-0.001712600700557232,0.0013899235054850578,-0.0014151978539302945
1772795101002829600,5.25782958984375,-0.0013030065456405282,0.000968610867857933,-0.0010226478334516287
1772795101012873700,5.267873779296875,-0.00036150176310911775,-0.0004910547286272049,0.0001959766959771514
1772795101022917600,5.277917724609375,-0.0026313140988349915,0.0011036461219191551,-0.00009856885299086571
1772795101032962600,5.287962646484375,0.0004247804172337055,-0.001327467616647482,-0.0013653421774506569
1772795101043006700,5.2980068359375,0.0023355986922979355,-0.0005373074673116207,-0.0016668119933456182
1772795101053051000,5.30805078125,-0.0007458219770342112,0.000795974861830473,-0.0009888206841424108
1772795101063095600,5.318095458984375,0.0005039995303377509,-0.0007771546952426434,0.0009446342010051012
1772795101073139700,5.3281396484375,-0.0007012709975242615,-0.000627483706921339,0.0014541152631863952
1772795101083183900,5.338183837890625,0.0004625304136425257,-0.0005925963632762432,-0.0004694860544987023
1772795101093227500,5.3482275390625,0.0005818416830152273,0.000451116356998682,-0.0004437582683749497
1772795101103272700,5.358272705078125,-0.00013295072130858898,0.0007981262169778347,0.0010414867429062724
1772795101113316600,5.368316650390625,-0.0009504979243502021,0.0017151441425085068,0.00041666359174996614
1772795101123360500,5.378360595703125,0.0005872112233191729,0.0016293898224830627,0.0007689998019486666
1772795101133405700,5.38840576171875,0.0004603790584951639,-0.0004516979679465294,-0.003538624383509159
1772795101143449600,5.39844970703125,0.0007914099842309952,-0.0005845897831022739,0.00202178955078125
1772795101153493800,5.40849365234375,0.00020102260168641806,-0.00024243630468845367,0.001061449758708477
1772795101163537700,5.41853759765625,-0.0004144340055063367,-0.0002437680959701538,-0.0016091682482510805
1772795101173582600,5.42858251953125,-0.001144856563769281,-0.0014061634428799152,0.002094991970807314
1772795101183626800,5.438626708984375,0.0013816843274980783,-0.0011867191642522812,0.0004957638448104262
1772795101193670700,5.448670654296875,0.00034635025076568127,0.00032819947227835655,-0.00004573562182486057
1772795101203715600,5.458715576171875,0.000547951553016901,0.00025895750150084496,-0.0017275218851864338
1772795101213759700,5.468759765625,-0.0007413008715957403,0.0023949425667524338,-0.0007100658840499818
1772795101223803600,5.4788037109375,0.002303224988281727,-0.0008048457093536854,0.0010518815834075212
1772795101233847600,5.48884765625,0.0005854510236531496,-0.00023454241454601288,0.0005430158926174045
1772795101243892700,5.498892822265625,-0.0023727882653474808,-0.00013174442574381828,0.0007989456644281745
1772795101253936600,5.5089365234375,0.0008123358711600304,-0.000023134052753448486,0.0011106055462732911
1772795101263980500,5.51898046875,-0.00007715984247624874,0.0011055138893425465,0.00045413628686219454
1772795101274025700,5.529025634765625,-0.0012904501054435968,0.00006764708086848259,-0.0021229167468845844
1772795101284069600,5.539069580078125,0.0009351536864414811,0.0022551678121089935,-0.0012299588415771723
1772795101294113500,5.549113525390625,-0.0005781959625892341,-0.0015251324512064457,-0.0009803075809031725
1772795101304158700,5.55915869140625,-0.00006979855243116617,0.0018576146103441715,-0.0013217248488217592
1772795101314203000,5.569202880859375,-0.0010366789065301418,0.0011846846900880337,-0.0016562838573008776
1772795101324246800,5.579246826171875,0.0007007673848420382,0.00015910109505057335,0.00025719741825014353
1772795101334291000,5.589291015625,0.0004329680232331157,-0.0004332675598561764,-0.0012202473590150476
1772795101344336000,5.5993359375,-0.0011484170099720359,-0.00022127991542220116,-0.0013781727757304907
1772795101354379800,5.6093798828125,0.00016934913583099842,-0.0014474405907094479,-0.0007969500147737563
1772795101364424000,5.619423828125,-0.0008855289779603481,-0.0016269376501441002,0.0013759230496361852
1772795101374468900,5.62946875,-0.002419267315417528,0.0023909443989396095,-0.000026462948881089687
1772795101384513000,5.639512939453125,0.00009928399231284857,-0.0006855390965938568,0.0003048343351110816
1772795101394557000,5.649556884765625,0.0016245224978774786,0.001063663512468338,0.0017700798343867064
1772795101404600800,5.659600830078125,-0.0005829717847518623,0.0023174798116087914,0.0004262488801032305
1772795101414646000,5.66964599609375,-0.0013251559576019645,0.003269909881055355,-0.0012042970629408956
1772795101424690000,5.67968994140625,0.0005246757064014673,0.0016765408217906952,0.0002620393643155694
1772795101434733800,5.68973388671875,0.0012683222303166986,0.0011624116450548172,0.0008160043507814407
1772795101444779000,5.699779052734375,-0.00007524259854108095,-0.0012197857722640038,-0.0005435394123196602
1772795101454823000,5.709822998046875,0.0008025661809369922,-0.00001334305852651596,-0.0020183376036584377
1772795101464866800,5.71986669921875,0.0009277347708120942,-0.002631762996315956,0.0020573639776557684
1772795101474912000,5.729912109375,0.0003064896445721388,-0.000523280818015337,0.0028370684012770653
1772795101484956000,5.739955810546875,0.00016134732868522406,-0.0020503373816609383,-0.0007187843439169228
1772795101494999800,5.749999755859375,0.0002398656215518713,0.0007522930391132832,0.0027269802521914244
1772795101505044000,5.7600439453125,0.0011844888795167208,0.0001610713079571724,0.0011346761602908373
1772795101515089000,5.7700888671875,-0.0010891907149925828,-0.0007791486568748951,0.0003141943598166108
1772795101525132800,5.7801328125,0.0019987444393336773,-0.00017727399244904518,0.0006164631340652704
1772795101535177000,5.790177001953125,0.001738579012453556,0.0006414358504116535,0.0007770375814288855
1772795101545222000,5.800221923828125,0.0023886566050350666,-0.0005069193430244923,0.0011339010670781136
1772795101555265800,5.810265869140625,-0.0023596377577632666,0.0022282376885414124,-0.00044326228089630604
1772795101565310000,5.82031005859375,0.0023738646414130926,-0.0002812589518725872,-0.00038440641947090626
1772795101575353900,5.830353759765625,0.00031330797355622053,0.0009922399185597897,0.0006769027095288038
1772795101585399000,5.84039892578125,-0.00028457166627049446,0.00246842997148633,0.0009075324051082134
1772795101595443000,5.85044287109375,-0.000026987981982529163,0.0032797683961689472,-0.0026606942992657423
1772795101605486800,5.86048681640625,0.001452131662517786,0.00042006606236100197,-0.0023224728647619486
1772795101615532000,5.870531982421875,0.0015345144784078002,0.0009842398576438427,0.0021687860134989023
1772795101625576000,5.880575927734375,0.0014152048388496041,-0.00006397999823093414,-0.002435286995023489
1772795101635619800,5.890619873046875,0.0014833348104730248,-0.0004763202741742134,0.0008874426130205393
1772795101645664000,5.9006640625,-0.0014480064855888486,-0.0014379876665771008,0.001116740982979536
1772795101655708700,5.910708740234375,-0.002524313051253557,-0.0014852178283035755,-0.0015637006144970655
1772795101665752800,5.9207529296875,0.0013423303607851267,0.00030442653223872185,-0.001317624468356371
1772795101675797000,5.930796875,0.0010596145875751972,-0.0006180005148053169,0.0022663953714072704
1772795101685842000,5.940842041015625,-0.0002932713250629604,-0.0016907216049730778,-0.00016640231478959322
1772795101695885800,5.9508857421875,0.000738050090149045,-0.0006787702441215515,-0.0020177720580250025
1772795101705930000,5.960929931640625,0.0006994343129917979,0.0017833216115832329,0.00027947069611400366
1772795101715975000,5.970974853515625,-0.0013357908464968204,0.000687318854033947,-0.0011823056265711784
1772795101726018800,5.981018798828125,-0.0012566950172185898,0.0013698874972760677,-0.00021424656733870506
1772795101736063000,5.99106298828125,-0.00038643222069367766,0.00109176617115736,-0.00414486788213253
1772795101746107000,6.00110693359375,0.0011970832711085677,-0.00024008052423596382,0.0002775774337351322
1772795101756151800,6.01115185546875,-0.0025665147695690393,-0.00011782627552747726,0.00022913876455277205
1772795101766196000,6.021196044921875,-0.000013608601875603199,0.0005399743095040321,0.0005697570741176605
1772795101776239900,6.031239990234375,-0.00033991801319643855,0.0011408356949687004,-0.0025975999888032675
1772795101786284800,6.041284912109375,0.0014803524827584624,-0.0013502850197255611,0.0028592171147465706
1772795101796329000,6.051328857421875,0.0023826390970498323,0.0005130930803716183,0.0010134837357327342
1772795101806372900,6.061372802734375,-0.00008504593279212713,-0.0006435178220272064,0.004179183393716812
1772795101816418000,6.07141796875,-0.00007358752191066742,0.001054166816174984,0.0007332251407206059
1772795101826461700,6.081461669921875,-0.00040222163079306483,-0.0005778181366622448,0.002433120971545577
1772795101836505900,6.091505859375,-0.00046361563727259636,0.0019030272960662842,-0.002100530546158552
1772795101846550000,6.101550048828125,0.0008205607300624251,0.0009554745629429817,-0.00160598149523139
1772795101856594700,6.1115947265625,-0.0010139689547941089,0.00016367249190807343,-0.0003758387756533921
1772795101866638800,6.121638916015625,-0.00006162258796393871,0.0009764693677425385,0.0001219060504809022
1772795101876683000,6.13168310546875,-0.0005224052001722157,-0.0016097943298518658,0.0022616367787122726
1772795101886728000,6.14172802734375,0.0006738867377862334,-0.0010848850943148136,0.001206225948408246
1772795101896771800,6.151771728515625,-0.0010575124761089683,0.0012617320753633976,-0.0004007109091617167
1772795101906816000,6.16181591796875,0.0009190855780616403,0.000556260347366333,0.003357542213052511
1772795101916860000,6.17185986328125,0.0009539576712995768,0.00027272943407297134,-0.002290094969794154
1772795101926904800,6.18190478515625,0.00004022708162665367,0.0004058876074850559,0.0012143586063757539
1772795101936949000,6.191948974609375,0.0008458155207335949,0.0008047930896282196,0.0004621852422133088
1772795101946993000,6.201992919921875,-0.0008945602457970381,0.003210693132132292,-0.000656076124869287
1772795101957037800,6.212037841796875,0.0019973518792539835,0.0011827154085040092,0.0010471465066075325
1772795101967081700,6.222081787109375,0.0008431377355009317,0.0003462163731455803,0.001352611230686307
1772795101977126000,6.2321259765625,0.0011132184881716967,0.000757833942770958,-0.0010663821594789624
1772795101987170000,6.242170166015625,-0.0002825442934408784,0.00027526915073394775,-0.0014229794032871723
1772795101997214700,6.252214599609375,0.002535331528633833,0.0020226314663887024,0.000468377023935318
1772795102007259000,6.2622587890625,-0.001272456138394773,0.00036561302840709686,-0.0008722583297640085
1772795102017303000,6.272302978515625,0.0018351132748648524,0.0014145956374704838,0.0013170273741707206
1772795102027347700,6.28234765625,0.00036744517274200916,0.0012164567597210407,-0.0008052455959841609
1772795102037392000,6.292391845703125,-0.00016494712326675653,0.0011334600858390331,-0.0015313737094402313
1772795102047436000,6.30243603515625,0.00029125227592885494,0.0002016201615333557,0.0013088876148685813
1772795102057480700,6.312480712890625,0.0003782120766118169,-0.00019076280295848846,0.0008669676026329398
1772795102067524900,6.32252490234375,0.0008282862836495042,0.00034080399200320244,0.0024776472710072994
1772795102077569000,6.332569091796875,0.0002682602498680353,0.0005876524373888969,-0.0016826828941702843
1772795102087613000,6.342613037109375,0.00007438217289745808,-0.00128907710313797,0.0013362765312194824
1772795102097657900,6.352657958984375,0.0010545955738052726,0.0009219544008374214,-0.0005294905859045684
1772795102107702000,6.362701904296875,-0.00036247249227017164,-0.0004815314896404743,0.0004835758591070771
1772795102117746000,6.372745849609375,-0.0006999719771556556,0.0019898139871656895,0.0012658127816393971
1772795102127790800,6.382790771484375,-0.0004610863979905844,-0.0008304733783006668,0.004027777351438999
1772795102137834800,6.392834716796875,-0.0015242563094943762,0.0003614029847085476,0.00048367574345320463
1772795102147879000,6.40287890625,-0.0036939335986971855,0.0017140218988060951,-0.0018649660050868988
1772795102157923000,6.412923095703125,0.0032028374262154102,0.0019446075893938541,-0.0016542633529752493
1772795102167967700,6.4229677734375,0.000392137560993433,-0.0016487957909703255,0.002845147391781211
1772795102178012000,6.433011962890625,0.00022081728093326092,0.0013079927302896976,-0.0011382052907720208
1772795102188056000,6.44305615234375,0.002199545968323946,0.00008879788219928741,0.0012599712936207652
1772795102198100700,6.453100830078125,-0.0009878526907414198,0.00005269749090075493,-0.0003931786632165313
1772795102208145000,6.463144775390625,0.000015360070392489433,-0.0024757073260843754,0.0013677034294232726
1772795102218189000,6.47318896484375,0.0021202892530709505,-0.00002038152888417244,0.00017819972708821297
1772795102228233700,6.483233642578125,-0.0005157075356692076,-0.0000850963406264782,0.0029257829301059246
1772795102238278000,6.49327783203125,0.00014159746933728456,0.0008460721001029015,-0.0008621197193861008
1772795102248322000,6.503322021484375,0.0009298931108787656,-0.0006655380129814148,-0.001966266194358468
1772795102258366000,6.513365966796875,-0.000718569615855813,-0.0013006143271923065,-0.0003629603306762874
1772795102268411000,6.523410888671875,0.003172042313963175,-0.0012907609343528748,0.0032099366653710604
1772795102278455000,6.533455078125,0.00038107321597635746,0.0006213774904608727,0.0008552607614547014
1772795102288499000,6.5434990234375,-0.00008444732520729303,0.0003297613002359867,0.0000651009613648057
1772795102298543900,6.5535439453125,-0.0008553994121029973,-0.0010169283486902714,0.000027110334485769272
1772795102308588500,6.563588623046875,0.0016319929854944348,0.0009032106027007103,0.0014034319901838899
1772795102318632700,6.5736328125,-0.00033008644822984934,-0.00043279770761728287,-0.000020703650079667568
1772795102328676400,6.58367626953125,-0.00030531903030350804,-0.00014783954247832298,-0.002749911043792963
1772795102338721500,6.593721435546875,0.001338756992481649,0.002038190606981516,-0.0016325302422046661
1772795102348765400,6.603765380859375,0.001050070277415216,0.0004610670730471611,-0.0008817850612103939
1772795102358809300,6.613809326171875,-0.00010948465205729008,-0.0007420978508889675,0.0005867119180038571
1772795102368854500,6.6238544921875,0.002152071800082922,0.0005324911326169968,0.0004490264691412449
1772795102378898400,6.6338984375,-0.00030454230727627873,-0.00044065946713089943,0.0018974471604451537
1772795102388942600,6.643942626953125,-0.0005556783871725202,-0.0005684909410774708,0.00015840295236557722
1772795102398987500,6.653987548828125,-0.0005571029614657164,-0.0009297290816903114,-0.0010849611135199666
1772795102409031400,6.664031494140625,0.0015736923087388277,0.0014806981198489666,0.0029262921307235956
1772795102419075600,6.67407568359375,0.0016989767318591475,0.0011407462880015373,-0.001050135469995439
1772795102429119500,6.684119384765625,0.0004664658335968852,-0.00017219176515936852,0.0006116770673543215
1772795102439164400,6.694164306640625,-0.0004110174486413598,0.002284395042806864,0.0005996871041134
1772795102449208600,6.70420849609375,0.0008254883578047156,-0.00006744218990206718,0.001706496812403202
1772795102459252500,6.71425244140625,0.0005236417055130005,0.0011477172374725342,-0.0040777637623250484
1772795102469297400,6.72429736328125,0.0005923513090237975,0.00007792562246322632,0.0031122383661568165
1772795102479341600,6.734341552734375,-0.0016944905510172248,0.00041488418355584145,-0.002679967088624835
1772795102489385700,6.7443857421875,-0.00023108359891921282,0.004309224896132946,0.0004364639753475785
1772795102499430400,6.754430419921875,-0.0006044526817277074,0.0008356980979442596,-0.0004888541297987103
1772795102509474600,6.764474609375,-0.0019272447098046541,0.00036405259743332863,-0.0005405194242484868
1772795102519518500,6.7745185546875,-0.00039265560917556286,0.0010678726248443127,0.0020340117625892162
1772795102529562400,6.784562255859375,-0.00023579539265483618,0.0017280704341828823,-0.0011327529791742563
1772795102539607600,6.794607666015625,0.0004613125929608941,0.0004071672447025776,-0.00027831492479890585
1772795102549651500,6.8046513671875,0.001559067633934319,0.002686033956706524,0.0007704377640038729
1772795102559695400,6.8146953125,-0.0010109274880960584,0.0015499661676585674,-0.001627120072953403
1772795102569740500,6.824740478515625,0.0017686138162389398,0.0024061729200184345,-0.0016020863549783826
1772795102579784400,6.834784423828125,-0.0017628283239901066,-0.0006942343898117542,-0.00015098636504262686
1772795102589828600,6.84482861328125,0.00027289194986224174,0.0025473646819591522,0.0006591471610590816
1772795102599872500,6.85487255859375,-0.000043428270146250725,-0.0014932528138160706,0.0036333086900413036
1772795102609917400,6.86491748046875,0.00020504463464021683,-0.0003249240107834339,-0.0012077855644747615
1772795102619961600,6.874961669921875,-0.000634203664958477,-0.0016099526546895504,0.0009618060430511832
1772795102630005500,6.885005615234375,-0.0003971823025494814,0.00022949278354644775,-0.0024494370445609093
1772795102640050400,6.895050537109375,-0.0002963898004963994,-0.0005848533473908901,0.0014616044936701655
1772795102650094600,6.905094482421875,0.0008178767748177052,-0.0014658267609775066,-0.0007493518060073256
1772795102660138500,6.915138427734375,0.000029777875170111656,0.0006264992989599705,-0.0026714764535427094
1772795102670183400,6.925183349609375,-0.002780389506369829,-0.0006856401450932026,0.00012857106048613787
1772795102680227600,6.9352275390625,-0.0012930575758218765,0.000058115459978580475,-0.0014604819007217884
1772795102690271500,6.945271484375,0.001748804934322834,0.0002916743978857994,0.0006106585497036576
1772795102700315400,6.9553154296875,0.002324473112821579,-0.00048680277541279793,0.0013013847637921572
1772795102710360600,6.965360595703125,0.0005300353514030576,0.001982214394956827,0.00008858134970068932
1772795102720404500,6.975404541015625,-0.002626636065542698,0.0027894186787307262,-0.002600789302960038
1772795102730448400,6.985448486328125,-0.0011837354395538568,0.00036833900958299637,0.0016014125430956483
1772795102740493600,6.99549365234375,0.001957353437319398,-0.0006203507073223591,0.0012902150629088283
1772795102750537500,7.005537353515625,-0.0004911567666567862,0.0006467811763286591,0.00035331491380929947
1772795102760581400,7.015581298828125,-0.0011631560046225786,-0.0014626444317400455,0.0013669030740857124
1772795102770625500,7.02562548828125,-0.0009069599327631295,0.000514219980686903,0.0012899376451969147
1772795102780670500,7.03567041015625,-0.0002777592744678259,0.00039862096309661865,-0.00015223468653857708
1772795102790714600,7.045714599609375,0.000009329523891210556,0.0011626817286014557,-0.00286226742900908
1772795102800758500,7.055758544921875,0.0016951457364484668,0.0004142317920923233,0.0008711214177310467
1772795102810803500,7.065803466796875,-0.0006108853267505765,-0.00045289378613233566,0.004531902261078358
1772795102820847600,7.07584765625,0.000259120250120759,-0.00005634082481265068,0.001766505534760654
1772795102830891300,7.085891357421875,0.001564868027344346,-0.0007570185698568821,0.0014511874178424478
1772795102840936400,7.0959365234375,-0.0007728540222160518,-0.0003331722691655159,-0.0009156136075034738
1772795102850980600,7.105980712890625,-0.002216021064668894,0.0010585957206785679,-0.0004897741600871086
1772795102861024300,7.116024169921875,-0.000742045696824789,0.0005846060812473297,0.00014657375868409872
1772795102871068400,7.126068359375,-0.0009574954165145755,0.0002636951394379139,0.00009597372263669968
1772795102881113600,7.136113525390625,-0.00045836804201826453,-0.0013867835514247417,0.0014654910191893578
1772795102891157500,7.146157470703125,0.002125164493918419,0.000020697247236967087,-0.0013734386302530766
1772795102901201400,7.156201416015625,-0.001015522750094533,-0.0007479707710444927,0.0005702882772311568
1772795102911246600,7.16624658203125,-0.0017193960957229137,0.00022221915423870087,0.0006808094913139939
1772795102921290500,7.17629052734375,0.00006722367834299803,0.0007287478074431419,-0.0020715356804430485
1772795102931334400,7.18633447265625,-0.000056879594922065735,0.0005383319221436977,-0.001049148035235703
1772795102941378600,7.196378662109375,-0.0012932553654536605,0.00004902016371488571,-0.00020112877245992422
1772795102951423500,7.206423583984375,-0.00005488551687449217,0.0008327886462211609,-0.00019846553914248943
1772795102961467400,7.21646728515625,-0.00044870993588119745,-0.002276165410876274,0.0020994842052459717
1772795102971511600,7.226511474609375,0.0008357326732948422,0.0009891362860798836,0.0007244943408295512
1772795102981556500,7.236556396484375,-0.0005921706324443221,0.0010234792716801167,-0.001129038748331368
1772795102991600600,7.2466005859375,0.0007079846691340208,0.0007286672480404377,0.0012409082846716046
1772795103001644300,7.256644287109375,-0.00031384883914142847,0.001167655922472477,-0.00006081827450543642
1772795103011689500,7.266689453125,0.0023485133424401283,0.0032981843687593937,-0.0008429886656813323
1772795103021733600,7.276733642578125,-0.001643105410039425,-0.002152976579964161,0.003371357684955001
1772795103031777300,7.28677734375,-0.0010223225690424442,-0.00033590197563171387,-0.0015128797385841608
1772795103041821400,7.296821533203125,0.00006215390749275684,-0.00023779459297657013,-0.0002527948236092925
1772795103051866600,7.30686669921875,0.0007665599696338177,0.00034730229526758194,0.0005975523963570595
1772795103061910300,7.31691015625,-0.0016562865348532796,0.0008976580575108528,0.0009576417505741119
1772795103071954400,7.326954345703125,0.0004087284905835986,-0.001851523295044899,0.00014883978292346
1772795103081999600,7.33699951171875,0.0005844741826876998,0.001626581884920597,0.000008891802281141281
1772795103092043500,7.34704345703125,0.002039358951151371,0.0009687808342278004,-0.0006086953217163682
1772795103102087400,7.35708740234375,-0.00006447953637689352,0.0011651311069726944,-0.0015352476621046662
1772795103112132600,7.367132568359375,-0.0007289382629096508,-0.0004274393431842327,0.002318879123777151
1772795103122176500,7.377176513671875,0.001325224875472486,-0.0010401802137494087,0.002254849998280406
1772795103132220400,7.387220458984375,0.0007904620142653584,0.0002906015142798424,0.002275089966133237
1772795103142264600,7.3972646484375,0.00006689410656690598,-0.0003168247640132904,0.00048061111010611057
1772795103152309500,7.4073095703125,0.00042295875027775764,0.0004011634737253189,-0.0010328632779419422
1772795103162353400,7.417353515625,0.00007137027569115162,0.00014249514788389206,-0.0007457576575689018
1772795103172397300,7.427397216796875,-0.0021603587083518505,0.0018445211462676525,0.0007996747735887766
1772795103182442500,7.4374423828125,0.00334543758071959,0.0012140441685914993,-0.0012598626781255007
1772795103192486400,7.447486328125,-0.0016216242220252752,-0.000038706231862306595,0.000980122247710824
1772795103202530300,7.4575302734375,-0.00022649881429970264,-0.002298175822943449,0.0021125623025000095
1772795103212574500,7.467574462890625,-0.0016622089315205812,0.0005495427176356316,-0.0003442036104388535
1772795103222619600,7.47761962890625,-0.0014548212056979537,-0.0010899300687015057,0.0008268236415460706
1772795103232663300,7.487663330078125,-0.0007842372287996113,0.000921555794775486,0.0006582454079762101
1772795103242707500,7.49770751953125,-0.0008758478797972202,-0.00008025113493204117,-0.0023498032242059708
1772795103252752600,7.507752685546875,-0.0013951642904430628,-0.0009665512479841709,0.0018904820317402482
1772795103262796300,7.51779638671875,0.0007125994889065623,0.000782819464802742,0.00024302257224917412
1772795103272840400,7.52784033203125,-0.00040512910345569253,-0.0019024461507797241,-0.0010299683781340718
1772795103282885600,7.5378857421875,0.0017971161287277937,-0.0013801180757582188,-0.0007217422244139016
1772795103292929500,7.547929443359375,0.0008924403227865696,-0.001029113307595253,-0.001692997058853507
1772795103302973400,7.557973388671875,0.0008589825592935085,0.00013248343020677567,-0.001610762206837535
1772795103313017000,7.56801708984375,-0.00008537445683032274,0.001580710057169199,-0.00018943310715258121
1772795103323062000,7.57806201171875,0.000012625125236809254,-0.000415056012570858,-0.0008757142350077629
1772795103333106000,7.58810595703125,-0.001238261698745191,0.0011564753949642181,-0.0016983646200969815
1772795103343150000,7.598150146484375,0.0006914997939020395,-0.001542785670608282,0.0006801816634833813
1772795103353195000,7.608195068359375,-0.0030627581290900707,0.000058306846767663956,-0.001112125813961029
1772795103363239200,7.6182392578125,-0.0003700057859532535,-0.00024595437571406364,-0.0007107778801582754
1772795103373282800,7.62828271484375,-0.000027256901375949383,-0.0024121692404150963,0.0006197374314069748
1772795103383328000,7.638327880859375,-0.000822965579573065,0.0009676096960902214,0.00007881608325988054
1772795103393372200,7.6483720703125,0.0004731948720291257,0.000018192455172538757,-0.0018032398074865341
1772795103403415800,7.658415771484375,-0.0010669445618987083,-0.002865374321117997,-0.00015652389265596867
1772795103413460000,7.6684599609375,-0.0020650974474847317,0.0007709059864282608,0.00015320174861699343
1772795103423505200,7.678505126953125,-0.0008397679775953293,0.0018787933513522148,-0.0017010981682687998
1772795103433548800,7.688548828125,0.00012323108967393637,0.0031168973073363304,-0.00009254890028387308
1772795103443593000,7.698593017578125,-0.0019074947340413928,-0.0023869341239333153,-0.0003606355166994035
1772795103453638100,7.70863818359375,-0.0006118668825365603,0.0013880967162549496,-0.0005933957872912288
1772795103463682000,7.71868212890625,0.0008282212074846029,0.0010395711287856102,-0.0027144113555550575
1772795103473726000,7.728725830078125,-0.0006916449056006968,-0.0029908569995313883,-0.0000350048067048192
1772795103483770000,7.73877001953125,-0.0004980604280717671,-0.0016416138969361782,0.00012909655924886465
1772795103493815000,7.74881494140625,-0.0020493518095463514,-0.0016344236209988594,0.00017570191994309425
1772795103503859000,7.75885888671875,-0.00014946912415325642,0.00025546131655573845,0.0004608972230926156
1772795103513903000,7.768903076171875,-0.000846950919367373,-0.0003322982229292393,-0.0005931819323450327
1772795103523948000,7.778947998046875,-0.0023023041430860758,-0.0007139891386032104,0.001248456770554185
1772795103533992000,7.788991943359375,0.0015744594857096672,0.0004514101892709732,-0.0018738333601504564
1772795103544035800,7.799035888671875,0.000926513341255486,-0.0008049709722399712,0.0011443779803812504
1772795103554081000,7.8090810546875,0.0009424922754988074,0.00007786694914102554,0.0023542519193142653
1772795103564125200,7.819125244140625,-0.0012314803898334503,0.0006636143662035465,-0.0007339597214013338
1772795103574168800,7.8291689453125,-0.0014176353579387069,-0.00031989114359021187,-0.0015219891211017966
1772795103584213000,7.839212890625,0.0019335472024977207,-0.0009201653301715851,0.001070343772880733
1772795103594258200,7.849258056640625,-0.00004491524305194616,-0.0016626548022031784,-0.0007134415209293365
1772795103604301800,7.8593017578125,0.0008025236893445253,-0.0017647892236709595,-0.001455428428016603
1772795103614346000,7.869345947265625,-0.0012174840085208416,0.0003444342873990536,0.000656458199955523
1772795103624391200,7.87939111328125,0.0005728905089199543,-0.0018278537318110466,0.0006166135426610708
1772795103634434800,7.889434814453125,-0.0003384431474842131,0.011833364143967628,0.010742218233644962
1772795103644479000,7.89947900390625,-0.0035803555510938168,-0.004164575599133968,0.0066481889225542545
1772795103654523100,7.909523193359375,-0.004932974930852652,0.004673123825341463,0.0006699248915538192
1772795103664568000,7.919568115234375,0.0012899339199066162,-0.0006847847253084183,0.0005720797926187515
1772795103674612000,7.929612060546875,0.0007383932825177908,0.00129021517932415,-0.0023312983103096485
1772795103684656000,7.93965625,0.0020659174770116806,-0.002244718838483095,-0.002016413724049926
1772795103694701000,7.949701171875,-0.000313350697979331,-0.0011304519139230251,-0.005229517817497253
1772795103704745000,7.959744873046875,0.0005328882252797484,-0.0059269508346915245,-0.0025651240721344948
1772795103714788900,7.969788818359375,-0.0015995048452168703,-0.009275875985622406,-0.005872770212590694
1772795103724834000,7.979833984375,0.0013374834088608623,-0.006078218575567007,-0.000834069331176579
1772795103734878000,7.9898779296875,-0.0006377832614816725,-0.0018885335884988308,-0.0009552431292831898
1772795103744921900,7.999921875,0.000592994038015604,-0.0029241477604955435,-0.002652325201779604
