time,seconds_elapsed,z,y,x
1772792401757940700,0.072940673828125,0.8831909480065107,0.4518161315053701,0.7228885962389409
1772792401767984600,0.082984619140625,0.6652519614368677,0.3320136940389871,0.531532715364173
1772792401778028800,0.09302880859375,0.5281581974297762,0.22782968146502972,0.3451114413473755
1772792401788072700,0.10307275390625,0.4368938721835613,0.15722762049734593,0.17850458260811863
1772792401798116600,0.11311669921875,0.3021633301764726,0.09299275647401808,0.06500219513401388
1772792401808160800,0.123160888671875,0.17978139761090278,0.08512976801395415,0.01178461888320744
1772792401818204700,0.13320458984375,0.048234746336936946,0.043162849900126456,-0.010756737140193581
1772792401828248800,0.143248779296875,-0.02760755337178707,0.004517185163497924,-0.008343465453386305
1772792401838292500,0.15329248046875,-0.1348947926580906,-0.050531917363405225,-0.09446538630984723
1772792401848335600,0.163335693359375,-0.2622211958885193,-0.06728373019993304,-0.14237923012934625
1772792401858379500,0.173379638671875,-0.24827801073193548,-0.03130056267082691,-0.05231076360419392
1772792401868423700,0.183423583984375,-0.12440905447900294,-0.014174071303009987,0.05357654575631022
1772792401878467600,0.193467529296875,-0.05775660791993141,0.03783025670051574,0.16129304330535232
1772792401888511700,0.20351171875,-0.0896112973421812,0.12831775235533713,0.30966771445721386
1772792401898555400,0.213555419921875,-0.07717500961720943,0.2847884170055389,0.46163763362206517
1772792401908599600,0.223599609375,0.017105448579788206,0.36285189989507194,0.5790851054601371
1772792401918643700,0.233643798828125,0.061385904332995414,0.4083037375152111,0.6522600125905126
1772792401928687600,0.2436875,0.10597264955639839,0.3850292449116707,0.6557672169938683
1772792401938731800,0.253731689453125,0.10175707768797874,0.3456424064189195,0.5956378155279904
1772792401948775400,0.263775390625,0.06900456264317036,0.3229056739538908,0.5004761905822903
1772792401958819600,0.273819580078125,0.03305588190555572,0.24069033208191393,0.39078174402378496
1772792401968863700,0.28386376953125,-0.009964929175376891,0.17296061168015003,0.3230227975275367
1772792401978907600,0.29390771484375,-0.058165773242712014,0.15216156927943228,0.26282179213017226
1772792401988951800,0.303951904296875,-0.1137882917433977,0.13135843522548674,0.22464739816710352
1772792401998995500,0.313995361328125,-0.1939712510049343,0.10835808338820933,0.16476532252579926
1772792402009038600,0.32403857421875,-0.23167642002105712,0.057793432798981664,0.07502309228032827
1772792402019082500,0.33408251953125,-0.24654548785090444,0.008774842607975005,-0.018842684168554842
1772792402029126700,0.344126708984375,-0.24074819974899292,-0.014995909079909324,-0.08413067397400736
1772792402039170800,0.3541708984375,-0.21927052743434905,-0.03199322111010551,-0.15324209452513604
1772792402049214700,0.364214599609375,-0.2029734726279974,-0.017494155636429785,-0.1748568006902933
1772792402059258600,0.374258544921875,-0.15418927571475505,0.016007716470956803,-0.16848741178885102
1772792402069302500,0.384302490234375,-0.07782850508987903,0.02562251703441143,-0.16190617023501544
1772792402079346700,0.3943466796875,-0.041542555221915245,0.02596095520853996,-0.15557700374610722
1772792402089390600,0.404390625,-0.08221826448142527,0.01300268943607807,-0.1932070982320234
1772792402099434500,0.4144345703125,-0.07988309953212737,0.019324878194928168,-0.24439616432990877
1772792402109478700,0.424478759765625,-0.03766074535250664,-0.017519874599575994,-0.25364596750587226
1772792402119522600,0.4345224609375,0.032680618852376934,-0.04092705367207527,-0.14320552488565444
1772792402129566700,0.444566650390625,0.15114625475704668,0.027314123383164406,-0.04975530696772039
1772792402139610600,0.454610595703125,0.25774375821352,0.08502221598625183,-0.013708791878819465
1772792402149653800,0.46465380859375,0.2774947528660297,0.09716039754748344,-0.10572890392839908
1772792402159697400,0.474697509765625,0.08427987318634986,0.09314823929667472,-0.21511874151714144
1772792402169741600,0.484741455078125,-0.3570189559578895,0.1515033976316452,-0.19370076350048182
1772792402179785700,0.49478564453125,-0.9340712404161691,0.31594810990095135,-0.12427549122720956
1772792402189829600,0.50482958984375,-1.18153735024333,0.5254325718581676,0.03951667541749775
1772792402199873800,0.514873779296875,-0.9441898988485335,0.6346744523435831,0.2216586646798998
1772792402209917400,0.52491748046875,-0.433960741341114,0.6261871945053339,0.27694464470259844
1772792402219961600,0.534961669921875,0.17015315304398534,0.553470333340764,0.25689780890867114
1772792402230005800,0.545005859375,0.5861252332299948,0.517606408277154,0.1280049600791186
1772792402240049700,0.555049560546875,0.8728712140440941,0.7302315063476562,-0.333005189294368
1772792402250093800,0.56509375,0.8346721240311861,0.4785954173594713,-0.13504428413137792
1772792402260137500,0.575137451171875,0.5374082563340664,0.13685352551043034,0.09640935998447239
1772792402270181600,0.585181640625,0.38844635987877846,-0.09069383188188075,0.374508143158257
1772792402280225500,0.5952255859375,0.28448680371046065,-0.07462824774384498,0.33351861870922145
1772792402290269700,0.605269775390625,0.2414367665350437,0.21738369077444075,-0.07208879239410161
1772792402300313600,0.615313720703125,-0.05959317569732666,0.19656535915136336,-0.09444244382567703
1772792402310356700,0.625356689453125,-0.4698141450107097,0.03809270702898502,0.0731850631982088
1772792402320400600,0.635400634765625,-0.7140840891450643,-0.015178864431381224,0.29284758562482893
1772792402330444500,0.645444580078125,-0.7244546765118837,0.01535071386694908,0.4270348145354539
1772792402340488700,0.65548876953125,-0.6569868219166993,0.021765841606259346,0.5606479698851704
1772792402350532600,0.66553271484375,-0.663757338964939,-0.1130085395425558,0.46829299985803663
1772792402360576500,0.675576416015625,-0.84813015601933,0.0603103840559721,0.470892076440528
1772792402370620700,0.68562060546875,-0.9331260685205459,0.23607027106583117,0.1458301012355834
1772792402380664600,0.69566455078125,-1.1295786149471998,0.040945758372545236,-0.11420775926448404
1772792402390708700,0.705708740234375,-1.2046423314988612,-0.115078331553936,-0.1866262220043689
1772792402400752600,0.715752685546875,-1.085756424355507,-0.18264964652359483,-0.33211642376109957
1772792402410796500,0.725796630859375,-0.8511269997477531,-0.4449555980861187,-0.4673886714294552
1772792402420840700,0.7358408203125,0.3931318873465061,-0.5631301420897246,0.01291201547794044
1772792402430884600,0.745884521484375,1.555055021059513,-0.6214549052864313,0.6760059220980853
1772792402440928800,0.7559287109375,1.5087468588709831,-0.4542354676067829,0.8797879346299916
1772792402450972700,0.76597265625,0.9115501965284347,-0.08191489762067794,0.9799597889531403
1772792402461016600,0.7760166015625,0.2873158896565437,0.6259434488773346,0.8270516390901058
1772792402471059500,0.7860595703125,-0.44511224995255466,0.7470026084065436,0.6269041836682707
1772792402481103600,0.796103515625,-0.9146434863686561,0.33529870705902576,0.4321486504178494
1772792402491147500,0.8061474609375,-0.7259463763743639,0.07563888609111309,0.1511070917904377
1772792402501191700,0.816191650390625,-0.09094517629444598,0.11991992636620998,-0.06211407247707247
1772792402511235800,0.82623583984375,0.5723644189029932,-0.008956044393777847,0.03470839835293591
1772792402521279500,0.836279541015625,1.2134347097635267,-0.07458674668967723,0.16235168551281093
1772792402531323600,0.84632373046875,1.7382044337987899,0.0037169746965169904,0.09917948228493333
1772792402541367600,0.856367431640625,1.9169582419276237,-0.09806874456405638,0.16989304080307482
1772792402551411700,0.86641162109375,1.6819652447044848,-0.2812655035763979,0.22672098957076667
1772792402561455600,0.87645556640625,1.1476578769952057,-0.2513315530836582,-0.05612126180306077
1772792402571499500,0.88649951171875,0.577780598732829,-0.09371405648589133,-0.3509079257316887
1772792402581543700,0.896543701171875,0.04981529352664947,0.016121113717556,-0.5446214025832712
1772792402591587600,0.906587646484375,-0.24526304682493208,0.04764730183780193,-0.5605334766600281
1772792402601631700,0.9166318359375,-0.3581798164308071,0.08636369372308254,-0.5023229874927551
1772792402611675600,0.926675537109375,-0.3743745799064636,0.13654782056212425,-0.34419388811103996
1772792402621719600,0.936719482421875,-0.36731355547904965,0.20358371348083018,-0.15887787192240357
1772792402631762700,0.9467626953125,-0.20817922457754612,0.29869010110795496,0.018007365855574605
1772792402641806600,0.956806640625,0.04740998595058918,0.36803660905659197,0.23951887714974582
1772792402651850800,0.966850830078125,0.28207798900306225,0.41622985433936116,0.47308900196291503
1772792402661894700,0.976894775390625,0.4398047911942005,0.4400128809869289,0.6227130886539817
1772792402671938600,0.9869384765625,0.47737493565380573,0.41152912930250163,0.6813174725096672
1772792402681982500,0.996982421875,0.37481764749884605,0.3176362091183662,0.6443354301363229
1772792402692026600,1.007026611328125,0.14842004466354847,0.1963280432641506,0.5283246400378644
1772792402702070800,1.01707080078125,-0.08265081067979335,0.1660515629440546,0.36645737704113124
1772792402712114700,1.02711474609375,-0.2795604532241821,0.15276538039147852,0.23891367779821157
1772792402722158600,1.03715869140625,-0.4257575611412525,0.1437865396440029,0.13808116760924458
1772792402732202500,1.047202392578125,-0.5671007992863655,0.13453940334916115,0.04786167524084448
1772792402742246700,1.05724658203125,-0.8038789263606071,0.15340835447013376,-0.1214201383287087
1772792402752290800,1.067290771484375,-1.0121709636628626,0.1316840139180422,-0.288364010469988
1772792402762334500,1.07733447265625,-1.0879764384925366,0.15637831019163131,-0.39009292150940744
1772792402772378600,1.087378662109375,-0.9972481198191642,0.18781214385330675,-0.3286502089552581
1772792402782422500,1.097422607421875,-0.8551280520826577,0.1912006172478199,-0.10652692243829369
1772792402792465700,1.107465576171875,-0.7096686107903718,0.21734978850483894,0.11922047285996376
1772792402802509600,1.117509521484375,-0.598407791697979,0.2528092244207859,0.3034192485217005
1772792402812553700,1.1275537109375,-0.6963648925811052,0.2642448106706142,0.2829682158410549
1772792402822597600,1.13759765625,-0.8151929320573806,0.30432021594941616,0.21995661000236869
1772792402832642000,1.14764208984375,-0.724131435906887,0.37601065667569633,0.16589461881667375
1772792402842686000,1.15768603515625,-0.4818313305407762,0.3617734570086002,0.2282145160641521
1772792402852730000,1.167730224609375,-0.27207038972973824,0.21162498111724853,0.3675054247893393
1772792402862774000,1.17777392578125,-0.14042904590964317,0.06449614530801773,0.4167024402871728
1772792402872818000,1.18781787109375,0.14175474155545234,0.04697276357710361,0.4344259477000683
1772792402882861800,1.19786181640625,1.170761104685068,0.019097499179840088,0.8232787694878876
1772792402892906000,1.207906005859375,1.248425943645835,-0.2357037758409977,1.0657168950852005
1772792402902950100,1.2179501953125,0.5886714105814695,-0.33290158278942106,0.7880157329268753
1772792402912993800,1.227993896484375,0.20960779607594013,-0.1138280392318964,0.32645364875905214
1772792402923038000,1.238037841796875,-0.10011866283118724,-0.037707507103681565,-0.023874212062358856
1772792402933081900,1.248081787109375,-0.21523966448307036,-0.17550737355351448,-0.14132416811846196
1772792402943125000,1.258125,-0.020351298633217812,-0.17809096030592916,-0.17049020297862588
1772792402953169000,1.2681689453125,0.337556715118885,-0.24022855978906152,0.008387085399404168
1772792402963213000,1.278213134765625,0.7951847477734089,-0.2204395712137222,0.22558950132280586
1772792402973257000,1.288257080078125,1.1329191575467585,0.011660627177357673,0.3264182121194899
1772792402983300900,1.29830078125,1.2298521760791539,0.2132902839809656,0.3339976343978196
1772792402993345000,1.308344970703125,0.9325485608935355,0.2619108147650957,0.19545520595237612
1772792403003389000,1.318388916015625,0.3889870426267385,0.16521803472936153,0.017531418906897304
1772792403013433000,1.32843310546875,-0.22455402079522607,0.09650982468426227,-0.17991072307899594
1772792403023477000,1.33847705078125,-0.5808686278760433,0.0971884545981884,-0.21253457024283706
1772792403033521000,1.34852099609375,-0.7149661326766014,0.11412789896130561,-0.17265739094987512
1772792403043565000,1.35856494140625,-0.7236638183951377,0.1360094759017229,-0.11624131091870367
1772792403053609000,1.36860888671875,-0.6514964078068732,0.203979434800148,-0.08922185963317751
1772792403063653000,1.378653076171875,-0.4468962107598781,0.26861937249302864,-0.06669774700552225
1772792403073696800,1.38869677734375,-0.24794074160158633,0.2737614115566015,0.024589959116280077
1772792403083741000,1.398740966796875,-0.09906418534219265,0.22433716317415237,0.1543219621837139
1772792403093785000,1.40878515625,0.054586161190271376,0.16484277167618275,0.2902987779248506
1772792403103828000,1.418827880859375,0.15727029059529304,0.14668576821684837,0.34714294717498123
1772792403113872100,1.4288720703125,0.10506547158360481,0.10575286932587623,0.34634332122989
1772792403123916000,1.438916015625,-0.04603519046604633,0.07869593557417393,0.37165231533572074
1772792403133960000,1.4489599609375,-0.1298486151844263,0.11049684898257255,0.32083288626782597
1772792403144003800,1.45900390625,-0.12843407221138475,0.14917992312014103,0.27501345744431016
1772792403154048000,1.469048095703125,-0.11584756236076355,0.1635936483979225,0.27359350764378904
1772792403164092200,1.479092041015625,-0.11804010396897792,0.13965923058092594,0.3140263480581343
1772792403174135800,1.4891357421875,-0.2433411388516426,0.14463818803727627,0.32535255564935506
1772792403184180000,1.499179931640625,-0.4178074789196253,0.14646072728931903,0.2877088344968855
1772792403194223900,1.509223876953125,-0.4870318217933178,0.14876608162224292,0.278154385818541
1772792403204268000,1.51926806640625,-0.47826633153557774,0.11543313634097575,0.2413192776352167
1772792403214312200,1.529312255859375,-0.45522564768791196,0.07521627676486968,0.2084614755850285
1772792403224355800,1.53935595703125,-0.37706513416469095,0.04893208095133304,0.17238485761880873
1772792403234400000,1.54939990234375,-0.26040274828970433,0.04119359565377235,0.13418131062649188
1772792403244444000,1.55944384765625,-0.14450900869965552,0.010897826111316681,0.11955028933621942
1772792403254488000,1.569488037109375,-0.033240006300807,-0.05958966856598854,0.07807152006551622
1772792403264531000,1.579531005859375,0.08978431582152843,-0.10192308190464973,0.08494206342212855
1772792403274575000,1.5895751953125,0.21970599624216555,-0.1558598392754793,0.13960070532672106
1772792403284618800,1.59961865234375,0.3428063062101602,-0.1496124693185091,0.18096191263236105
1772792403294663000,1.609662841796875,0.38753918190598485,-0.11087269655764102,0.2299359330292791
1772792403304707000,1.61970703125,0.40419805576205253,0.0039139585733413695,0.2747708808600902
1772792403314751000,1.6297509765625,0.3358767992079258,0.1065033954322338,0.29722514312192794
1772792403324795000,1.639794921875,0.210602067810297,0.17596037801802158,0.2730626887027174
1772792403334838800,1.6498388671875,0.04848901335895061,0.20636311506628988,0.1909610363382846
1772792403344883000,1.659883056640625,-0.14043079947531223,0.19481763870120047,0.09387801487594842
1772792403354927000,1.669927001953125,-0.4096405390769243,0.23400515522956847,-0.0031961656928062437
1772792403364971000,1.679970947265625,-0.7056997071593999,0.274763866597414,-0.05069193023070693
1772792403375015000,1.690014892578125,-0.8604688285887241,0.3713672147840261,0.0003521013732999563
1772792403385058800,1.700058837890625,-0.8849474362850188,0.3972621190190315,0.12218830968961118
1772792403395103000,1.71010302734375,-0.7897101157546043,0.35457916159033775,0.16769574995450676
1772792403405147100,1.720147216796875,-0.6341238327234983,0.30872868004143234,0.21143077371940017
1772792403415191000,1.73019091796875,-0.48988954931199546,0.2848895392924547,0.24989604038782418
1772792403425234200,1.740234130859375,-0.34161738868653774,0.25047581303715705,0.2612116535197943
1772792403435277800,1.75027783203125,-0.22584873678088188,0.20635493175983427,0.27837584654949604
1772792403445322000,1.760322021484375,-0.15512158812880514,0.19917583391070365,0.29190277905538675
1772792403455366000,1.770365966796875,-0.07134440376758575,0.21452187160253525,0.2993128361161798
1772792403465410000,1.78041015625,-0.012348609441518783,0.2154465852320194,0.3066578651167452
1772792403475454000,1.790453857421875,-0.03890753054320812,0.1973784290999174,0.2860886859491467
1772792403485497900,1.800497802734375,-0.09914777197241782,0.18086217858493328,0.2446757484562695
1772792403495542000,1.8105419921875,-0.14178338312804697,0.15613281099796295,0.1454128256715834
1772792403505586000,1.8205859375,-0.10720131456851958,0.1307639764636755,0.1035242334909737
1772792403515630000,1.830630126953125,-0.07397592131495476,0.10892916127443313,0.07698036382794379
1772792403525674000,1.840674072265625,-0.05655716900229454,0.09765841019749641,0.06873444046489895
1772792403535718000,1.8507177734375,0.006260813960433006,0.11358312456011771,0.05235175320170819
1772792403545762000,1.860761962890625,0.09512626137137413,0.10030921696722507,0.08652560628652572
1772792403555806000,1.870805908203125,0.17146832729578018,0.07427461200058459,0.07723338874094188
1772792403565850000,1.88085009765625,0.2907832735061645,0.07712590977847576,0.08508044897951185
1772792403575893000,1.89089306640625,0.3598497954696417,0.06867196968793869,0.07293627606891095
1772792403585937000,1.90093701171875,0.43213001878261564,0.05224807363152504,0.054887336093932385
1772792403595980800,1.910980712890625,0.47271921880245205,0.04226151714622974,0.05018361538238823
1772792403606025000,1.92102490234375,0.39768823547661303,0.01639817709326744,0.0466628208450973
1772792403616069000,1.931069091796875,0.2833896561235189,0.042402971443533895,0.04442819366082549
1772792403626113000,1.941113037109375,0.177196057292819,0.08074526931941509,0.053430415283888574
1772792403636157000,1.951156982421875,0.1389110425621271,0.06932312707304954,0.045615503749251364
1772792403646200800,1.961200927734375,0.10702771156728268,0.009957330390810966,0.0027925533279776573
1772792403656245000,1.971244873046875,0.05972118599116802,-0.02478197455704212,-0.04542684930935502
1772792403666289000,1.981288818359375,0.020029227072000503,-0.04367021490037441,-0.07666004583239555
1772792403676333000,1.9913330078125,-0.01627308940887451,-0.09229133020639418,-0.08332797928899525
1772792403686377000,2.001376953125,0.005126256972551346,-0.0800911893248558,-0.07544840502031147
1772792403696420900,2.0114208984375,0.0511994413614273,-0.04552548737823963,-0.05773300784863531
1772792403706465000,2.021465087890625,0.09306348362267017,0.01012450365126133,-0.0033114626355469226
1772792403716509000,2.031509033203125,0.172001995781064,0.07252455346286296,0.026436829091981053
1772792403726553000,2.041552978515625,0.20905834549963473,0.12900105844438076,0.09110950001068413
1772792403736597000,2.051596923828125,0.19804127692282197,0.14666530995070934,0.1738137213781476
1772792403746640000,2.061639892578125,0.14851999790668485,0.12064707159698008,0.2364634351018816
1772792403756684000,2.07168408203125,0.060652913883328434,0.11127426309585571,0.2632818108573556
1772792403766728000,2.08172802734375,-0.04865326400995254,0.12727554982602596,0.23715017525702714
1772792403776772000,2.091772216796875,-0.16766601240336895,0.14464344873428345,0.1744774825165048
1772792403786816000,2.10181591796875,-0.29259003066718575,0.1669540647417307,0.15486889200937
1772792403796860000,2.11185986328125,-0.3615384792089462,0.18580255759656428,0.13767788403797893
1772792403806904000,2.121904052734375,-0.38021979880332946,0.20345511866509913,0.13518438672181218
1772792403816948000,2.131947998046875,-0.37064240764081474,0.194206813326478,0.18585421471856534
1772792403826992000,2.1419921875,-0.3599859890699386,0.17312077067792414,0.169015929174982
1772792403837036000,2.1520361328125,-0.33993981086313724,0.15813246038258075,0.2022006250919774
1772792403847080200,2.162080078125,-0.35035657545924187,0.16971359258294105,0.2265172471595928
1772792403857124000,2.1721240234375,-0.2895861726760864,0.1859586249411106,0.2606722128808498
1772792403867168300,2.182168212890625,-0.21577216392457485,0.1674362953007221,0.2919820913692936
1772792403877212200,2.192212158203125,-0.19866437725722788,0.13758183978497981,0.2852596147138625
1772792403887256000,2.202256103515625,-0.18512392768263816,0.1474246038854122,0.30069018888399
1772792403897300200,2.21230029296875,-0.17091069341301918,0.15303016880750656,0.31255401048325
1772792403907343000,2.222343017578125,-0.15662030225396156,0.1507493643939495,0.3196001296024769
1772792403917387300,2.23238720703125,-0.1762035391241312,0.156906717979908,0.33677780316825956
1772792403927431200,2.24243115234375,-0.251764683803916,0.16388006412386893,0.28573442915137853
1772792403937475300,2.252475341796875,-0.2701730316758156,0.1962105543643236,0.2496855759749189
1772792403947519000,2.26251904296875,-0.22975334300398825,0.2080138048827648,0.24713570882901548
1772792403957563100,2.272563232421875,-0.17395371437072754,0.18785013777613638,0.2502554482847452
1772792403967607000,2.28260693359375,-0.0872755478709936,0.16176760201454163,0.25779048343207683
1772792403977651200,2.292651123046875,-0.05864800380170345,0.12498773114979267,0.249086733298935
1772792403987695000,2.302695068359375,-0.037277883514761925,0.1294002868950367,0.22556867773048578
1772792403997739000,2.312739013671875,-0.02278817039132118,0.1101724393337965,0.1924868211334571
1772792404007783200,2.322783203125,-0.021389994031190872,0.09757248547971248,0.15943156028240918
1772792404017827000,2.3328271484375,-0.013745032235980033,0.08457388769686222,0.17054945888519285
1772792404027871200,2.342871337890625,-0.018203180688619612,0.10771101765632629,0.1352695442546159
1772792404037915100,2.3529150390625,-0.038430560681223865,0.07595102078020573,0.08706376828383654
1772792404047959000,2.362958984375,-0.09852116450667381,0.044804187366366384,0.06090389296971261
1772792404058003200,2.373003173828125,-0.10126724834442138,0.03514437861740589,0.015255546396784484
1772792404068046000,2.383046142578125,-0.09449263964295387,0.04917231944799423,0.020211561368964612
1772792404078090200,2.39309033203125,-0.10227087242901324,0.07301438280642032,0.0014892156444489956
1772792404088134100,2.403134033203125,-0.09945523048639297,0.07478256152272224,-0.016181356004811822
1772792404098178000,2.413177978515625,-0.08082885594964027,0.06020400107204914,0.006752068076096475
1772792404108222200,2.42322216796875,-0.06077800156772136,0.0630897856414318,0.056242915421351784
1772792404118266000,2.43326611328125,-0.004728782087564468,0.08084814517199992,0.08926909630838781
1772792404128310300,2.443310302734375,0.039192777225375175,0.10818623395264149,0.11339753886014223
1772792404138354200,2.453354248046875,0.09785773216187954,0.10345686734318732,0.12345062124300747
1772792404148398000,2.463398193359375,0.0764180537700653,0.08161971406638621,0.11823876834623515
1772792404158442000,2.47344189453125,0.060577510559558866,0.10479776055812835,0.09090404056645929
1772792404168486100,2.483486083984375,0.04411035988330841,0.1262333472967148,0.0951105888782069
1772792404178530300,2.4935302734375,0.033444588962197305,0.12422259199619293,0.11786076534669845
1772792404188574000,2.503573974609375,0.0264560452491045,0.11842179676294326,0.1296110070362687
1772792404198618000,2.5136181640625,0.05098141469657421,0.1359656367599964,0.1631009329775348
1772792404208662000,2.523662109375,0.0624234306871891,0.12368483185768127,0.2007492207072675
1772792404218706200,2.5337060546875,0.08687690394222736,0.11498480805158615,0.21582137336116283
1772792404228749000,2.5437490234375,0.07709200750887393,0.11073942556679248,0.20531166978459803
1772792404238793200,2.553793212890625,0.042241058880090714,0.11382570114433765,0.20407748834714293
1772792404248837000,2.563837158203125,-0.015272387933731079,0.11463760204911232,0.19176354836020618
1772792404258881000,2.573881103515625,-0.04690203642845153,0.11849720008671283,0.18459935581926254
1772792404268925200,2.58392529296875,-0.08245148871541023,0.1383709443360567,0.19033771680817008
1772792404278969000,2.593968994140625,-0.07267711367607116,0.13559388083815574,0.20687577729616313
1772792404289013200,2.60401318359375,-0.05623918909430504,0.14421967036426067,0.21954601990748196
1772792404299057200,2.61405712890625,-0.07970891200900078,0.1348281571626663,0.22577618300132452
1772792404309101000,2.62410107421875,-0.11938158170580863,0.147163907122612,0.23345683716442434
1772792404319145200,2.634145263671875,-0.14472761988639832,0.1583826357513666,0.23666246480531988
1772792404329189000,2.644189208984375,-0.1247942544043064,0.17026479672491548,0.2481740389008075
1772792404339233300,2.6542333984375,-0.1209691431581974,0.15949088925421237,0.23068547275494783
1772792404349277000,2.66427685546875,-0.13879296914041042,0.12770809602439404,0.2153027197819203
1772792404359321000,2.674321044921875,-0.16852233697175978,0.14573650466799734,0.21720073542296886
1772792404369365200,2.684365234375,-0.16936346397101879,0.13948796566724778,0.2125334377316758
1772792404379409200,2.6944091796875,-0.14983458763659,0.13721125290691852,0.19277594027314335
1772792404389453000,2.704453125,-0.11172902112603186,0.13413783681094646,0.1651165471162647
1772792404399496200,2.71449609375,-0.12600772184729575,0.11190905386805533,0.1462938462898135
1772792404409540000,2.7245400390625,-0.12648176909983158,0.10373042358756064,0.17956391893532125
1772792404419584000,2.734583984375,-0.10429098007977008,0.08489128308296204,0.16084679737519472
1772792404429628200,2.744628173828125,-0.10058394225537777,0.09863573079705237,0.15255670607686042
1772792404439672300,2.75467236328125,-0.09690846861302851,0.0761000738620758,0.1635735189253464
1772792404449716000,2.764716064453125,-0.08902794449627399,0.08724339916706085,0.13525628291424363
1772792404459760000,2.774760009765625,-0.09345569781064987,0.10332125826478004,0.14442147654667495
1772792404469804000,2.784803955078125,-0.11506722563803196,0.11947042903304099,0.11553988465107977
1772792404479848200,2.79484814453125,-0.15304770446419716,0.1265074880629778,0.1131624514626339
1772792404489892400,2.804892333984375,-0.1604565194159746,0.09934007967412471,0.08325542550943792
1772792404499936000,2.81493603515625,-0.13484101664423942,0.08887713784873486,0.09811305862981826
1772792404509980200,2.824980224609375,-0.10820552317500114,0.0828928027421236,0.11657920110356063
1772792404520024000,2.835024169921875,-0.11808277406692504,0.08008475958406924,0.0920693214861676
1772792404530068200,2.845068115234375,-0.10068038836717605,0.07911737585663794,0.06784154674578458
1772792404540112100,2.855112060546875,-0.0582014290779829,0.0703226595044136,0.0617057839371264
1772792404550156000,2.865156005859375,-0.04298690881133079,0.050743514287471765,0.07925305800028144
1772792404560199000,2.875198974609375,-0.01975099465250969,0.05737433060407638,0.08081884601227939
1772792404570243000,2.8852431640625,-0.006674070936441421,0.05988192951083183,0.08103559403549879
1772792404580287200,2.895287353515625,-0.04676233569681644,0.07082710189521313,0.07978172151688485
1772792404590331100,2.9053310546875,-0.07037818908393383,0.07742986116111278,0.08710541546847671
1772792404600375300,2.915375244140625,-0.0985650036484003,0.09964169296920299,0.09000541122630237
1772792404610419000,2.9254189453125,-0.06664250968694686,0.11017419289946555,0.1323059452086687
1772792404620463000,2.935463134765625,-0.049396775853633876,0.14934943446815013,0.1501815379107371
1772792404630507300,2.94550732421875,-0.02934942860305309,0.13375439045131204,0.16686017591319977
1772792404640551200,2.95555126953125,0.0019727613776922225,0.10347732560932636,0.14257486229930072
1772792404650595000,2.965594970703125,-0.018586042526364324,0.08451952716112136,0.1276215867847204
1772792404660639000,2.975638916015625,-0.03691840255260467,0.08218553125560284,0.11611224117893724
1772792404670683100,2.98568310546875,-0.06841127292513847,0.10375205089747905,0.11521167561002076
1772792404680727300,2.995727294921875,-0.07606032637357711,0.09806699099838734,0.13119586507491768
1772792404690771200,3.005771240234375,-0.06908405762016773,0.11375263590812683,0.12593421821966766
1772792404700815000,3.015815185546875,-0.025673370438814163,0.10093991608619689,0.14311452213395387
1772792404710859000,3.02585888671875,-0.00568681346476078,0.0997720413506031,0.16048527058642356
1772792404720903200,3.035903076171875,-0.01864683280289173,0.10826748249530792,0.14716766998227684
1772792404730946000,3.045946044921875,-0.01664952150583267,0.11140694956481456,0.1584231869574636
1772792404740990200,3.055990234375,-0.017184943556785584,0.11495792004466056,0.14731635773796586
1772792404751034000,3.0660341796875,-0.01960486418008804,0.12198095054924488,0.17059881445225328
1772792404761078000,3.076078125,-0.026629648250341413,0.11795008759796619,0.18041001437064258
1772792404771122200,3.0861220703125,-0.03657879533469677,0.13313596629202365,0.1619396341132
1772792404781166000,3.096166015625,-0.03844400468468666,0.1213520049959421,0.1912541010007262
1772792404791210200,3.106210205078125,-0.03708849842250347,0.12099486212134361,0.1963023243010044
1772792404801254100,3.116254150390625,-0.024844518399238586,0.12789865016043186,0.20381620706245301
1772792404811298000,3.126298095703125,-0.009057166680693627,0.14853753356337546,0.2112083266077563
1772792404821342200,3.13634228515625,-0.01079202764928341,0.15009469987750051,0.22794822981078178
1772792404831386000,3.14638623046875,-0.038171032962203026,0.13749474602341652,0.22021540706902742
1772792404841429500,3.156429443359375,-0.04807926351428032,0.1303366909623146,0.20811277174521237
1772792404851473700,3.1664736328125,-0.06390168654620647,0.11213701740503311,0.2070731995644048
1772792404861517300,3.176517333984375,-0.11399287440478802,0.11509352912306785,0.15996468077842146
1772792404871561500,3.1865615234375,-0.16794190673530102,0.09087152653634548,0.14043620630279183
1772792404881605400,3.19660546875,-0.18760288501679898,0.09971417368352413,0.15544643616899848
1772792404891648500,3.2066484375,-0.2219043830692768,0.07710077533721924,0.16976386146545408
1772792404901692400,3.2166923828125,-0.2303483862876892,0.09184709357023238,0.14910536004658786
1772792404911736600,3.226736572265625,-0.24538579642176628,0.15809680454730987,0.1355983012849465
1772792404921780500,3.236780517578125,-0.22024667899012565,0.1573193904340267,0.15758805130757392
1772792404931824400,3.246824462890625,-0.21854338220357894,0.1343628777384758,0.1938591689325869
1772792404941868500,3.25686865234375,-0.2019581581056118,0.12319792512357235,0.1766512098263949
1772792404951912400,3.266912353515625,-0.16687983046174049,0.12264964359104633,0.15302673474140463
1772792404961956600,3.27695654296875,-0.1676712731003761,0.10780980185568333,0.11941617809515445
1772792404972000500,3.28700048828125,-0.13903496120274067,0.11039689573943615,0.12866196268312632
1772792404982044400,3.29704443359375,-0.0950531961351633,0.08868132301568984,0.14528309834469108
1772792404992088600,3.307088623046875,-0.030495676028728484,0.08201835799515247,0.15712061645891517
1772792405002132500,3.317132568359375,0.015908932271599768,0.1077104331344366,0.15806008926611392
1772792405012176600,3.3271767578125,0.04892272860109806,0.08435118485689162,0.14508768537044525
1772792405022220500,3.337220458984375,0.058116673403978344,0.06811667389273643,0.1584865710498765
1772792405032264400,3.347264404296875,0.04436287333965301,0.06396539943218231,0.15697649528048932
1772792405042308600,3.35730859375,-0.008028992676734924,0.07444996856749057,0.1146854597788304
1772792405052352500,3.3673525390625,-0.07220832712054252,0.10093991608619689,0.11306553042680025
1772792405062395600,3.377395751953125,-0.09652677581906319,0.10846212828457355,0.12656992230731992
1772792405072439600,3.387439453125,-0.11639876650273799,0.1255570554703474,0.13164138035271317
1772792405082483500,3.3974833984375,-0.12489245408177375,0.13489771526753902,0.15641151834148911
1772792405092527400,3.40752734375,-0.1326852999150753,0.12019406713247298,0.16035210919342935
1772792405102571500,3.417571533203125,-0.14008417799472808,0.10233984601199626,0.13131751869320868
1772792405112615700,3.42761572265625,-0.10176993716955185,0.09245791894495486,0.11448303254190832
1772792405122659300,3.437659423828125,-0.06667758100032806,0.0848228940218687,0.10143102407138795
1772792405132703500,3.447703369140625,-0.042748423880338664,0.0756599288791418,0.12105214526653289
1772792405142747400,3.457747314453125,0.0002963525980710983,0.08578443253040313,0.13204455432612447
1772792405152791600,3.46779150390625,0.01996668322980404,0.10514788917005062,0.13443557764850556
1772792405162835700,3.477835693359375,0.01244154842197895,0.09739245273768901,0.1303218587193638
1772792405172879400,3.48787939453125,-0.006591653349995613,0.10949088681042193,0.12316654360461979
1772792405182923500,3.497923583984375,-0.027718028008937835,0.10505319662392139,0.15769856247734276
1772792405192967400,3.507967529296875,-0.05124795667827129,0.10108078586161136,0.1809609627842903
1772792405203011600,3.518011474609375,-0.053360418787598604,0.12356792747974395,0.20378825960960237
1772792405213055500,3.528055419921875,-0.06036123746037483,0.14497662621140478,0.20411142714936284
1772792405223099400,3.538099365234375,-0.08466390406787395,0.14073825798928738,0.22368282745126633
1772792405233142500,3.548142578125,-0.10812135202288627,0.13395897311270236,0.19174056934341788
1772792405243186400,3.5581865234375,-0.12521511016488074,0.1392167475104332,0.19992226836383342
1772792405253230600,3.568230712890625,-0.11925766306519507,0.14174363563954828,0.17881255257874726
1772792405263274500,3.5782744140625,-0.12927636825442312,0.13038637532293795,0.1735998959643766
1772792405273318700,3.588318603515625,-0.13694412640333176,0.1288946754604578,0.16244889880958943
1772792405283362300,3.5983623046875,-0.10347791013121604,0.13365502173006533,0.17060586524754762
1772792405293406500,3.608406494140625,-0.0721089583992958,0.10614508351385593,0.178513021642901
1772792405303450600,3.61845068359375,-0.06990063470005989,0.10619359883069991,0.17212072678990661
1772792405313494500,3.62849462890625,-0.07231997080147266,0.08261340127885342,0.16078754146862775
1772792405323538400,3.638538330078125,-0.09556932896375656,0.0883475610166788,0.15660872141402213
1772792405333582300,3.648582275390625,-0.10421908388733864,0.0897509980738163,0.15237871916145085
1772792405343626500,3.65862646484375,-0.10997662450075149,0.09926759895980357,0.13443210704978556
1772792405353670700,3.668670654296875,-0.11593173351287842,0.12287643808424473,0.11531670688707381
1772792405363714600,3.678714599609375,-0.10589958432018756,0.11476736590862273,0.09511855298895389
1772792405373758500,3.688758544921875,-0.1049567505121231,0.1009784945309162,0.14405300856046377
1772792405383802400,3.69880224609375,-0.08936813623607158,0.0998807624220848,0.1504002221627161
1772792405393846500,3.708846435546875,-0.06931260567903519,0.11034136615991592,0.1636030372807756
1772792405403889400,3.718889404296875,-0.0630552988499403,0.0910579890191555,0.17411054890025407
1772792405413933600,3.72893359375,-0.06553951688110828,0.10487959362268447,0.13121986700501292
1772792405423977700,3.738977783203125,-0.054556935095787046,0.09445464572012424,0.10832100278083234
1772792405434021400,3.749021484375,-0.03734393448829651,0.0936813232600689,0.10993439279422164
1772792405444065500,3.7590654296875,-0.03070318129956722,0.0788362208276987,0.09566975713092833
1772792405454109400,3.769109375,-0.026644261297583578,0.09076514355242252,0.103051611010544
1772792405464153600,3.779153564453125,-0.01732055263519287,0.08529109605550765,0.09874127353075891
1772792405474197500,3.789197509765625,0.027001988694071766,0.07167465863525867,0.12395703639518468
1772792405484241400,3.799241455078125,0.03512801200449466,0.0779173524171114,0.1301604941451922
1772792405494285600,3.80928564453125,0.01705050352215767,0.10333119513690471,0.1517613544480875
1772792405504329500,3.81932958984375,0.04827274025976658,0.11827800437808036,0.130951644522883
1772792405514373600,3.82937353515625,0.009408464336395262,0.08887421523928642,0.13428590351212769
1772792405524417300,3.839417236328125,-0.024291560691595077,0.08292378240227699,0.12408566774353384
1772792405534461400,3.84946142578125,-0.06835398977994918,0.07981120333969592,0.09578622311744839
1772792405544505600,3.859505615234375,-0.10558218893408775,0.08137012321949004,0.07692991228234022
1772792405554549500,3.869549560546875,-0.09784311911463738,0.0957458545744419,0.08110054903049022
1772792405564593700,3.87959375,-0.07542261299192905,0.102469025349617,0.13604622771553695
1772792405574636500,3.889636474609375,-0.06538812571167946,0.10437573575377464,0.1694688240416348
1772792405584680400,3.899680419921875,-0.076937109208107,0.1128822828143835,0.1800259469565004
1772792405594724400,3.909724365234375,-0.050506198400259016,0.12239537656903267,0.17072835911605505
1772792405604768500,3.9197685546875,-0.04015782286524772,0.12981763552427292,0.1568325932977721
1772792405614812700,3.929812744140625,-0.043703532648086546,0.12651274875998497,0.15089845400843768
1772792405624856600,3.939856689453125,-0.049342999839782714,0.10998656137287616,0.13405808610562234
1772792405634900500,3.949900390625,-0.051453123861551285,0.08382920680940151,0.1178023131577298
1772792405644944400,3.9599443359375,-0.06080196696519851,0.07583703901171684,0.12104052789397537
1772792405654988500,3.969988525390625,-0.07107727726399898,0.06419570105671882,0.10423727713115513
1772792405665032400,3.980032470703125,-0.07260171035230159,0.09177285929024219,0.12008761108331381
1772792405675076600,3.99007666015625,-0.0679220281034708,0.11079378610253333,0.13258355657365173
1772792405685120500,4.00012060546875,-0.042915597140789026,0.11256196481883525,0.14879516158625483
1772792405695164400,4.010164306640625,-0.014884265398979185,0.12044131989181041,0.1764149899177253
1772792405705208600,4.02020849609375,-0.0029874913781881333,0.10539163479804992,0.20215769926570354
1772792405715252500,4.03025244140625,-0.006994388931989669,0.12191606861948966,0.20665475495662539
1772792405725296400,4.04029638671875,-0.009736965638399124,0.11796586968898773,0.1961161540791392
1772792405735340500,4.050340576171875,-0.02119359467625618,0.14408230772018432,0.1748973518963903
1772792405745383400,4.060383544921875,-0.035271804389357564,0.12432839045822619,0.16975699333325028
1772792405755427600,4.070427490234375,-0.053557987186312675,0.10009119030237197,0.16617321656234563
1772792405765471500,4.080471435546875,-0.09838906255960464,0.10692366667091846,0.17524879568256438
1772792405775515600,4.090515625,-0.1319791974723339,0.09773439804315566,0.1574659592978656
1772792405785559300,4.100559326171875,-0.16260989805757997,0.105902506929636,0.14031024183556437
1772792405795603500,4.110603515625,-0.15001169776916504,0.10757014788091182,0.12125300160087644
1772792405805647600,4.120647705078125,-0.13019699023067952,0.10091595068871974,0.12409925787746906
1772792405815691500,4.13069140625,-0.1262584817379713,0.08956102845966815,0.1320230731466785
1772792405825735700,4.140735595703125,-0.10596037459671497,0.08294424066841602,0.10594152376577258
1772792405835780000,4.150780029296875,-0.11285831741690636,0.07506956177055835,0.10460519712809473
1772792405845824300,4.16082421875,-0.10688041205108165,0.07090133617520332,0.10348408414367585
1772792405855868200,4.1708681640625,-0.08966624239981173,0.07801146044135093,0.1250548415692523
1772792405865912300,4.180912353515625,-0.12697510557472705,0.07890051823556422,0.14734905443117022
1772792405875956200,4.190956298828125,-0.13170797931551934,0.09998714540600775,0.17978987317830322
1772792405886000000,4.201000244140625,-0.1401665955811739,0.12159282801449298,0.18415395013932137
1772792405896044300,4.211044189453125,-0.14069675693511963,0.1328898825764656,0.16315533004589378
1772792405906088200,4.221088134765625,-0.11010580383837222,0.1537123058527708,0.19114917932152747
1772792405916132000,4.231132080078125,-0.084234865000844,0.15216682997643946,0.18642821521423755
1772792405926175200,4.24117529296875,-0.03580781096220016,0.13742694148421286,0.18872845498062668
1772792405936219100,4.25121923828125,-0.03158639387488365,0.11444412530362605,0.20070421252176165
1772792405946263300,4.26126318359375,-0.025523732835054398,0.10813830315768717,0.18416450806595383
1772792405956307200,4.27130712890625,-0.011883330017328261,0.10759645136594771,0.19528993238806724
1772792405966351400,4.281351318359375,-0.04228548254370689,0.09264087429642677,0.20241101643964646
1772792405976395000,4.29139501953125,-0.05023498024344444,0.11384791297614574,0.17562552004046736
1772792405986439200,4.301439208984375,-0.055330257555842394,0.12201368377506733,0.17204218166097998
1772792405996483300,4.3114833984375,-0.032550854992866515,0.12307517552673816,0.1591367420542985
1772792406006527200,4.32152734375,0.004399111741781234,0.12253566182255744,0.17211407785341143
1772792406016571400,4.3315712890625,-0.004804185411334038,0.10744739828407764,0.17648630158826709
1772792406026615000,4.341614990234375,0.010752864682674407,0.11895838785767554,0.18820428497605024
1772792406036659200,4.3516591796875,0.03831307178139686,0.11384849749803543,0.18403781294636426
1772792406046703000,4.361703125,0.032471944537758826,0.08478022392392158,0.16772731413654982
1772792406056747300,4.371747314453125,0.008833879318833351,0.07920680770576,0.154049246189557
1772792406066791400,4.38179150390625,-0.05086275675296783,0.07284896311163902,0.15219689632114022
1772792406076835000,4.3918349609375,-0.11719956149160861,0.08346212706267833,0.14012469266820698
1772792406086879200,4.401879150390625,-0.20018121156096458,0.112319972756505,0.11432393299005925
1772792406096922000,4.411922119140625,-0.2484516137331724,0.12691840695142745,0.10056231494545936
1772792406106966300,4.42196630859375,-0.27038696668744083,0.12964520156681536,0.12182773274891077
1772792406117010200,4.43201025390625,-0.24317513463497162,0.1170212823152542,0.11334350711796431
1772792406127054300,4.442054443359375,-0.19419921454191208,0.09330021498799324,0.13220098699685184
1772792406137098200,4.45209814453125,-0.13763853840827941,0.07244856561720371,0.13103420823980122
1772792406147142100,4.46214208984375,-0.09685995329618453,0.07608370724916458,0.1380543526675552
1772792406157186300,4.472186279296875,-0.05787117421030998,0.08238952939510345,0.1210076120050624
1772792406167230200,4.482230224609375,-0.01841068595945835,0.07193710896372794,0.12149327663015573
1772792406177274000,4.492274169921875,-0.004911152917146683,0.08309095566272735,0.1189830108422786
1772792406187318300,4.502318359375,-0.03404781555235386,0.10026362425982951,0.11669669000338763
1772792406197362200,4.512362060546875,-0.044642859324812885,0.11051730724871157,0.12443638087734579
1772792406207406300,4.52240625,-0.06074351477622986,0.12290449513494968,0.14142156407833098
1772792406217450200,4.5324501953125,-0.0354968453168869,0.12191489957571029,0.15675350017957387
1772792406227494100,4.542494140625,-0.026942951983213424,0.12291384748518466,0.17991985623352227
1772792406237538000,4.5525380859375,-0.01187163957953453,0.12026128714978694,0.1893584234472364
1772792406247582200,4.562582275390625,0.009797755914926529,0.12407236987054347,0.18070764561034738
1772792406257626400,4.57262646484375,0.013541618618369103,0.10363397747576236,0.1419738641988486
1772792406267670300,4.582670166015625,-0.025682722789049147,0.0732943687915802,0.1002776893178001
1772792406277714200,4.592714111328125,-0.055826516640186306,0.08138882791996002,0.05631934165842831
1772792406287757000,4.602757080078125,-0.073337623411417,0.06463058534264564,0.040098347762972116
1772792406297801200,4.61280126953125,-0.050396308284997936,0.05257131423652172,0.07558255279399455
1772792406307845000,4.62284521484375,-0.03320259689986706,0.06066635788679123,0.09711458564437925
1772792406317889300,4.63288916015625,-0.03712006260454655,0.06361117916703224,0.1317792909860611
1772792406327933200,4.64293310546875,-0.03820610427558422,0.07810089229047298,0.12979827323667703
1772792406337977000,4.65297705078125,-0.052258010503649706,0.11693594211935997,0.14511621734518557
1772792406348021200,4.663021240234375,-0.06911386823654174,0.11948504208028315,0.15659750590026378
1772792406358065200,4.673065185546875,-0.05472177026867866,0.13849661654233933,0.17623875656798482
1772792406368109300,4.683109375,-0.03110357879400253,0.1303887134104967,0.16975480137616394
1772792406378153200,4.6931533203125,-0.01830488749742508,0.1093617074728012,0.16080065667852758
1772792406388197000,4.703197021484375,-0.025071897414326666,0.11032266145944594,0.1941346979383379
1772792406398241300,4.7132412109375,-0.05550269151329994,0.11874854449927806,0.17422398267947137
1772792406408285200,4.72328515625,-0.06298632526695729,0.1258791270315647,0.15596563773751257
1772792406418329300,4.733329345703125,-0.04309095370769501,0.10051087701916694,0.1477966155355796
1772792406428373000,4.743373046875,-0.05365618686378002,0.09878419935703277,0.15356884226147086
1772792406438417200,4.753417236328125,-0.09826631296277046,0.08713935427069663,0.13529909914266317
1772792406448461300,4.76346142578125,-0.12040098788142203,0.0915454802751541,0.1497291545007378
1772792406458505200,4.773505126953125,-0.11942483632564543,0.09653554364740848,0.1477391497272998
1772792406468548400,4.78354833984375,-0.09708616326749324,0.09601882629692554,0.15641688863635062
1772792406478592300,4.79359228515625,-0.09695932201743125,0.10803542730510234,0.18250267580095678
1772792406488636200,4.80363623046875,-0.08268295938372612,0.1225070202499628,0.19793836453761904
1772792406498680000,4.81368017578125,-0.10015607223212718,0.14216799853146075,0.19663225037511436
1772792406508724200,4.82372412109375,-0.1530541342049837,0.11615385183095932,0.19267759446520358
1772792406518768400,4.833768310546875,-0.19783844782710075,0.12182605224847792,0.1767921891996637
1772792406528812300,4.843812255859375,-0.23562194277644155,0.11430617813766002,0.14007314514406025
1772792406538856200,4.853856201171875,-0.20434300741553305,0.11563070473968982,0.15527867838665843
1772792406548900000,4.863900146484375,-0.18715455672740935,0.0988572645932436,0.1703477623006329
1772792406558944300,4.8739443359375,-0.15987199752628803,0.1067781207203865,0.1598543888043612
1772792406568988400,4.883988525390625,-0.10652151561081409,0.12039222005307673,0.15276337109748273
1772792406579032000,4.894031982421875,-0.05766659154891968,0.11921616201102733,0.1499412994140759
1772792406589076200,4.904076171875,-0.04604162020683288,0.11336743598282337,0.15024134180657564
1772792406599120100,4.9141201171875,-0.04891571433842182,0.11530337248146533,0.15313892641160637
1772792406609164300,4.924164306640625,-0.04537468073070049,0.09520750991404056,0.14986081805638968
1772792406619208200,4.934208251953125,-0.009925181686878204,0.08105038974583148,0.13707144257742912
1772792406629252000,4.944252197265625,0.009224339941143989,0.09544833293259143,0.11851137474253773
1772792406639296300,4.954296142578125,0.0395662867128849,0.11945581598579882,0.13240476594064385
1772792406649339100,4.964339111328125,0.0832628050982952,0.09355448201000689,0.16235270842611788
1772792406659383300,4.97438330078125,0.10245850395560265,0.10383972918093204,0.19203619128912686
1772792406669427200,4.98442724609375,0.10505728827714919,0.10706278288066387,0.1920669152209535
1772792406679471400,4.994471435546875,0.10000409654080868,0.12554302694499492,0.18742135443743319
1772792406689515000,5.004514892578125,0.07425123112499714,0.11875672780573368,0.1722022310608998
1772792406699559200,5.01455908203125,0.005603226834535599,0.0856552531927824,0.15045140436068177
1772792406709603300,5.024603271484375,-0.08924071046411991,0.08650164088904858,0.1192706321446225
1772792406719647200,5.034647216796875,-0.12915361865758895,0.11640519624352455,0.0819030975850299
1772792406729691400,5.04469140625,-0.14428279872834682,0.10379939717054366,0.07630688501317054
1772792406739735000,5.054735107421875,-0.12836802123785018,0.08535539346337317,0.1180751022171229
1772792406749779200,5.064779296875,-0.10823416474759578,0.07659282581508159,0.13126261016819626
1772792406759823400,5.0748232421875,-0.08570435303151606,0.08311316749453544,0.14608418559450656
1772792406769867300,5.0848671875,-0.07219079146385192,0.07591010424792766,0.15734726482164113
1772792406779911200,5.0949111328125,-0.0695341394752264,0.09259411254525184,0.14324150951448827
1772792406789955000,5.104955078125,-0.10552081413567066,0.10348784700334071,0.1401626500584185
1772792406799999200,5.114999267578125,-0.15834756443798542,0.10307517454922199,0.15733462453577668
1772792406810043100,5.125043212890625,-0.15093991852998734,0.1360053842484951,0.14982812136318532
1772792406820087300,5.13508740234375,-0.14880524458885191,0.13438041339516638,0.186416232515499
1772792406830131200,5.145131103515625,-0.13417875334322452,0.103310152348876,0.19139438625425098
1772792406840173800,5.155173828125,-0.12573241203725338,0.12379589101672171,0.1674685901351273
1772792406850217700,5.1652177734375,-0.0965478186070919,0.13301438573896884,0.16885160545874386
1772792406860261600,5.17526171875,-0.06939969944059848,0.1158446397513151,0.16446338043715805
1772792406870305800,5.185305908203125,-0.0427425786614418,0.10313070412874221,0.1593527594251558
1772792406880349700,5.195349609375,-0.03687748602032661,0.11379998218119143,0.15619177464358508
1772792406890393900,5.205393798828125,-0.03253098124861717,0.11634323692321777,0.16237813512831925
1772792406900437800,5.215437744140625,-0.03772387371659278,0.0839472802311182,0.1404650670710951
1772792406910481700,5.225481689453125,-0.06444353833794593,0.06142623634338379,0.11155479707028716
1772792406920525800,5.23552587890625,-0.06341419529020786,0.06530979977846145,0.11668342866301536
1772792406930569700,5.24556982421875,-0.07863339173197746,0.08513152157962321,0.09678078711275011
1772792406940613600,5.255613525390625,-0.07863222268819808,0.07966565738916397,0.10101035097390412
1772792406950657500,5.265657470703125,-0.0892500628143549,0.06967091759741306,0.08247943616826087
1772792406960701700,5.27570166015625,-0.10330489165186882,0.06163549517989158,0.09140877521820366
1772792406970745900,5.285745849609375,-0.09285305574238299,0.08966156622469425,0.08545761172883212
1772792406980789800,5.295789794921875,-0.12111878076195716,0.09203764770627021,0.08837978278584778
1772792406990833700,5.305833740234375,-0.10891805535852908,0.0937023660480976,0.08493194388691336
1772792407000877600,5.315877685546875,-0.12290215704739094,0.08871347171962261,0.09810465612765401
1772792407010921700,5.325921630859375,-0.09524433479309082,0.07852116352915764,0.08627192378640175
1772792407020966000,5.3359658203125,-0.10316694448590279,0.05931728136539459,0.06746617409475147
1772792407031008800,5.3460087890625,-0.09701952777206897,0.061546647852659224,0.06231792448610067
1772792407041053000,5.356052978515625,-0.09151508513689041,0.07662497451901436,0.06199088448882103
1772792407051096600,5.3660966796875,-0.06380524043440819,0.10859832188487052,0.09560228138528763
1772792407061140700,5.376140625,-0.013854337829351424,0.09088964671492576,0.108881632338278
1772792407071184600,5.3861845703125,-0.003963642933964729,0.08411386896967887,0.10849230422712862
1772792407081228800,5.396228759765625,-0.020769816306233403,0.09525018001198768,0.12666476098392157
1772792407091272700,5.406272705078125,-0.03710720312297344,0.09505202709138393,0.11905315346904098
1772792407101316600,5.416316650390625,-0.03718377549052238,0.08304770104289054,0.11532401341069488
1772792407111360800,5.42636083984375,-0.07788286562561988,0.0801215844631195,0.09019106999151408
1772792407121404700,5.43640478515625,-0.06643675798177719,0.09765490306615829,0.10535853624604642
1772792407131448800,5.44644873046875,-0.03207973034977913,0.09614742111265659,0.14534717655684798
1772792407141492500,5.456492431640625,0.01252045887708664,0.11364274579286575,0.17312471620067954
1772792407151536600,5.46653662109375,0.06756722331643104,0.11794658046662806,0.20599504893887788
1772792407161580800,5.476580810546875,0.08249825046658515,0.1306856505304575,0.23944139146674423
1772792407171624700,5.486624755859375,0.08703414033055305,0.14337036005854606,0.26455621470734475
1772792407181668900,5.4966689453125,0.06709785223901271,0.12547113075256347,0.26250129147153345
1772792407191712500,5.50671240234375,0.020603812089562416,0.1409551156103611,0.23865594017747788
1772792407201756700,5.516756591796875,-0.030841712987422942,0.1434381645977497,0.23708792367577552
1772792407211800800,5.52680078125,-0.06890051774680614,0.1372995157122612,0.1966965477829799
1772792407221844700,5.5368447265625,-0.09166589178442955,0.10729016189575195,0.16565489177666604
1772792407231888000,5.546887939453125,-0.10692834284603595,0.08798340387940407,0.14481577309388666
1772792407241931800,5.556931884765625,-0.12116028181612491,0.10279694212973117,0.13626173362974076
1772792407251975700,5.5669755859375,-0.12076163788735866,0.08473404669463634,0.13034096527863293
1772792407262019600,5.57701953125,-0.13692659074664115,0.07421206815838813,0.1428718359518796
1772792407272063700,5.587063720703125,-0.20051731164753436,0.09565291559398174,0.15530501840431243
1772792407282108000,5.59710791015625,-0.21710370478928087,0.1104687919318676,0.1335737731873989
1772792407292151800,5.60715185546875,-0.238461550116539,0.12013619946539401,0.12677070557642728
1772792407302195700,5.61719580078125,-0.22740356500744818,0.10215046091973781,0.12786825502216814
1772792407312239600,5.627239501953125,-0.18733458946943282,0.11486381202042102,0.15033464611321687
1772792407322283800,5.63728369140625,-0.15356617538034914,0.10814122576713561,0.16493757382016627
1772792407332327700,5.64732763671875,-0.13405425018072128,0.1002121863335371,0.16957918908093123
1772792407342371600,5.65737158203125,-0.09147299956083298,0.09489595974683761,0.15099405987001954
1772792407352415700,5.667415771484375,-0.070588616964221,0.09318272608816623,0.14335545475035905
1772792407362459600,5.677459716796875,-0.049501405271887775,0.08408756548464298,0.14248517472185193
1772792407372503800,5.68750390625,-0.05046878899931907,0.10844167001843452,0.1462741552086547
1772792407382547700,5.697547607421875,-0.021214637464284897,0.10922902100384235,0.1375386216977611
1772792407392591600,5.707591552734375,0.004164718464016914,0.11274784277975558,0.12690412269774823
1772792407402635800,5.7176357421875,0.024603695380687712,0.1040723688930273,0.13084544420205055
1772792407412679700,5.7276796875,0.05262684381604194,0.08224281440079212,0.14586484375540165
1772792407422722800,5.737722900390625,0.04136369152367115,0.07947334968745708,0.12412267528567462
1772792407432766700,5.7477666015625,0.03672024963200092,0.09292904358804226,0.14321239301785826
1772792407442811000,5.757810791015625,0.015310966378450393,0.09615326633155345,0.13607662285380065
1772792407452854500,5.7678544921875,-0.01357961254119873,0.0923871917963028,0.1481880990711972
1772792407462898700,5.777898681640625,-0.043375031346082685,0.10059797078073024,0.15658037210237233
1772792407472942800,5.78794287109375,-0.051072015589475626,0.1142114855915308,0.14944478460140526
1772792407482986800,5.79798681640625,-0.05824877535104751,0.12758885355889796,0.14756342783421278
1772792407493031000,5.808031005859375,-0.059607204222679136,0.10293839642703533,0.14287713318150488
1772792407503074600,5.818074462890625,-0.06997779158949852,0.10917699855566024,0.14721720821242779
1772792407513118700,5.82811865234375,-0.07583236283659935,0.10975158357322215,0.1522459230946377
1772792407523162600,5.83816259765625,-0.07912088298797607,0.09649462711513042,0.16596837817262858
1772792407533206800,5.848206787109375,-0.10933306590020656,0.09378069198131561,0.16169092004913835
1772792407543250700,5.858250732421875,-0.11450491558015345,0.09536007012724876,0.14009897370506078
1772792407553294600,5.868294677734375,-0.09522563009262085,0.10374386759102344,0.12301917102318256
1772792407563338800,5.8783388671875,-0.0766226364314556,0.1088560960382223,0.13340590580720454
1772792407573382700,5.888382568359375,-0.057144028979539865,0.0832850169301033,0.14975034341923893
1772792407583426800,5.8984267578125,-0.06226560977697372,0.05080956526100635,0.12840079099629073
1772792407593470700,5.908470703125,-0.06904314108788967,0.04431318897902965,0.09751651750877499
1772792407603514600,5.9185146484375,-0.03763970256447792,0.04047638729512691,0.08622008400131016
1772792407613558800,5.928558837890625,-0.006351414853334426,0.022492986837029456,0.060016734871640796
1772792407623602700,5.938602783203125,0.008129530441761016,0.01934825907051563,0.08607479377910494
1772792407633645800,5.948645751953125,-0.04071896387934684,0.0673421823889017,0.11738722955081611
1772792407643689700,5.958689697265625,-0.05757657517790794,0.11136778659820556,0.10789956249836832
1772792407653733600,5.968733642578125,-0.1189998889118433,0.1078372743844986,0.09203658826034515
1772792407663777800,5.97877783203125,-0.05940495964884757,0.04222878392040729,0.06519278580266982
1772792407673821700,5.98882177734375,0.03027881840765476,-0.005337269374728203,0.08320186869129538
1772792407683865900,5.998865966796875,0.05466974782049656,-0.009905892464518546,0.07999580265898257
1772792407693909800,6.00890966796875,0.02883621838390827,0.029015082082152366,0.0647241453776136
1772792407703953700,6.01895361328125,-0.06204933667778968,0.056384735044836994,0.07541673124041408
1772792407713997600,6.02899755859375,-0.2205360173255205,0.07161912905573845,0.09697064712904394
1772792407724041700,6.039041748046875,-0.3656178574770689,0.09364683646857738,0.10664536118619143
1772792407734086000,6.0490859375,-0.43142917703688144,0.13323182788193225,0.08751571330241859
1772792407744129500,6.059129638671875,-0.42053544257879255,0.15997545790076254,0.051326428741961715
1772792407754173700,6.069173583984375,-0.34180911186635493,0.10627601641714572,0.11915442188642919
1772792407764217600,6.079217529296875,-0.20197335567474364,0.022919103294610974,0.17828279308360068
1772792407774261800,6.08926171875,-0.13021627945303915,0.002683539995551109,0.22265498224087057
1772792407784306000,6.099305908203125,-0.12403496046960354,0.04376958362162113,0.26905951747596263
1772792407794349600,6.109349609375,-0.16730010170042514,0.15362228948175907,0.25767456543482836
1772792407804393700,6.119393798828125,-0.18081483231186865,0.20296061314642427,0.2401520970193669
1772792407814437600,6.129437744140625,-0.17710662544369696,0.2287275070875883,0.2513504404472187
1772792407824481800,6.139481689453125,-0.14542670806646346,0.2338467497974634,0.27941077908780426
1772792407834525700,6.149525634765625,-0.09587737199962139,0.2001186677187681,0.3274538387775421
1772792407844569600,6.159569580078125,-0.0649941579580307,0.1981184338122606,0.33856366367172447
1772792407854613500,6.169613525390625,-0.07388356685638427,0.17717793711423874,0.3111957277420908
1772792407864657700,6.17965771484375,-0.09257774593234061,0.16659283021390436,0.27601704499628393
1772792407874701800,6.189701904296875,-0.1113876603424549,0.1560784504622221,0.24573928603455422
1772792407884745500,6.199745361328125,-0.16124737753272056,0.1300233872294426,0.20148659507110714
1772792407894789600,6.20978955078125,-0.16117372777462005,0.12793313695192338,0.18096943835169077
1772792407904833500,6.21983349609375,-0.1472241128772497,0.13782792350053785,0.16222531918678432
1772792407914877700,6.229877685546875,-0.14961948358118532,0.1425619662851095,0.178282902681455
1772792407924921600,6.239921630859375,-0.19003858773112295,0.13480769889652727,0.20118023253567516
1772792407934965500,6.249965576171875,-0.1881067428857088,0.1493687236905098,0.1973682730320841
1772792407945009700,6.260009765625,-0.16177110914587975,0.2029559369713068,0.1844889907799661
1772792407955053600,6.270053466796875,-0.15569675766825675,0.22201427318453787,0.16523768927790222
1772792407965097700,6.28009765625,-0.1411462542682886,0.24238135390877721,0.1439586813405156
1772792407975141600,6.2901416015625,-0.10501228009164333,0.22732933072745798,0.15487736757677048
1772792407985185500,6.300185546875,-0.05842471643984318,0.18018237962722777,0.16790771220475434
1772792407995229700,6.310229736328125,-0.03488134376704693,0.15627426529526708,0.1842654842223972
1772792408005272600,6.3202724609375,-0.0027051673054695126,0.14292086272537707,0.16703293866422025
1772792408015316700,6.330316650390625,0.046402854734659195,0.10905191087126731,0.12948986487463116
1772792408025360600,6.340360595703125,0.07900748574137688,0.09355389748811721,0.10874226040020585
1772792408035404800,6.35040478515625,0.08259878823161125,0.06062193422317504,0.08593019767664373
1772792408045448400,6.360448486328125,0.10735212121605872,0.016713818913698195,0.09418207585643977
1772792408055492600,6.37049267578125,0.11154723481833934,0.026328619477152822,0.05623509744107723
1772792408065535500,6.380535400390625,0.1263537588059902,0.037436288946866986,0.0712326504888013
1772792408075579600,6.39057958984375,0.12429974888563156,0.04351765468716621,0.0747917677424848
1772792408085623800,6.400623779296875,0.09794950209856033,0.0728454559803009,0.08896339136008173
1772792408095667700,6.410667724609375,0.07718786909878253,0.13083996430933476,0.11030231279116123
1772792408105711600,6.420711669921875,0.05280687655806541,0.15196166279315948,0.1375156061483547
1772792408115755500,6.430755615234375,0.060059039643406864,0.16433189954459665,0.18031671006400138
1772792408125799700,6.440799560546875,0.06582943973839282,0.13714870906472204,0.19743008622191846
1772792408135843600,6.450843505859375,0.05527823510766029,0.12050094112455845,0.16477102161422372
1772792408145887500,6.460887451171875,0.03790741358995437,0.09096154290735721,0.1309815282044932
1772792408155931600,6.470931640625,0.009144260442256927,0.059496145063638685,0.09950907956548034
1772792408165975600,6.4809755859375,-0.023778350472450256,0.059979544666409486,0.06300331293437629
1772792408176019700,6.491019775390625,-0.033984687188267707,0.0293751475661993,0.004934570325352251
1772792408186063600,6.501063720703125,-0.041803836506605144,0.03587503097951412,-0.048328708230704065
1772792408196107500,6.511107421875,-0.05796820484399795,0.027183190479874608,-0.05075173412654549
1772792408206151700,6.521151611328125,-0.059089317828416824,0.0016296470284461973,-0.019600699461624026
1772792408216195600,6.531195556640625,-0.05046352830231189,0.009303250396251678,0.005926175178587436
1772792408226239700,6.54123974609375,-0.05273439584374427,0.03463584457337856,0.0250795692641288
1772792408236283600,6.55128369140625,-0.07951134361028671,0.05733166050612926,0.042420543632842596
1772792408246327600,6.56132763671875,-0.08490238899886608,0.07817278848290443,0.08132270388118923
1772792408256371700,6.571371826171875,-0.09725275200605392,0.09209960702657699,0.14337638794053345
1772792408266415600,6.58141552734375,-0.029304420417547224,0.048124271699786184,0.15640001056678593
1772792408276458800,6.591458740234375,0.03310965791940689,0.07507774507701397,0.08056947436109185
1772792408286502700,6.601502685546875,0.03416179732084274,0.11429974839687347,0.024147950969822703
1772792408296546800,6.611546875,-0.006594575959444046,0.09663725045621395,0.07412164992857724
1772792408306590500,6.621590576171875,-0.05974690495431423,0.07528291226029396,0.1763069994986057
1772792408316634600,6.631634521484375,-0.06420914506018162,0.08256488596200942,0.2362404765335843
1772792408326678500,6.641678466796875,-0.06417348922491073,0.11701777518391608,0.23489757402464745
1772792408336722700,6.65172265625,-0.050610243296623225,0.1513724647283554,0.1960396547768265
1772792408346768600,6.6617685546875,-0.0610685089468956,0.1712193209707737,0.1812654621561989
1772792408356812800,6.671812744140625,-0.0863262843221426,0.149981887152791,0.20319065904263406
1772792408366856400,6.6818564453125,-0.0795902540653944,0.13582827411592005,0.21534001958500593
1772792408376900600,6.691900634765625,-0.08970131371319294,0.12274725874662398,0.17565460000447927
1772792408386944500,6.701944580078125,-0.10218845484256744,0.10659574989080428,0.15921554291155188
1772792408396987600,6.711987548828125,-0.1545879196435213,0.11195756918489932,0.1259026905702427
1772792408407031600,6.722031494140625,-0.16262977180182933,0.09871405673027038,0.13070278432834892
1772792408417075700,6.73207568359375,-0.15708733524382112,0.07961421946287155,0.14722301689870654
1772792408427119600,6.74211962890625,-0.134222592484951,0.09010112668573855,0.13849135584533215
1772792408437163500,6.75216357421875,-0.1369891345888376,0.0770633659362793,0.1217933920878917
1772792408447207700,6.762207763671875,-0.14574176536500452,0.06673778675496578,0.12631952774282545
1772792408457251600,6.77225146484375,-0.13574234939813612,0.07401391523778438,0.10771152911297976
1772792408467295700,6.782295654296875,-0.16083470507860181,0.10906009417772293,0.09795768540501594
1772792408477339600,6.792339599609375,-0.1567278542816639,0.12140285840034484,0.08381389964241534
1772792408487383600,6.802383544921875,-0.16516601228117941,0.1056318732947111,0.09674381610322744
1772792408497427700,6.812427734375,-0.15622399641275406,0.10852467212677001,0.11907043339740485
1772792408507471600,6.8224716796875,-0.1447404793679714,0.11211597461700439,0.1332293801965192
1772792408517515800,6.832515869140625,-0.1125298161149025,0.12476911996304989,0.13350264417994767
1772792408527559400,6.842559326171875,-0.08604571381509303,0.10310264707803726,0.1175107463326305
1772792408537603600,6.852603515625,-0.0503022002607584,0.10227671764791012,0.1257986822064966
1772792408547647700,6.862647705078125,-0.033548049336671826,0.0863432354569435,0.12193440799377858
1772792408557691600,6.872691650390625,-0.006105331137776375,0.09702829560041427,0.14283986991103736
1772792408567735600,6.882735595703125,0.01990647747516632,0.07197276479899883,0.15644742990508675
1772792408577779500,6.892779541015625,0.02409925298988819,0.040649990296363826,0.1167910537559539
1772792408587823600,6.90282373046875,0.026128712990880012,0.03708674485683441,0.07386157422028482
1772792408597867800,6.91286767578125,-0.006374211207032203,0.03263385710120201,0.03774301680848002
1772792408607911700,6.92291162109375,-0.041819034075737,0.050720133411884305,0.02769895798228681
1772792408617955600,6.93295556640625,-0.10289397276341915,0.09149111973941326,0.03548340131342411
1772792408627998500,6.94299853515625,-0.09593582418859005,0.1195966857612133,0.08494162503071129
1772792408638042600,6.953042724609375,-0.05186813440322876,0.11739070014953612,0.13224566638879479
1772792408648086500,6.96308642578125,-0.005393967998027801,0.1115969191789627,0.17475801649093628
1772792408658130700,6.973130615234375,0.030562311524152754,0.08719488385021686,0.18831391936298458
1772792408668174800,6.9831748046875,0.07114508180320263,0.09238310014307498,0.17242800264079122
1772792408678218500,6.993218505859375,0.09915361719131469,0.1125946980446577,0.17144224300645292
1772792408688262700,7.0032626953125,0.09179214851260185,0.12073065822720527,0.16803418812863527
1772792408698306600,7.013306640625,0.04579144483804703,0.1051835450053215,0.1478653333902359
1772792408708350700,7.023350830078125,0.007355038937926292,0.10839198565781116,0.14434716920144855
1772792408718394600,7.03339453125,-0.016343816557526588,0.11484861445128917,0.13878376292064784
1772792408728438500,7.0434384765625,-0.04754033433198929,0.11665712517797946,0.09556534690838307
1772792408738482700,7.053482666015625,-0.06525251663327217,0.09657646017968655,0.12419471760857849
1772792408748526600,7.063526611328125,-0.08413315819203854,0.1028045409142971,0.1408310508392751
1772792408758570800,7.07357080078125,-0.10220540597736835,0.11120236690342426,0.15687756495065985
1772792408768614700,7.08361474609375,-0.12065291681587695,0.12852116597294808,0.18930088457372038
1772792408778658600,7.093658447265625,-0.10403554401397705,0.14244213929772376,0.21143095638249068
1772792408788702700,7.10370263671875,-0.07214286066889762,0.12767536279857158,0.2035811927301809
1772792408798746600,7.11374658203125,-0.06555763705968856,0.11698328839242457,0.20527827897164969
1772792408808790800,7.123790771484375,-0.05719312881827354,0.12264496741592883,0.2002576743306592
1772792408818834400,7.13383447265625,-0.10201835897266864,0.1187426992803812,0.16790113633349538
1772792408828878600,7.143878662109375,-0.14278233103752136,0.12615911301672458,0.13572097781654446
1772792408838922500,7.153922607421875,-0.17814064466655252,0.10181669892072677,0.12148790633529424
1772792408848966400,7.16396630859375,-0.19575988798737526,0.10023206007778644,0.10909735744819045
1772792408859010600,7.174010498046875,-0.18659809188842771,0.11661503960192203,0.1219952348029241
1772792408869054500,7.184054443359375,-0.19400047709941862,0.177332250893116,0.1468122441407293
1772792408879097300,7.194097412109375,-0.19924656105935573,0.1968202106952667,0.15862674670554697
1772792408889141500,7.2041416015625,-0.1807178016781807,0.20067863968908786,0.2197170290928334
1772792408899185400,7.214185302734375,-0.11926350828409195,0.1690489911943674,0.257698676962778
1772792408909229600,7.2242294921875,-0.05475099636316299,0.12767302471101283,0.2590004437437281
1772792408919273500,7.2342734375,-0.015990180814266203,0.10379004482030868,0.23424258071463555
1772792408929317400,7.2443173828125,0.021444939088821408,0.09058978698551655,0.2071300443181768
1772792408939361500,7.254361572265625,0.028202012133598325,0.06484510487616062,0.20350177081841975
1772792408949405400,7.264405517578125,0.04379179545342922,0.05246259316504001,0.1844666693503037
1772792408959449600,7.27444970703125,0.04889350250661373,0.051883916494250296,0.16691654574293643
1772792408969493500,7.284493408203125,0.0259288065046072,0.05891513030529022,0.15690532974041999
1772792408979537400,7.294537353515625,-0.02788286318182945,0.0793856714040041,0.12210684195123613
1772792408989581300,7.304581298828125,-0.08348200080692768,0.08856266507208346,0.10783964900467544
1772792408999625500,7.31462548828125,-0.12308978857398033,0.11707622737288474,0.10357475810181349
1772792409009669600,7.324669677734375,-0.11449965488314628,0.1091436808079481,0.07330883570834994
1772792409019713300,7.33471337890625,-0.1101765309870243,0.09827508079111576,0.07977573016751557
1772792409029757400,7.34475732421875,-0.1217488953590393,0.08037585148513317,0.04971121209766716
1772792409039801300,7.35480126953125,-0.1434381645977497,0.0630640666782856,0.01441631909366697
1772792409049845500,7.364845458984375,-0.1441273159056902,0.02861936076283455,0.017618549201078713
1772792409059889700,7.3748896484375,-0.1189040273219347,0.017595862445235252,0.05235153400599956
1772792409069933300,7.384933349609375,-0.10634323643445968,0.03527063534557819,0.058821497205086046
1772792409079977500,7.3949775390625,-0.06859598184227943,0.04323006991744041,0.07264821637514979
1772792409090021400,7.405021484375,-0.0733726947247982,0.07121814703941345,0.0675095748450607
1772792409100065500,7.4150654296875,-0.0685316844344139,0.09979600674808024,0.10081124820522963
1772792409110109400,7.425109375,-0.06104688163697719,0.10977964062392712,0.08549096600916237
1772792409120153300,7.4351533203125,-0.06345277373492718,0.10142390021085738,0.10103968666624277
1772792409130196500,7.445196533203125,-0.055737669312953944,0.12458441104590892,0.10460654883496463
1772792409140240400,7.455240478515625,-0.058386722517013545,0.11992401801943778,0.1159134672038257
1772792409150284500,7.465284423828125,-0.05803016416430473,0.12157996853291987,0.11635737504642456
1772792409160328400,7.475328369140625,-0.04151216008365154,0.12462357401251792,0.10175430120900272
1772792409170372600,7.48537255859375,-0.015481062248349189,0.08226327266693115,0.10481599033456294
1772792409180416300,7.495416259765625,-0.026338556349277495,0.08407470600306988,0.12493640282135456
1772792409190460400,7.50546044921875,-0.01692833844721317,0.09731295776069164,0.118515283732675
1772792409200504600,7.515504638671875,-0.014675591084361075,0.1012450365126133,0.14983265140783042
1772792409210548500,7.525548583984375,-0.0056903205960989,0.11486673462986946,0.2125915611270815
1772792409220592400,7.53559228515625,0.006029927814006805,0.11513619922101496,0.1745489768501371
1772792409230636300,7.54563623046875,0.01116319904923439,0.08689327055513858,0.14331636484898627
1772792409240680400,7.555680419921875,-0.02290975094437599,0.07045242336392402,0.09479520278610289
1772792409250724600,7.565724609375,-0.11199030241072178,0.08065817555785179,0.08008362707290798
1772792409260768500,7.5757685546875,-0.16651625784635543,0.1144336039096117,0.11120547217596322
1772792409270812400,7.5858125,-0.13362754920125006,0.14878595536649225,0.16692220829874277
1772792409280856300,7.595856201171875,-0.056221653437614434,0.17483809598982333,0.23835878386180848
1772792409290900500,7.605900390625,0.00015840543210506437,0.19884967069625853,0.30562695116642863
1772792409300944600,7.615944580078125,0.06616787791252136,0.20397885027825832,0.3385794822953641
1772792409310988500,7.625988525390625,0.10477496420443057,0.16100830807983874,0.34219153531268237
1772792409321032400,7.636032470703125,0.1484837575495243,0.06442834076881408,0.23723584424648433
1772792409331076400,7.646076416015625,0.12952888171076773,0.013734510841965674,0.11434632748495786
1772792409341120500,7.65612060546875,-0.008954290828108787,0.04914835405051708,0.04231770431287586
1772792409351164700,7.66616455078125,-0.14736615169644354,0.06341536433398723,0.05121971696447581
1772792409361208300,7.676208251953125,-0.16479016470611094,0.03195931884050369,-0.0029215134698897596
1772792409371252500,7.68625244140625,-0.15954524978995321,0.03148702515363693,-0.107689426879026
1772792409381295400,7.69629541015625,-0.2486041739463806,-0.0007394201904535293,-0.120403399034217
1772792409391339500,7.706339599609375,-0.2978139027953148,-0.03456044124960899,-0.04801825404204428
1772792409401383400,7.716383544921875,-0.2754074251979589,-0.011026420927047729,0.06369264690540731
1772792409411427600,7.726427490234375,-0.2500987964183092,0.03357669090926647,0.15149685829300433
