time,seconds_elapsed,z,y,x
1772792401757940700,0.072940673828125,0.29763612151145935,0.071890689432621,-0.04851102828979492
1772792401767984600,0.082984619140625,0.29576897621154785,0.08318541944026947,-0.04764470085501671
1772792401778028800,0.09302880859375,0.2625284790992737,0.07808279991149902,-0.032047633081674576
1772792401788072700,0.10307275390625,0.21714290976524353,0.05788034200668335,-0.01209766510874033
1772792401798116600,0.11311669921875,0.17347905039787292,0.031030619516968727,0.023347144946455956
1772792401808160800,0.123160888671875,0.13140107691287994,0.009488076902925968,0.060626070946455
1772792401818204700,0.13320458984375,0.0888054221868515,-0.0013994574546813965,0.09512732923030853
1772792401828248800,0.143248779296875,0.04726816341280937,-0.011248748749494553,0.11362994462251663
1772792401838292500,0.15329248046875,0.003486860543489456,-0.00590937677770853,0.12860676646232605
1772792401848335600,0.163335693359375,-0.026798928156495094,0.03466646000742912,0.1479923278093338
1772792401858379500,0.173379638671875,-0.04511348903179169,0.080751933157444,0.14492569863796234
1772792401868423700,0.183423583984375,-0.047964103519916534,0.10330205410718918,0.1089761033654213
1772792401878467600,0.193467529296875,-0.036881621927022934,0.13857056200504303,0.07311876863241196
1772792401888511700,0.20351171875,-0.0008898240048438311,0.18884612619876862,0.0566059947013855
1772792401898555400,0.213555419921875,0.04027465730905533,0.21003423631191254,0.04016896337270737
1772792401908599600,0.223599609375,0.09003745019435883,0.20016597211360931,0.029234178364276886
1772792401918643700,0.233643798828125,0.13727714121341705,0.15557053685188293,0.0205868948251009
1772792401928687600,0.2436875,0.1731027364730835,0.09731002897024155,0.021155400201678276
1772792401938731800,0.253731689453125,0.19086895883083344,0.03935164958238602,0.028246067464351654
1772792401948775400,0.263775390625,0.1972898244857788,-0.018674209713935852,0.024185126647353172
1772792401958819600,0.273819580078125,0.19461627304553986,-0.05162496864795685,0.014173771254718304
1772792401968863700,0.28386376953125,0.19167377054691315,-0.05924388766288757,0.0028189662843942642
1772792401978907600,0.29390771484375,0.1934967041015625,-0.0656924620270729,-0.0011779058258980513
1772792401988951800,0.303951904296875,0.19942647218704224,-0.08136209845542908,0.011099684983491898
1772792401998995500,0.313995361328125,0.18915759027004242,-0.0995195209980011,0.036167751997709274
1772792402009038600,0.32403857421875,0.16861508786678314,-0.12193116545677185,0.06243637949228287
1772792402019082500,0.33408251953125,0.13726302981376648,-0.126908078789711,0.08553876727819443
1772792402029126700,0.344126708984375,0.10917862504720688,-0.09930592030286789,0.09105280786752701
1772792402039170800,0.3541708984375,0.08661206066608429,-0.04843528941273689,0.08256690949201584
1772792402049214700,0.364214599609375,0.07486646622419357,0.023987354710698128,0.0686536356806755
1772792402059258600,0.374258544921875,0.07137026637792587,0.09517178684473038,0.05123390257358551
1772792402069302500,0.384302490234375,0.06951935589313507,0.14711178839206696,0.03283165022730827
1772792402079346700,0.3943466796875,0.06515656411647797,0.19048988819122314,0.030006300657987595
1772792402089390600,0.404390625,0.05786878243088722,0.23702950775623322,0.04440038278698921
1772792402099434500,0.4144345703125,0.031652357429265976,0.26870858669281006,0.0648670494556427
1772792402109478700,0.424478759765625,0.00811857171356678,0.30175718665122986,0.09857961535453796
1772792402119522600,0.4345224609375,0.009119121357798576,0.3584287166595459,0.12152301520109177
1772792402129566700,0.444566650390625,0.04006905108690262,0.4251764118671417,0.116007499396801
1772792402139610600,0.454610595703125,0.08728423714637756,0.49052610993385315,0.09445027261972427
1772792402149653800,0.46465380859375,0.13291484117507935,0.5365368723869324,0.08999841660261154
1772792402159697400,0.474697509765625,0.16575081646442413,0.5606288909912109,0.15235501527786255
1772792402169741600,0.484741455078125,0.18337348103523254,0.5273521542549133,0.34053662419319153
1772792402179785700,0.49478564453125,0.19285593926906586,0.43794745206832886,0.6219648718833923
1772792402189829600,0.50482958984375,0.19154328107833862,0.3252730071544647,0.9205686450004578
1772792402199873800,0.514873779296875,0.19102023541927338,0.24613289535045624,1.142104983329773
1772792402209917400,0.52491748046875,0.20716489851474762,0.23601894080638885,1.2386054992675781
1772792402219961600,0.534961669921875,0.21937867999076843,0.22521822154521942,1.206490159034729
1772792402230005800,0.545005859375,0.180902898311615,0.14087915420532227,1.0856436491012573
1772792402240049700,0.555049560546875,0.1411813199520111,0.08596636354923248,0.931003987789154
1772792402250093800,0.56509375,0.15150107443332672,0.1857127696275711,0.8141486644744873
1772792402260137500,0.575137451171875,0.2312379777431488,0.4158916473388672,0.7239202260971069
1772792402270181600,0.585181640625,0.36115628480911255,0.6744184494018555,0.6277946829795837
1772792402280225500,0.5952255859375,0.4293600916862488,0.7676436901092529,0.4819258451461792
1772792402290269700,0.605269775390625,0.424106240272522,0.7583631873130798,0.3405371904373169
1772792402300313600,0.615313720703125,0.37902185320854187,0.7474753856658936,0.27713319659233093
1772792402310356700,0.625356689453125,0.3362887501716614,0.7596614360809326,0.26290619373321533
1772792402320400600,0.635400634765625,0.30426156520843506,0.7878685593605042,0.2570732831954956
1772792402330444500,0.645444580078125,0.30476221442222595,0.8296879529953003,0.23219642043113708
1772792402340488700,0.65548876953125,0.31592726707458496,0.8769409656524658,0.19269827008247375
1772792402350532600,0.66553271484375,0.34642210602760315,0.9338098168373108,0.16764052212238312
1772792402360576500,0.675576416015625,0.370901882648468,0.9592629671096802,0.16258157789707184
1772792402370620700,0.68562060546875,0.3578433096408844,0.9669502973556519,0.18196611106395721
1772792402380664600,0.69566455078125,0.32910647988319397,0.9879788756370544,0.2530818283557892
1772792402390708700,0.705708740234375,0.24975652992725372,0.9930049180984497,0.35879117250442505
1772792402400752600,0.715752685546875,0.13276971876621246,0.9352169632911682,0.48189523816108704
1772792402410796500,0.725796630859375,0.008865638636052608,0.8318675756454468,0.582557201385498
1772792402420840700,0.7358408203125,-0.11555484682321548,0.36731991171836853,0.4933308959007263
1772792402430884600,0.745884521484375,-0.15635371208190918,-0.2004557102918625,0.3106978237628937
1772792402440928800,0.7559287109375,-0.07963230460882187,-0.38874760270118713,0.22346490621566772
1772792402450972700,0.76597265625,0.01713421568274498,-0.5581771731376648,0.2175271213054657
1772792402461016600,0.7760166015625,0.10841991752386093,-0.7453310489654541,0.3071475625038147
1772792402471059500,0.7860595703125,0.15955151617527008,-0.8771311640739441,0.4672906994819641
1772792402481103600,0.796103515625,0.134791299700737,-0.9630095958709717,0.6303267478942871
1772792402491147500,0.8061474609375,0.05743582174181938,-0.9879850149154663,0.7123414278030396
1772792402501191700,0.816191650390625,-0.01659233309328556,-0.9577925205230713,0.6527242064476013
1772792402511235800,0.82623583984375,-0.04610951617360115,-0.8789087533950806,0.46987447142601013
1772792402521279500,0.836279541015625,-0.05026378110051155,-0.8142983317375183,0.18642383813858032
1772792402531323600,0.84632373046875,-0.03462272882461548,-0.7548763155937195,-0.13009239733219147
1772792402541367600,0.856367431640625,0.01095274556428194,-0.6362487077713013,-0.4025343060493469
1772792402551411700,0.86641162109375,0.04240652546286583,-0.5472190976142883,-0.5993686318397522
1772792402561455600,0.87645556640625,0.026553792878985405,-0.5097007751464844,-0.7018502354621887
1772792402571499500,0.88649951171875,-0.02602868340909481,-0.46564623713493347,-0.6935868263244629
1772792402581543700,0.896543701171875,-0.10420790314674377,-0.3962932527065277,-0.6096413135528564
1772792402591587600,0.906587646484375,-0.1880929172039032,-0.34261757135391235,-0.5073993802070618
1772792402601631700,0.9166318359375,-0.26314854621887207,-0.3108566999435425,-0.4104251265525818
1772792402611675600,0.926675537109375,-0.3071756660938263,-0.27083632349967957,-0.31542637944221497
1772792402621719600,0.936719482421875,-0.31876495480537415,-0.20066949725151062,-0.23822906613349915
1772792402631762700,0.9467626953125,-0.2992660701274872,-0.13953080773353577,-0.19484136998653412
1772792402641806600,0.956806640625,-0.2559060752391815,-0.10906717926263809,-0.1948522925376892
1772792402651850800,0.966850830078125,-0.18002304434776306,-0.10529124736785889,-0.22410108149051666
1772792402661894700,0.976894775390625,-0.0978165864944458,-0.12247876077890396,-0.27342864871025085
1772792402671938600,0.9869384765625,-0.022025153040885925,-0.16057847440242767,-0.32540905475616455
1772792402681982500,0.996982421875,0.0269213505089283,-0.20143429934978485,-0.3578186333179474
1772792402692026600,1.007026611328125,0.04448407143354416,-0.22289682924747467,-0.3606235980987549
1772792402702070800,1.01707080078125,0.049462053924798965,-0.2254185825586319,-0.34019529819488525
1772792402712114700,1.02711474609375,0.044541340321302414,-0.22750228643417358,-0.3051712214946747
1772792402722158600,1.03715869140625,0.03619632497429848,-0.20963406562805176,-0.25510141253471375
1772792402732202500,1.047202392578125,0.02868618257343769,-0.16151709854602814,-0.18500381708145142
1772792402742246700,1.05724658203125,0.017279064282774925,-0.07041275501251221,-0.09577380120754242
1772792402752290800,1.067290771484375,0.0054578823037445545,0.06432074308395386,-0.003493939060717821
1772792402762334500,1.07733447265625,-0.008417452685534954,0.1952819526195526,0.06556103378534317
1772792402772378600,1.087378662109375,0.0014218826545402408,0.3030017912387848,0.10378427803516388
1772792402782422500,1.097422607421875,0.033304713666439056,0.3683381676673889,0.13007579743862152
1772792402792465700,1.107465576171875,0.07623772323131561,0.40310245752334595,0.14070813357830048
1772792402802509600,1.117509521484375,0.11331026256084442,0.44217342138290405,0.16629604995250702
1772792402812553700,1.1275537109375,0.15461349487304688,0.5171416997909546,0.22079551219940186
1772792402822597600,1.13759765625,0.17749696969985962,0.605878472328186,0.28776681423187256
1772792402832642000,1.14764208984375,0.1838121861219406,0.6395019888877869,0.33750492334365845
1772792402842686000,1.15768603515625,0.16798235476016998,0.6031261682510376,0.355730801820755
1772792402852730000,1.167730224609375,0.1386891007423401,0.5479522347450256,0.35872387886047363
1772792402862774000,1.17777392578125,0.11313687264919281,0.5249609351158142,0.35884371399879456
1772792402872818000,1.18781787109375,0.07281452417373657,0.44831839203834534,0.3491012454032898
1772792402882861800,1.19786181640625,0.03465062379837036,-0.03507062792778015,0.22176271677017212
1772792402892906000,1.207906005859375,0.06633395701646805,-0.30832821130752563,0.11585946381092072
1772792402902950100,1.2179501953125,0.10668137669563293,-0.3073159456253052,0.07834724336862564
1772792402912993800,1.227993896484375,0.08620015531778336,-0.40762707591056824,0.062366265803575516
1772792402923038000,1.238037841796875,0.016269804909825325,-0.5067083835601807,0.09310952574014664
1772792402933081900,1.248081787109375,-0.08762335777282715,-0.5177703499794006,0.10929892212152481
1772792402943125000,1.258125,-0.17971119284629822,-0.5124195218086243,0.045530591160058975
1772792402953169000,1.2681689453125,-0.19505742192268372,-0.4361790418624878,-0.1143307089805603
1772792402963213000,1.278213134765625,-0.1357797235250473,-0.2956565320491791,-0.33751532435417175
1772792402973257000,1.288257080078125,-0.04233125224709511,-0.16427144408226013,-0.580077052116394
1772792402983300900,1.29830078125,0.04507182911038399,-0.08739263564348221,-0.7721365094184875
1772792402993345000,1.308344970703125,0.08837033808231354,-0.07127463072538376,-0.8645277619361877
1772792403003389000,1.318388916015625,0.06851673871278763,-0.08957667648792267,-0.8324481248855591
1772792403013433000,1.32843310546875,0.016825802624225616,-0.11859285086393356,-0.7201803922653198
1772792403023477000,1.33847705078125,-0.04130354896187782,-0.15197211503982544,-0.5604950785636902
1772792403033521000,1.34852099609375,-0.08414419740438461,-0.1806933879852295,-0.3957345485687256
1772792403043565000,1.35856494140625,-0.11704275757074356,-0.17296303808689117,-0.2431444674730301
1772792403053609000,1.36860888671875,-0.14076970517635345,-0.12493161112070084,-0.12281584739685059
1772792403063653000,1.378653076171875,-0.15380001068115234,-0.07436484098434448,-0.054326534271240234
1772792403073696800,1.38869677734375,-0.151059091091156,-0.022769026458263397,-0.028578029945492744
1772792403083741000,1.398740966796875,-0.13237062096595764,0.030398588627576828,-0.028460318222641945
1772792403093785000,1.40878515625,-0.12023057043552399,0.057127319276332855,-0.06417353451251984
1772792403103828000,1.418827880859375,-0.11170072853565216,0.04649198800325394,-0.10794711112976074
1772792403113872100,1.4288720703125,-0.1136469915509224,0.029582390561699867,-0.13969476521015167
1772792403123916000,1.438916015625,-0.11244004219770432,0.035655196756124496,-0.14356248080730438
1772792403133960000,1.4489599609375,-0.10794754326343536,0.04667472466826439,-0.13722115755081177
1772792403144003800,1.45900390625,-0.10236262530088425,0.035875607281923294,-0.13802649080753326
1772792403154048000,1.469048095703125,-0.09093044698238373,0.007789608556777239,-0.14117221534252167
1772792403164092200,1.479092041015625,-0.085548996925354,-0.03512696549296379,-0.1363404393196106
1772792403174135800,1.4891357421875,-0.08131854981184006,-0.07063457369804382,-0.09079247713088989
1772792403184180000,1.499179931640625,-0.09314192086458206,-0.11018490791320801,-0.031174415722489357
1772792403194223900,1.509223876953125,-0.11423660814762115,-0.15533410012722015,0.024037854745984077
1772792403204268000,1.51926806640625,-0.12839503586292267,-0.16871781647205353,0.060309574007987976
1772792403214312200,1.529312255859375,-0.14223627746105194,-0.15578106045722961,0.0788005143404007
1772792403224355800,1.53935595703125,-0.15156692266464233,-0.14648395776748657,0.07107894122600555
1772792403234400000,1.54939990234375,-0.16297826170921326,-0.1574828028678894,0.045877110213041306
1772792403244444000,1.55944384765625,-0.18141159415245056,-0.177984356880188,0.01076572947204113
1772792403254488000,1.569488037109375,-0.2032753974199295,-0.21121621131896973,-0.04147598519921303
1772792403264531000,1.579531005859375,-0.22847048938274384,-0.2675047516822815,-0.1071801632642746
1772792403274575000,1.5895751953125,-0.2478487193584442,-0.3387164771556854,-0.19968122243881226
1772792403284618800,1.59961865234375,-0.25255507230758667,-0.39262765645980835,-0.30037614703178406
1772792403294663000,1.609662841796875,-0.24015271663665771,-0.4157344400882721,-0.3792657256126404
1772792403304707000,1.61970703125,-0.2181084007024765,-0.42583635449409485,-0.4409991204738617
1772792403314751000,1.6297509765625,-0.18591982126235962,-0.42009437084198,-0.4755304455757141
1772792403324795000,1.639794921875,-0.15941524505615234,-0.40629199147224426,-0.4772215485572815
1772792403334838800,1.6498388671875,-0.14572548866271973,-0.3751680552959442,-0.4541339874267578
1772792403344883000,1.659883056640625,-0.1442415714263916,-0.33326879143714905,-0.40075600147247314
1772792403354927000,1.669927001953125,-0.14451828598976135,-0.2786785960197449,-0.3111054003238678
1772792403364971000,1.679970947265625,-0.13990969955921173,-0.1912773698568344,-0.19114677608013153
1772792403375015000,1.690014892578125,-0.1247299537062645,-0.1362406462430954,-0.07403434067964554
1772792403385058800,1.700058837890625,-0.10874086618423462,-0.1016182154417038,0.027957001700997353
1772792403395103000,1.71010302734375,-0.09846857935190201,-0.05961443856358528,0.10084924101829529
1772792403405147100,1.720147216796875,-0.08321025967597961,-0.017715193331241608,0.14103154838085175
1772792403415191000,1.73019091796875,-0.057466231286525726,0.0344366654753685,0.14639592170715332
1772792403425234200,1.740234130859375,-0.020403550937771797,0.06885243207216263,0.13589107990264893
1772792403435277800,1.75027783203125,0.017738226801156998,0.09794409573078156,0.11970217525959015
1772792403445322000,1.760322021484375,0.057195354253053665,0.12165634334087372,0.09341597557067871
1772792403455366000,1.770365966796875,0.09074056893587112,0.12040059268474579,0.06615590304136276
1772792403465410000,1.78041015625,0.11057738959789276,0.11369740962982178,0.04952339828014374
1772792403475454000,1.790453857421875,0.12349877506494522,0.12334273010492325,0.046406012028455734
1772792403485497900,1.800497802734375,0.12705063819885254,0.13687771558761597,0.066667340695858
1772792403495542000,1.8105419921875,0.12592270970344543,0.14673052728176117,0.0942714586853981
1772792403505586000,1.8205859375,0.11565196514129639,0.13172733783721924,0.12200455367565155
1772792403515630000,1.830630126953125,0.1008610650897026,0.11307772248983383,0.16431446373462677
1772792403525674000,1.840674072265625,0.08548929542303085,0.08771111071109772,0.20827099680900574
1772792403535718000,1.8507177734375,0.06243353709578514,0.05843883007764816,0.23869293928146362
1772792403545762000,1.860761962890625,0.05117981880903244,0.038888294249773026,0.2547092139720917
1772792403555806000,1.870805908203125,0.04356531426310539,0.041751679033041,0.24971100687980652
1772792403565850000,1.88085009765625,0.0434822253882885,0.05119311809539795,0.22180640697479248
1772792403575893000,1.89089306640625,0.04655922204256058,0.0669931024312973,0.19028925895690918
1772792403585937000,1.90093701171875,0.04220042750239372,0.06560239940881729,0.14774152636528015
1772792403595980800,1.910980712890625,0.03724883496761322,0.041382141411304474,0.09951260685920715
1772792403606025000,1.92102490234375,0.02774827554821968,0.02420368604362011,0.06722763925790787
1772792403616069000,1.931069091796875,0.03138373792171478,0.02306874468922615,0.05284249410033226
1772792403626113000,1.941113037109375,0.044045738875865936,0.020133409649133682,0.041266798973083496
1772792403636157000,1.951156982421875,0.044933900237083435,-0.0012417635880410671,0.040516696870326996
1772792403646200800,1.961200927734375,0.037829119712114334,-0.011441670358181,0.04901404678821564
1772792403656245000,1.971244873046875,0.01486256904900074,-0.04377589747309685,0.058367833495140076
1772792403666289000,1.981288818359375,-0.01858540065586567,-0.07192151248455048,0.08061747997999191
1772792403676333000,1.9913330078125,-0.043413035571575165,-0.07249193638563156,0.10103703290224075
1772792403686377000,2.001376953125,-0.061704158782958984,-0.0842260867357254,0.10384799540042877
1772792403696420900,2.0114208984375,-0.06290656328201294,-0.08872490376234055,0.09564724564552307
1772792403706465000,2.021465087890625,-0.05592908337712288,-0.08154529333114624,0.0797942504286766
1772792403716509000,2.031509033203125,-0.04899097979068756,-0.07619375735521317,0.05706421285867691
1772792403726553000,2.041552978515625,-0.03038240596652031,-0.09347368031740189,0.02860673889517784
1772792403736597000,2.051596923828125,-0.016814133152365685,-0.13129137456417084,0.002394309965893626
1772792403746640000,2.061639892578125,-0.009685116820037365,-0.17568252980709076,-0.004920328035950661
1772792403756684000,2.07168408203125,-0.005564920138567686,-0.21617989242076874,0.0042417095974087715
1772792403766728000,2.08172802734375,-0.007474140264093876,-0.25480157136917114,0.022513924166560173
1772792403776772000,2.091772216796875,-0.008378845639526844,-0.27127400040626526,0.057842619717121124
1772792403786816000,2.10181591796875,-0.012454813346266747,-0.2675152122974396,0.0913771390914917
1772792403796860000,2.11185986328125,-0.01952551119029522,-0.24567286670207977,0.12050425261259079
1772792403806904000,2.121904052734375,-0.024086173623800278,-0.21091727912425995,0.1392315924167633
1772792403816948000,2.131947998046875,-0.025056658312678337,-0.16549569368362427,0.14228518307209015
1772792403826992000,2.1419921875,-0.02436104044318199,-0.11349907517433167,0.13759268820285797
1772792403837036000,2.1520361328125,-0.017308158800005913,-0.05509321391582489,0.12800759077072144
1772792403847080200,2.162080078125,-0.005992120131850243,0.004230826627463102,0.12078296393156052
1772792403857124000,2.1721240234375,0.008894692175090313,0.040910761803388596,0.09929875284433365
1772792403867168300,2.182168212890625,0.011917113326489925,0.04985285550355911,0.07517557591199875
1772792403877212200,2.192212158203125,0.012921134009957314,0.052220623940229416,0.05314141511917114
1772792403887256000,2.202256103515625,0.015919586643576622,0.06723392754793167,0.0419449508190155
1772792403897300200,2.21230029296875,0.01902402564883232,0.07035946100950241,0.026779809966683388
1772792403907343000,2.222343017578125,0.024225445464253426,0.061967045068740845,0.012703406624495983
1772792403917387300,2.23238720703125,0.028455592691898346,0.06491313129663467,0.018397966399788857
1772792403927431200,2.24243115234375,0.03179280087351799,0.09076789766550064,0.030647439882159233
1772792403937475300,2.252475341796875,0.035313528031110764,0.10563229769468307,0.04983951523900032
1772792403947519000,2.26251904296875,0.03883129730820656,0.0958891212940216,0.06864143162965775
1772792403957563100,2.272563232421875,0.0382501594722271,0.07756265997886658,0.07984823733568192
1772792403967607000,2.28260693359375,0.03827918693423271,0.053973980247974396,0.08231565356254578
1772792403977651200,2.292651123046875,0.03874261677265167,0.04113772138953209,0.08301904052495956
1772792403987695000,2.302695068359375,0.04010961577296257,0.03519860655069351,0.07347746938467026
1772792403997739000,2.312739013671875,0.03616493567824364,0.024497540667653084,0.07051891833543777
1772792404007783200,2.322783203125,0.037173740565776825,0.026266146451234818,0.059391703456640244
1772792404017827000,2.3328271484375,0.03881852328777313,0.020157288759946823,0.05268567427992821
1772792404027871200,2.342871337890625,0.039127182215452194,0.013128407299518585,0.042441293597221375
1772792404037915100,2.3529150390625,0.032080452889204025,0.015187080018222332,0.03670773282647133
1772792404047959000,2.362958984375,0.02433464676141739,0.027768120169639587,0.03396787494421005
1772792404058003200,2.373003173828125,0.01906610280275345,0.03288106247782707,0.02612840197980404
1772792404068046000,2.383046142578125,0.013853764161467552,0.0446048304438591,0.02607620321214199
1772792404078090200,2.39309033203125,0.008572212420403957,0.05786041170358658,0.028984911739826202
1772792404088134100,2.403134033203125,0.0008357294136658311,0.057190895080566406,0.030267756432294846
1772792404098178000,2.413177978515625,-0.004085035063326359,0.060190387070178986,0.03434086591005325
1772792404108222200,2.42322216796875,-0.003946284297853708,0.060780011117458344,0.036089763045310974
1772792404118266000,2.43326611328125,-0.0032759830355644226,0.0548577755689621,0.03377380222082138
1772792404128310300,2.443310302734375,-0.0006354589131660759,0.045824065804481506,0.030136456713080406
1772792404138354200,2.453354248046875,-0.0010572621831670403,0.030756451189517975,0.02257007732987404
1772792404148398000,2.463398193359375,0.0004807133227586746,0.027824576944112778,0.017478113994002342
1772792404158442000,2.47344189453125,-0.003399499924853444,0.028098678216338158,0.015196243301033974
1772792404168486100,2.483486083984375,-0.004910311195999384,0.020792827010154724,0.012802593410015106
1772792404178530300,2.4935302734375,-0.0078941835090518,0.018000362440943718,0.013461414724588394
1772792404188574000,2.503573974609375,-0.0013350837398320436,0.013510540127754211,0.011587082408368587
1772792404198618000,2.5136181640625,0.0017268022056668997,0.01529349759221077,0.009237075224518776
1772792404208662000,2.523662109375,0.0019198814406991005,0.008793254382908344,-0.004058224149048328
1772792404218706200,2.5337060546875,0.004369756206870079,0.004180462099611759,-0.016211137175559998
1772792404228749000,2.5437490234375,0.0010914051672443748,-0.000024402514100074768,-0.019874315708875656
1772792404238793200,2.553793212890625,-0.00271507166326046,0.00038864417001605034,-0.023163549602031708
1772792404248837000,2.563837158203125,-0.010240632109344006,0.004637185484170914,-0.021577904000878334
1772792404258881000,2.573881103515625,-0.013353068381547928,0.013084998354315758,-0.017199134454131126
1772792404268925200,2.58392529296875,-0.01535256952047348,0.02501542679965496,-0.014284037984907627
1772792404278969000,2.593968994140625,-0.010884055867791176,0.03113126941025257,-0.012656200677156448
1772792404289013200,2.60401318359375,-0.007608101703226566,0.025698421522974968,-0.020655004307627678
1772792404299057200,2.61405712890625,-0.005942827090620995,0.013398610055446625,-0.022194044664502144
1772792404309101000,2.62410107421875,-0.001183758140541613,0.018650364130735397,-0.015466634184122086
1772792404319145200,2.634145263671875,0.006164198275655508,0.02445921115577221,-0.009931250475347042
1772792404329189000,2.644189208984375,0.012012766674160957,0.017928607761859894,-0.012432757765054703
1772792404339233300,2.6542333984375,0.014113680459558964,0.01386081613600254,-0.01458364725112915
1772792404349277000,2.66427685546875,0.021060269325971603,0.018293114379048347,-0.011201965622603893
1772792404359321000,2.674321044921875,0.023154858499765396,0.01838798262178898,-0.003601644653826952
1772792404369365200,2.684365234375,0.029000230133533478,0.019387466832995415,0.0008016260107979178
1772792404379409200,2.6944091796875,0.028255103155970573,0.014718531630933285,0.0029045753180980682
1772792404389453000,2.704453125,0.027190903201699257,0.012974160723388195,0.005582916550338268
1772792404399496200,2.71449609375,0.026979170739650726,0.007913297042250633,0.007063974626362324
1772792404409540000,2.7245400390625,0.02923034131526947,0.0036035035736858845,0.00576222175732255
1772792404419584000,2.734583984375,0.02794940024614334,-0.0007693879306316376,0.00632754061371088
1772792404429628200,2.744628173828125,0.025762412697076797,-0.009941314347088337,0.0038963411934673786
1772792404439672300,2.75467236328125,0.028783774003386497,-0.0067113242112100124,0.004082115832716227
1772792404449716000,2.764716064453125,0.028295615687966347,-0.0031088662799447775,-0.00232118833810091
1772792404459760000,2.774760009765625,0.030202940106391907,-0.007295690011233091,-0.004053199198096991
1772792404469804000,2.784803955078125,0.03291963040828705,-0.0009485781192779541,0.0014843113021925092
1772792404479848200,2.79484814453125,0.02999519184231758,0.00852294359356165,0.011902100406587124
1772792404489892400,2.804892333984375,0.026173820719122887,0.005063497461378574,0.02038799598813057
1772792404499936000,2.81493603515625,0.021839790046215057,-0.0017718803137540817,0.025401245802640915
1772792404509980200,2.824980224609375,0.02107865735888481,-0.004950895439833403,0.028391974046826363
1772792404520024000,2.835024169921875,0.016096729785203934,0.00276867114007473,0.0316120870411396
1772792404530068200,2.845068115234375,0.013900685124099255,0.009440955705940723,0.029254121705889702
1772792404540112100,2.855112060546875,0.008318371139466763,0.015716930851340294,0.020411469042301178
1772792404550156000,2.865156005859375,0.009838503785431385,0.027999164536595345,0.010907445102930069
1772792404560199000,2.875198974609375,0.009888624772429466,0.03389335051178932,-0.000156003690790385
1772792404570243000,2.8852431640625,0.002843232359737158,0.03166641667485237,-0.0012849177001044154
1772792404580287200,2.895287353515625,-0.0033433239441365004,0.025483816862106323,-0.0004906533868052065
1772792404590331100,2.9053310546875,-0.006146833300590515,0.01873163878917694,0.011780926957726479
1772792404600375300,2.915375244140625,-0.007553506642580032,0.014188237488269806,0.022384874522686005
1772792404610419000,2.9254189453125,-0.005085821729153395,0.012875033542513847,0.020442897453904152
1772792404620463000,2.935463134765625,0.002416839823126793,0.013707378879189491,0.018672313541173935
1772792404630507300,2.94550732421875,0.005257101263850927,0.019403081387281418,0.009403714910149574
1772792404640551200,2.95555126953125,0.0050390008836984634,0.01668645069003105,-0.0016801700694486499
1772792404650595000,2.965594970703125,0.0021753034088760614,0.021045513451099396,-0.005928444676101208
1772792404660639000,2.975638916015625,-0.0001064930111169815,0.02353902906179428,-0.006448826286941767
1772792404670683100,2.98568310546875,-0.0009094360284507275,0.02107720449566841,-0.0030738022178411484
1772792404680727300,2.995727294921875,-0.007745566312223673,0.018421733751893044,0.006061747204512358
1772792404690771200,3.005771240234375,-0.007940510287880898,0.010104149580001831,0.00810678768903017
1772792404700815000,3.015815185546875,-0.011118639260530472,0.0036261598579585552,0.005160010885447264
1772792404710859000,3.02585888671875,-0.007644811645150185,0.000029027927666902542,0.005326990969479084
1772792404720903200,3.035903076171875,-0.010115521028637886,0.000053429510444402695,0.0008728051325306296
1772792404730946000,3.045946044921875,-0.009956796653568745,-0.0006592324934899807,-0.0012270972365513444
1772792404740990200,3.055990234375,-0.006953750271350145,-0.0010838666930794716,-0.006945924833416939
1772792404751034000,3.0660341796875,-0.009779896587133408,-0.0007352591492235661,-0.008834105916321278
1772792404761078000,3.076078125,-0.005679473280906677,-0.0031671200413256884,-0.009871488437056541
1772792404771122200,3.0861220703125,-0.004217131994664669,-0.0004725335165858269,-0.005968892481178045
1772792404781166000,3.096166015625,-0.004229611251503229,0.0015218192711472511,-0.0075590237975120544
1772792404791210200,3.106210205078125,-0.003476469311863184,-0.0005013840273022652,-0.008609906770288944
1772792404801254100,3.116254150390625,-0.0013970484724268317,0.0014226012863218784,-0.010274264961481094
1772792404811298000,3.126298095703125,0.0010674407240003347,-0.003511437214910984,-0.016659725457429886
1772792404821342200,3.13634228515625,0.004382006824016571,-0.007933458313345909,-0.02580064721405506
1772792404831386000,3.14638623046875,0.009450535289943218,-0.0027733175083994865,-0.03169422224164009
1772792404841429500,3.156429443359375,0.01379041001200676,-0.001207171007990837,-0.039901211857795715
1772792404851473700,3.1664736328125,0.014554205350577831,0.005034745670855045,-0.04809495806694031
1772792404861517300,3.176517333984375,0.017744410783052444,0.01478362176567316,-0.04877284914255142
1772792404871561500,3.1865615234375,0.015888452529907227,0.015682704746723175,-0.04558025300502777
1772792404881605400,3.19660546875,0.014525708742439747,0.011446838267147541,-0.03516504541039467
1772792404891648500,3.2066484375,0.011520864441990852,0.013324900530278683,-0.027262382209300995
1772792404901692400,3.2166923828125,0.010619633831083775,0.015216375701129436,-0.01066936831921339
1772792404911736600,3.226736572265625,0.011851612478494644,0.017820149660110474,0.0006376142846420407
1772792404921780500,3.236780517578125,0.017032571136951447,0.022060826420783997,0.01378971803933382
1772792404931824400,3.246824462890625,0.02133357711136341,0.022294387221336365,0.021971482783555984
1772792404941868500,3.25686865234375,0.023166047409176826,0.0253586508333683,0.024467693641781807
1772792404951912400,3.266912353515625,0.022935152053833008,0.03354360908269882,0.0277313981205225
1772792404961956600,3.27695654296875,0.022640148177742958,0.045757751911878586,0.03488260507583618
1772792404972000500,3.28700048828125,0.017814233899116516,0.05305295065045357,0.03828292712569237
1772792404982044400,3.29704443359375,0.020021678879857063,0.05674172565340996,0.04132109135389328
1772792404992088600,3.307088623046875,0.01904642954468727,0.05387483164668083,0.03608877956867218
1772792405002132500,3.317132568359375,0.015742482617497444,0.04441239312291145,0.02855842188000679
1772792405012176600,3.3271767578125,0.017069535329937935,0.021565133705735207,0.01898595690727234
1772792405022220500,3.337220458984375,0.010759973898530006,0.007666362915188074,0.014146460220217705
1772792405032264400,3.347264404296875,0.010403377003967762,-0.007999948225915432,0.007459528744220734
1772792405042308600,3.35730859375,0.005164976231753826,-0.013501062989234924,0.0077629052102565765
1772792405052352500,3.3673525390625,0.00433060759678483,-0.009733755141496658,0.005985778756439686
1772792405062395600,3.377395751953125,0.006373264826834202,-0.0017210436053574085,0.0033808662556111813
1772792405072439600,3.387439453125,0.010789051651954651,0.003880648873746395,0.011820690706372261
1772792405082483500,3.3974833984375,0.013076448813080788,0.0005503171123564243,0.019869601354002953
1772792405092527400,3.40752734375,0.01454065553843975,-0.008779801428318024,0.03159842640161514
1772792405102571500,3.417571533203125,0.010737340897321701,-0.006331369746476412,0.045455265790224075
1772792405112615700,3.42761572265625,0.004462933633476496,-0.007563081569969654,0.048401519656181335
1772792405122659300,3.437659423828125,0.0011739342007786036,-0.009187500923871994,0.04979104548692703
1772792405132703500,3.447703369140625,-0.0033835333306342363,-0.0008858954533934593,0.04218186065554619
1772792405142747400,3.457747314453125,-0.005060238763689995,-0.0008786953985691071,0.029634876176714897
1772792405152791600,3.46779150390625,-0.008135923184454441,0.0005562156438827515,0.018173163756728172
1772792405162835700,3.477835693359375,-0.008042787201702595,0.004119168035686016,0.010897323489189148
1772792405172879400,3.48787939453125,-0.009501134976744652,0.008069967851042747,0.004416521172970533
1772792405182923500,3.497923583984375,-0.00967040378600359,0.002453520428389311,0.001665184274315834
1772792405192967400,3.507967529296875,-0.006742258556187153,0.0025374102406203747,0.0019996771588921547
1772792405203011600,3.518011474609375,-0.003948602359741926,0.000036967918276786804,0.004905186127871275
1772792405213055500,3.528055419921875,-0.0007802397012710571,-0.005430235527455807,0.0068274554796516895
1772792405223099400,3.538099365234375,0.002065323293209076,-0.009591275826096535,0.01212223432958126
1772792405233142500,3.548142578125,0.007842252030968666,-0.008667425252497196,0.012938759289681911
1772792405243186400,3.5581865234375,0.011060948483645916,-0.006195745896548033,0.01597103476524353
1772792405253230600,3.568230712890625,0.012308569625020027,-0.003078230656683445,0.01951683685183525
1772792405263274500,3.5782744140625,0.015301728621125221,0.00351928872987628,0.019145213067531586
1772792405273318700,3.588318603515625,0.01153069268912077,0.01568460837006569,0.019618190824985504
1772792405283362300,3.5983623046875,0.016156699508428574,0.02663402259349823,0.016632307320833206
1772792405293406500,3.608406494140625,0.015566542744636536,0.022865917533636093,0.014355572871863842
1772792405303450600,3.61845068359375,0.014891393482685089,0.016677621752023697,0.014937427826225758
1772792405313494500,3.62849462890625,0.01453373022377491,0.003832663409411907,0.017885280773043633
1772792405323538400,3.638538330078125,0.010933887213468552,-0.0042470707558095455,0.024881701916456223
1772792405333582300,3.648582275390625,0.009565021842718124,-0.010869020596146584,0.029178978875279427
1772792405343626500,3.65862646484375,0.00784915592521429,-0.006460473407059908,0.028779542073607445
1772792405353670700,3.668670654296875,0.007150342687964439,0.00808012019842863,0.027510013431310654
1772792405363714600,3.678714599609375,0.008443836122751236,0.014690244570374489,0.021373938769102097
1772792405373758500,3.688758544921875,0.008330384269356728,0.021640295162796974,0.019937695935368538
1772792405383802400,3.69880224609375,0.011528050526976585,0.023623235523700714,0.022849101573228836
1772792405393846500,3.708846435546875,0.013088395819067955,0.01463213749229908,0.024121027439832687
1772792405403889400,3.718889404296875,0.013956067152321339,0.006752967834472656,0.026208072900772095
1772792405413933600,3.72893359375,0.010251875966787338,0.0033260127529501915,0.030104011297225952
1772792405423977700,3.738977783203125,0.0087101636454463,0.0020552007481455803,0.029350031167268753
1772792405434021400,3.749021484375,0.007232376374304295,0.0023894282057881355,0.025745442137122154
1772792405444065500,3.7590654296875,0.005934904329478741,0.0035058343783020973,0.027151290327310562
1772792405454109400,3.769109375,0.0016083329683169723,0.008748533204197884,0.02280554361641407
1772792405464153600,3.779153564453125,-0.001002846984192729,0.0067322212271392345,0.025114210322499275
1772792405474197500,3.789197509765625,-0.004064150620251894,-0.0010631177574396133,0.018425147980451584
1772792405484241400,3.799241455078125,-0.0028162593953311443,0.00008243927732110023,0.01084387768059969
1772792405494285600,3.80928564453125,0.0005422530230134726,-0.0010552629828453064,0.004359879065304995
1772792405504329500,3.81932958984375,0.0028549255803227425,-0.0019358713179826736,-0.008339748717844486
1772792405514373600,3.82937353515625,0.005479204468429089,-0.0017358679324388504,-0.015383277088403702
1772792405524417300,3.839417236328125,0.0013143487740308046,0.0012077512219548225,-0.01518018264323473
1772792405534461400,3.84946142578125,-0.0013008753303438425,0.0052485656924545765,-0.011415804736316204
1772792405544505600,3.859505615234375,-0.007939644157886505,0.008002256974577904,-0.005784214939922094
1772792405554549500,3.869549560546875,-0.01169496774673462,0.004375563934445381,-0.0027988110668957233
1772792405564593700,3.87959375,-0.00883496180176735,-0.009139535948634148,-0.0002048478345386684
1772792405574636500,3.889636474609375,-0.005269255954772234,-0.012751581147313118,0.005164617206901312
1772792405584680400,3.899680419921875,-0.000593052536714822,-0.009990435093641281,0.0014024388510733843
1772792405594724400,3.909724365234375,-0.0003879891010001302,-0.012680226936936378,0.0014013736508786678
1772792405604768500,3.9197685546875,0.0003973357379436493,-0.0070543186739087105,-0.005809064023196697
1772792405614812700,3.929812744140625,0.0010937523329630494,-0.003759189508855343,-0.010784115642309189
1772792405624856600,3.939856689453125,0.002231733640655875,0.0004084496758878231,-0.015368555672466755
1772792405634900500,3.949900390625,0.0020801997743546963,0.006394170690327883,-0.01783091388642788
1772792405644944400,3.9599443359375,-0.006462085526436567,0.012866164557635784,-0.01991809904575348
1772792405654988500,3.969988525390625,-0.005628250073641539,0.01876533031463623,-0.017891965806484222
1772792405665032400,3.980032470703125,-0.008666704408824444,0.021016957238316536,-0.01721724309027195
1772792405675076600,3.99007666015625,-0.011777276173233986,0.01881052926182747,-0.008501516655087471
1772792405685120500,4.00012060546875,-0.012835346162319183,0.013514939695596695,-0.007772989105433226
1772792405695164400,4.010164306640625,-0.007956967689096928,0.004980574827641249,-0.00814077164977789
1772792405705208600,4.02020849609375,-0.005357390269637108,-0.003546731313690543,-0.010146081447601318
1772792405715252500,4.03025244140625,-0.0033083537127822638,-0.008128433488309383,-0.014682510867714882
1772792405725296400,4.04029638671875,-0.000643656647298485,-0.012485658749938011,-0.016076838597655296
1772792405735340500,4.050340576171875,0.004084785934537649,-0.01545321848243475,-0.022328343242406845
1772792405745383400,4.060383544921875,0.004437367431819439,-0.01563352532684803,-0.02546098455786705
1772792405755427600,4.070427490234375,0.002342524938285351,-0.011922676116228104,-0.022918997332453728
1772792405765471500,4.080471435546875,-0.00009983510244637728,-0.004844142124056816,-0.02023494616150856
1772792405775515600,4.090515625,0.0022762371227145195,0.00268461462110281,-0.012191134504973888
1772792405785559300,4.100559326171875,0.0024046096950769424,0.007638843730092049,-0.005157154053449631
1772792405795603500,4.110603515625,-0.0008598929853178561,0.0037492970004677773,-0.0025906655937433243
1772792405805647600,4.120647705078125,-0.0022810138761997223,0.002811943180859089,-0.000508346885908395
1772792405815691500,4.13069140625,-0.001431731623597443,0.004165894351899624,0.004909321665763855
1772792405825735700,4.140735595703125,-0.00664559006690979,0.0015828246250748634,0.001940135727636516
1772792405835780000,4.150780029296875,-0.009487449191510677,0.006424717605113983,0.0030906209722161293
1772792405845824300,4.16082421875,-0.013343214988708496,0.004173528403043747,0.0013156940694898367
1772792405855868200,4.1708681640625,-0.01411526557058096,-0.0005461252294480801,-0.002818597014993429
1772792405865912300,4.180912353515625,-0.009995072148740292,0.002854366786777973,0.0009053795365616679
1772792405875956200,4.190956298828125,-0.008295176550745964,0.004356122575700283,0.0033879783004522324
1772792405886000000,4.201000244140625,-0.008756165392696857,0.008436460047960281,0.005790302529931068
1772792405896044300,4.211044189453125,-0.007318058516830206,0.019174059852957726,0.012115043587982655
1772792405906088200,4.221088134765625,-0.002363771665841341,0.02099427953362465,0.012707635760307312
1772792405916132000,4.231132080078125,-0.0004106093547306955,0.019405171275138855,0.010526241734623909
1772792405926175200,4.24117529296875,0.0004447855753824115,0.018970752134919167,0.009433886036276817
1772792405936219100,4.25121923828125,0.0035921090748161077,0.016915591433644295,0.0036026290617883205
1772792405946263300,4.26126318359375,0.007164502516388893,0.012198291718959808,-0.0003660087240859866
1772792405956307200,4.27130712890625,0.007940813899040222,0.005186190363019705,-0.005247583147138357
1772792405966351400,4.281351318359375,0.008115480653941631,-0.0012415261007845402,-0.003731756005436182
1772792405976395000,4.29139501953125,0.006325303576886654,0.006288828328251839,-0.000842492445372045
1772792405986439200,4.301439208984375,0.0024952194653451443,0.0068622916005551815,0.006176092196255922
1772792405996483300,4.3114833984375,0.0034020256716758013,0.00411390932276845,0.0040357098914682865
1772792406006527200,4.32152734375,0.007764541544020176,0.003763753455132246,0.0038971854373812675
1772792406016571400,4.3315712890625,0.005383941810578108,0.0066373045556247234,-0.002316235564649105
1772792406026615000,4.341614990234375,0.01060798205435276,0.004235765431076288,-0.008179264143109322
1772792406036659200,4.3516591796875,0.010805321857333183,-0.0020285220816731453,-0.017836952582001686
1772792406046703000,4.361703125,0.01384051889181137,-0.007067971397191286,-0.029113879427313805
1772792406056747300,4.371747314453125,0.008827384561300278,-0.012313066981732845,-0.03230221942067146
1772792406066791400,4.38179150390625,0.006799624301493168,-0.017758125439286232,-0.03796010464429855
1772792406076835000,4.3918349609375,0.00726567767560482,-0.01973898522555828,-0.03233524411916733
1772792406086879200,4.401879150390625,0.008736025542020798,-0.011071559973061085,-0.02006305381655693
1772792406096922000,4.411922119140625,0.011712374165654182,0.00223945127800107,-0.005547494627535343
1772792406106966300,4.42196630859375,0.012935563921928406,0.011658519506454468,0.012413929216563702
1772792406117010200,4.43201025390625,0.009189828298985958,0.013045493513345718,0.02482346072793007
1772792406127054300,4.442054443359375,0.00946540292352438,0.012597520835697651,0.027340253815054893
1772792406137098200,4.45209814453125,0.009473659098148346,0.01690172404050827,0.024460576474666595
1772792406147142100,4.46214208984375,0.00677380058914423,0.01919771358370781,0.019625728949904442
1772792406157186300,4.472186279296875,0.004728758707642555,0.020370036363601685,0.01046845130622387
1772792406167230200,4.482230224609375,0.006605795584619045,0.023113109171390533,-0.0015254297759383917
1772792406177274000,4.492274169921875,0.0045394496992230415,0.026475615799427032,-0.006202206946909428
1772792406187318300,4.502318359375,0.0020296284928917885,0.027477581053972244,-0.00835298653692007
1772792406197362200,4.512362060546875,0.0032152680214494467,0.02763044461607933,-0.004554253537207842
1772792406207406300,4.52240625,0.002778542460873723,0.02263016067445278,0.003789055161178112
1772792406217450200,4.5324501953125,0.003934887237846851,0.011493353173136711,0.005212514661252499
1772792406227494100,4.542494140625,0.0060315728187561035,0.0031970650888979435,0.008501552976667881
1772792406237538000,4.5525380859375,0.011114215478301048,-0.009725657291710377,0.012882452458143234
1772792406247582200,4.562582275390625,0.017978502437472343,-0.01557614840567112,0.004569736309349537
1772792406257626400,4.57262646484375,0.017151057720184326,-0.015447251498699188,-0.005154530052095652
1772792406267670300,4.582670166015625,0.012402158230543137,-0.006424227729439735,-0.010912046767771244
1772792406277714200,4.592714111328125,0.009260959923267365,0.01087619923055172,-0.01229822263121605
1772792406287757000,4.602757080078125,-0.0035933740437030792,0.01882326230406761,-0.014875221066176891
1772792406297801200,4.61280126953125,-0.008193451911211014,0.012238063849508762,-0.012936705723404884
1772792406307845000,4.62284521484375,-0.007783317007124424,0.0038724932819604874,-0.016982007771730423
1772792406317889300,4.63288916015625,-0.007184105925261974,-0.005355626344680786,-0.012955308891832829
1772792406327933200,4.64293310546875,-0.008058113977313042,-0.0027398522943258286,-0.014235558919608593
1772792406337977000,4.65297705078125,-0.008295934647321701,0.0038815648294985294,-0.0160497035831213
1772792406348021200,4.663021240234375,-0.004194358363747597,0.016409356147050858,-0.018121710047125816
1772792406358065200,4.673065185546875,-0.0027237609028816223,0.018303129822015762,-0.015708886086940765
1772792406368109300,4.683109375,0.002584373112767935,0.00767905730754137,-0.0189864169806242
1772792406378153200,4.6931533203125,0.003065872471779585,-0.0032215274404734373,-0.0157389584928751
1772792406388197000,4.703197021484375,0.005372481886297464,-0.013055657036602497,-0.012750807218253613
1772792406398241300,4.7132412109375,0.004156482871621847,-0.014627188444137573,-0.006550435442477465
1772792406408285200,4.72328515625,0.006270712241530418,-0.0122088473290205,-0.005249072331935167
1772792406418329300,4.733329345703125,0.0023667847272008657,-0.009572584182024002,-0.008909054100513458
1772792406428373000,4.743373046875,0.004683227278292179,-0.004389422945678234,-0.014800647273659706
1772792406438417200,4.753417236328125,0.002826471347361803,0.008442752063274384,-0.017725598067045212
1772792406448461300,4.76346142578125,0.0021382938139140606,0.016274143010377884,-0.01375969685614109
1772792406458505200,4.773505126953125,0.0024493508972227573,0.01330205611884594,-0.011486688628792763
1772792406468548400,4.78354833984375,-0.0011783863883465528,0.007537919096648693,-0.010172720067203045
1772792406478592300,4.79359228515625,0.0018653403967618942,0.0010696332901716232,-0.010073916986584663
1772792406488636200,4.80363623046875,0.0035625402815639973,-0.00491269351914525,-0.006202104035764933
1772792406498680000,4.81368017578125,0.009681152179837227,-0.005558776203542948,-0.010001902468502522
1772792406508724200,4.82372412109375,0.013169086538255215,-0.0007565151900053024,-0.005408520810306072
1772792406518768400,4.833768310546875,0.013953120447695255,0.007085962221026421,0.0014738859608769417
1772792406528812300,4.843812255859375,0.014496206305921078,0.009628882631659508,0.016194293275475502
1772792406538856200,4.853856201171875,0.013558506965637207,0.013785278424620628,0.021924883127212524
1772792406548900000,4.863900146484375,0.014529507607221603,0.015974722802639008,0.030463969334959984
1772792406558944300,4.8739443359375,0.017289074137806892,0.01706981472671032,0.03406403213739395
1772792406568988400,4.883988525390625,0.015405649319291115,0.014629118144512177,0.0245482437312603
1772792406579032000,4.894031982421875,0.02000892348587513,0.01157527044415474,0.01709245704114437
1772792406589076200,4.904076171875,0.020874718204140663,0.017921583727002144,0.011139758862555027
1772792406599120100,4.9141201171875,0.020896822214126587,0.028200851753354073,0.008620142936706543
1772792406609164300,4.924164306640625,0.021287767216563225,0.03226222097873688,0.01241643913090229
1772792406619208200,4.934208251953125,0.014351296238601208,0.029007572680711746,0.009443553164601326
1772792406629252000,4.944252197265625,0.009051618166267872,0.02478013001382351,0.011466681957244873
1772792406639296300,4.954296142578125,0.007698998786509037,0.015836436301469803,0.009970517829060555
1772792406649339100,4.964339111328125,0.005369744263589382,0.007572038099169731,0.005349544808268547
1772792406659383300,4.97438330078125,0.009669950231909752,0.0005886969156563282,-0.0035936159547418356
1772792406669427200,4.98442724609375,0.010485731065273285,-0.004407315514981747,-0.016920750960707664
1772792406679471400,4.994471435546875,0.016909807920455933,-0.0011872872710227966,-0.03195163235068321
1772792406689515000,5.004514892578125,0.02044304460287094,-0.008369824849069118,-0.04241415858268738
1772792406699559200,5.01455908203125,0.01803954318165779,-0.007222801446914673,-0.03913181275129318
1772792406709603300,5.024603271484375,0.012383556924760342,-0.003176487050950527,-0.025664161890745163
1772792406719647200,5.034647216796875,0.009894033893942833,-0.0018323897384107113,-0.016119658946990967
1772792406729691400,5.04469140625,0.005379881244152784,0.001368638128042221,-0.00647374615073204
1772792406739735000,5.054735107421875,0.00521769467741251,0.004118618555366993,-0.006211691536009312
1772792406749779200,5.064779296875,0.007146921008825302,-0.0017173648811876774,-0.00878467969596386
1772792406759823400,5.0748232421875,0.005127446725964546,0.0012555220164358616,-0.00710582360625267
1772792406769867300,5.0848671875,0.006172708235681057,0.000941841397434473,-0.010318133048713207
1772792406779911200,5.0949111328125,0.0057364823296666145,0.0019112322479486465,-0.019596586003899574
1772792406789955000,5.104955078125,0.006302719935774803,0.008318232372403145,-0.014957655221223831
1772792406799999200,5.114999267578125,0.006847869139164686,0.01545310765504837,-0.009364483878016472
1772792406810043100,5.125043212890625,0.009575748816132545,0.014604199677705765,-0.005732312332838774
1772792406820087300,5.13508740234375,0.010002387687563896,0.016409557312726974,-0.003237729426473379
1772792406830131200,5.145131103515625,0.012954996898770332,0.01830049231648445,0.0005569638451561332
1772792406840173800,5.155173828125,0.013429306447505951,0.016584087163209915,0.0027516749687492847
1772792406850217700,5.1652177734375,0.014892475679516792,0.015502801164984703,0.004979148041456938
1772792406860261600,5.17526171875,0.015763062983751297,0.018211236223578453,-0.0008811377920210361
1772792406870305800,5.185305908203125,0.01657824032008648,0.014836844056844711,-0.0021547407377511263
1772792406880349700,5.195349609375,0.019130613654851913,0.013975044712424278,-0.0051270946860313416
1772792406890393900,5.205393798828125,0.0185649786144495,0.010892709717154503,-0.005632596556097269
1772792406900437800,5.215437744140625,0.01772395148873329,0.0030150809325277805,-0.0027305500116199255
1772792406910481700,5.225481689453125,0.0145326629281044,-0.0015885760076344013,-0.0029655597172677517
1772792406920525800,5.23552587890625,0.016135351732373238,-0.004384628962725401,0.001275790622457862
1772792406930569700,5.24556982421875,0.010916626080870628,-0.006569111719727516,0.0009539671009406447
1772792406940613600,5.255613525390625,0.007411106489598751,-0.0030803706031292677,-0.0007086442783474922
1772792406950657500,5.265657470703125,0.005984730087220669,-0.0008890628814697266,-0.000572364020626992
1772792406960701700,5.27570166015625,0.005658759269863367,0.0030225878581404686,-0.0023982273414731026
1772792406970745900,5.285745849609375,0.003970065154135227,0.008942428976297379,-0.002862602937966585
1772792406980789800,5.295789794921875,0.005553847178816795,0.005805224645882845,0.0005148178897798061
1772792406990833700,5.305833740234375,0.0031383729074150324,0.005636704619973898,0.003102538175880909
1772792407000877600,5.315877685546875,0.006370651535689831,0.003681411501020193,0.011642763391137123
1772792407010921700,5.325921630859375,0.004979104269295931,0.00026525044813752174,0.012086360715329647
1772792407020966000,5.3359658203125,-0.002027406357228756,-0.001199222169816494,0.01475511398166418
1772792407031008800,5.3460087890625,-0.004407686181366444,0.005256088450551033,0.01610439643263817
1772792407041053000,5.356052978515625,-0.006106782704591751,0.012699357233941555,0.016670318320393562
1772792407051096600,5.3660966796875,-0.004329434596002102,0.004859420005232096,0.014750359579920769
1772792407061140700,5.376140625,-0.005160873755812645,-0.00380304385907948,0.011742586269974709
1772792407071184600,5.3861845703125,-0.005502790212631226,-0.003955576568841934,0.008335497230291367
1772792407081228800,5.396228759765625,-0.0016973994206637144,-0.012097924947738647,0.010738200508058071
1772792407091272700,5.406272705078125,-0.006522510200738907,-0.012782782316207886,0.006792614236474037
1772792407101316600,5.416316650390625,-0.010941493324935436,-0.008729451335966587,0.010162577964365482
1772792407111360800,5.42636083984375,-0.013913643546402454,0.003036368638277054,0.01145085133612156
1772792407121404700,5.43640478515625,-0.016215413808822632,0.008375206962227821,0.01145884022116661
1772792407131448800,5.44644873046875,-0.018972503021359444,0.010128931142389774,0.009415528737008572
1772792407141492500,5.456492431640625,-0.019574642181396484,0.016072042286396027,0.0034007790964096785
1772792407151536600,5.46653662109375,-0.014748486690223217,0.009233994409441948,-0.0018505618209019303
1772792407161580800,5.476580810546875,-0.008726280182600021,0.0033313645981252193,-0.011876297183334827
1772792407171624700,5.486624755859375,-0.0022614402696490288,-0.007107528857886791,-0.020005252212285995
1772792407181668900,5.4966689453125,0.004652392119169235,-0.01766989193856716,-0.02027689293026924
1772792407191712500,5.50671240234375,0.009430298581719398,-0.022557299584150314,-0.021717069670557976
1772792407201756700,5.516756591796875,0.011165082454681396,-0.02782796323299408,-0.01740221679210663
1772792407211800800,5.52680078125,0.011907334439456463,-0.030086364597082138,-0.014857560396194458
1772792407221844700,5.5368447265625,0.007836692966520786,-0.024243652820587158,-0.014510816894471645
1772792407231888000,5.546887939453125,0.0053223976865410805,-0.016258006915450096,-0.017248699441552162
1772792407241931800,5.556931884765625,0.006372216157615185,-0.008292492479085922,-0.019901206716895103
1772792407251975700,5.5669755859375,0.007055084221065044,-0.006750988774001598,-0.020591072738170624
1772792407262019600,5.57701953125,0.007195699028670788,-0.002338397316634655,-0.01828184723854065
1772792407272063700,5.587063720703125,0.005048392340540886,0.005603415425866842,-0.014942774549126625
1772792407282108000,5.59710791015625,0.005792212672531605,0.011124948039650917,-0.0038818679749965668
1772792407292151800,5.60715185546875,0.0037005331832915545,0.014352897182106972,0.0038714997936040163
1772792407302195700,5.61719580078125,0.006123743019998074,0.02240310050547123,0.010541919618844986
1772792407312239600,5.627239501953125,0.011020285077393055,0.02368202432990074,0.015494992956519127
1772792407322283800,5.63728369140625,0.010014675557613373,0.023837819695472717,0.015721894800662994
1772792407332327700,5.64732763671875,0.010947821661829948,0.02411014586687088,0.020238760858774185
1772792407342371600,5.65737158203125,0.008334994316101074,0.023590032011270523,0.020066455006599426
1772792407352415700,5.667415771484375,0.009063377045094967,0.014314723201096058,0.02180607244372368
1772792407362459600,5.677459716796875,0.008610373362898827,0.01378368865698576,0.022210339084267616
1772792407372503800,5.68750390625,0.012141400948166847,0.013172577135264874,0.021506985649466515
1772792407382547700,5.697547607421875,0.011783205904066563,0.01654760167002678,0.014418717473745346
1772792407392591600,5.707591552734375,0.010583518072962761,0.019992530345916748,0.011490889824926853
1772792407402635800,5.7176357421875,0.00874407310038805,0.014601494185626507,0.008502024225890636
1772792407412679700,5.7276796875,0.008772818371653557,0.008008407428860664,0.0013124746037647128
1772792407422722800,5.737722900390625,0.005847868509590626,0.0030362862162292004,-0.004613058641552925
1772792407432766700,5.7477666015625,0.005583416670560837,-0.0003784187138080597,-0.007979827001690865
1772792407442811000,5.757810791015625,0.006556535605341196,-0.007318882737308741,-0.009308211505413055
1772792407452854500,5.7678544921875,0.005234251264482737,-0.007787715177983046,-0.013657540082931519
1772792407462898700,5.777898681640625,0.006191924214363098,-0.002805739874020219,-0.009329370222985744
1772792407472942800,5.78794287109375,0.0052502634935081005,-0.0027923588640987873,-0.01113003958016634
1772792407482986800,5.79798681640625,0.0065461574122309685,-0.0014493265189230442,-0.010416579432785511
1772792407493031000,5.808031005859375,0.007982629351317883,-0.0007059457711875439,-0.00562080554664135
1772792407503074600,5.818074462890625,0.008706742897629738,-0.00230757100507617,-0.009884259663522243
1772792407513118700,5.82811865234375,0.007908094674348831,-0.011495943181216717,-0.006712541915476322
1772792407523162600,5.83816259765625,0.01019228808581829,-0.012740971520543098,-0.0009619782213121653
1772792407533206800,5.848206787109375,0.006858255248516798,-0.01241207867860794,-0.0008293192950077355
1772792407543250700,5.858250732421875,0.005833737552165985,-0.011878115125000477,-0.0014809948625043035
1772792407553294600,5.868294677734375,0.0027458101976662874,-0.005411210469901562,-0.007082115393131971
1772792407563338800,5.8783388671875,0.00048025918658822775,-0.007909521460533142,-0.011548236012458801
1772792407573382700,5.888382568359375,-0.0015370401088148355,-0.009803173132240772,-0.020682524889707565
1772792407583426800,5.8984267578125,-0.007627422921359539,-0.004604949615895748,-0.027176909148693085
1772792407593470700,5.908470703125,-0.013491196557879448,-0.01992117054760456,-0.02919144555926323
1772792407603514600,5.9185146484375,-0.025977691635489464,-0.03388145938515663,-0.03481417894363403
1772792407613558800,5.928558837890625,-0.036543577909469604,-0.04018252342939377,-0.042693037539720535
1772792407623602700,5.938602783203125,-0.031065190210938454,-0.04508646950125694,-0.048053447157144547
1772792407633645800,5.948645751953125,-0.02736813761293888,-0.04853145778179169,-0.05000995099544525
1772792407643689700,5.958689697265625,-0.029855530709028244,-0.048690713942050934,-0.04568737372756004
1772792407653733600,5.968733642578125,-0.038724370300769806,-0.05199899524450302,-0.04346594959497452
1772792407663777800,5.97877783203125,-0.052446041256189346,-0.06169077008962631,-0.04859945550560951
1772792407673821700,5.98882177734375,-0.05934525653719902,-0.08207695931196213,-0.05633248761296272
1772792407683865900,5.998865966796875,-0.06425373256206512,-0.10504033416509628,-0.07076016068458557
1772792407693909800,6.00890966796875,-0.07340625673532486,-0.12636816501617432,-0.07983119785785675
1772792407703953700,6.01895361328125,-0.08302959054708481,-0.13831377029418945,-0.08047008514404297
1772792407713997600,6.02899755859375,-0.07980760931968689,-0.1266668438911438,-0.06871913373470306
1772792407724041700,6.039041748046875,-0.08133652806282043,-0.09916197508573532,-0.04499543458223343
1772792407734086000,6.0490859375,-0.07894561439752579,-0.08149997144937515,-0.01761157438158989
1772792407744129500,6.059129638671875,-0.09068429470062256,-0.09377288073301315,0.007521475199609995
1772792407754173700,6.069173583984375,-0.10507598519325256,-0.14994581043720245,0.020482439547777176
1772792407764217600,6.079217529296875,-0.12206721305847168,-0.2048732489347458,0.01594521291553974
1772792407774261800,6.08926171875,-0.12420599162578583,-0.24074701964855194,0.010948251001536846
1772792407784306000,6.099305908203125,-0.1120167076587677,-0.2502813935279846,0.0039097825065255165
1772792407794349600,6.109349609375,-0.10277073085308075,-0.23649495840072632,-0.0012680083746090531
1772792407804393700,6.119393798828125,-0.09530295431613922,-0.2079320251941681,-0.011436489410698414
1772792407814437600,6.129437744140625,-0.08589646220207214,-0.18661712110042572,-0.027103306725621223
1772792407824481800,6.139481689453125,-0.07386189699172974,-0.16349448263645172,-0.048290885984897614
1772792407834525700,6.149525634765625,-0.052688658237457275,-0.12451910972595215,-0.07593828439712524
1772792407844569600,6.159569580078125,-0.028490914031863213,-0.09706085175275803,-0.09564994275569916
1772792407854613500,6.169613525390625,-0.012346306815743446,-0.07493259757757187,-0.10923716425895691
1772792407864657700,6.17965771484375,-0.008398969657719135,-0.07322125136852264,-0.11310647428035736
1772792407874701800,6.189701904296875,-0.013689855113625526,-0.07840625941753387,-0.1086309552192688
1772792407884745500,6.199745361328125,-0.013996917754411697,-0.08431261777877808,-0.0840102955698967
1772792407894789600,6.20978955078125,-0.01943695731461048,-0.10279442369937897,-0.06156570464372635
1772792407904833500,6.21983349609375,-0.024680722504854202,-0.14185500144958496,-0.03259184584021568
1772792407914877700,6.229877685546875,-0.0225371140986681,-0.16276192665100098,0.006364353001117706
1772792407924921600,6.239921630859375,-0.016627293080091476,-0.16032247245311737,0.045948248356580734
1772792407934965500,6.249965576171875,-0.006916633807122707,-0.1535365879535675,0.08039771020412445
1772792407945009700,6.260009765625,0.0004195761866867542,-0.12828662991523743,0.1007237583398819
1772792407955053600,6.270053466796875,0.013491153717041016,-0.0910872295498848,0.11945582181215286
1772792407965097700,6.28009765625,0.02784133143723011,-0.05487116426229477,0.13030581176280975
1772792407975141600,6.2901416015625,0.04584271460771561,-0.02639525756239891,0.13538864254951477
1772792407985185500,6.300185546875,0.058945998549461365,-0.014524216763675213,0.13693034648895264
1772792407995229700,6.310229736328125,0.0642470195889473,-0.012345110066235065,0.1454201340675354
1772792408005272600,6.3202724609375,0.05988157168030739,-0.0033510823268443346,0.1441282331943512
1772792408015316700,6.330316650390625,0.059902604669332504,0.0023864824324846268,0.13714590668678284
1772792408025360600,6.340360595703125,0.05831429362297058,0.004341241903603077,0.13128189742565155
1772792408035404800,6.35040478515625,0.05811534821987152,0.014758354984223843,0.1192178875207901
1772792408045448400,6.360448486328125,0.05348943918943405,0.015938136726617813,0.10635934770107269
1772792408055492600,6.37049267578125,0.05038020387291908,0.016020003706216812,0.09234035015106201
1772792408065535500,6.380535400390625,0.04514842480421066,0.010783429257571697,0.07230246067047119
1772792408075579600,6.39057958984375,0.03804762288928032,0.013865980319678783,0.05971004441380501
1772792408085623800,6.400623779296875,0.03932860493659973,0.02922895923256874,0.048076558858156204
1772792408095667700,6.410667724609375,0.04873623698949814,0.031117994338274002,0.041512858122587204
1772792408105711600,6.420711669921875,0.05991751700639725,0.03273506835103035,0.04379705339670181
1772792408115755500,6.430755615234375,0.06982315331697464,0.02290736883878708,0.03730620816349983
1772792408125799700,6.440799560546875,0.07956952601671219,0.010407822206616402,0.03911662474274635
1772792408135843600,6.450843505859375,0.07872134447097778,-0.0032059268560260534,0.03910214081406593
1772792408145887500,6.460887451171875,0.07674022018909454,-0.017409630119800568,0.0409969799220562
1772792408155931600,6.470931640625,0.07071662694215775,-0.015127480030059814,0.040565796196460724
1772792408165975600,6.4809755859375,0.06580841541290283,-0.001956817228347063,0.03368072584271431
1772792408176019700,6.491019775390625,0.05376266688108444,0.023213835433125496,0.02901829034090042
1772792408186063600,6.501063720703125,0.04127217456698418,0.0439302995800972,0.024006489664316177
1772792408196107500,6.511107421875,0.033351652324199677,0.05614818260073662,0.02154484950006008
1772792408206151700,6.521151611328125,0.018534090369939804,0.06008326634764671,0.01702866144478321
1772792408216195600,6.531195556640625,0.013371572829782963,0.06592092663049698,0.01372257899492979
1772792408226239700,6.54123974609375,0.010753152891993523,0.06293153017759323,0.014434974640607834
1772792408236283600,6.55128369140625,0.0010203853016719222,0.050275661051273346,0.03309651091694832
1772792408246327600,6.56132763671875,-0.0041815671138465405,0.03663761168718338,0.040952034294605255
1772792408256371700,6.571371826171875,0.005682232324033976,0.04391160607337952,0.043521903455257416
1772792408266415600,6.58141552734375,0.015824882313609123,0.06168447807431221,0.030042050406336784
1772792408276458800,6.591458740234375,0.016448331996798515,0.07398279756307602,0.011652544140815735
1772792408286502700,6.601502685546875,0.005420714151114225,0.07410264015197754,0.011702877469360828
1772792408296546800,6.611546875,-0.008112180046737194,0.05627622455358505,0.016150688752532005
1772792408306590500,6.621590576171875,-0.009394492022693157,0.03930842503905296,0.023714600130915642
1772792408316634600,6.631634521484375,-0.0026542607229202986,0.025196507573127747,0.025354886427521706
1772792408326678500,6.641678466796875,0.005762926302850246,0.021945320069789886,0.0214682687073946
1772792408336722700,6.65172265625,0.013427774421870708,0.024305522441864014,0.018010307103395462
1772792408346768600,6.6617685546875,0.02139968052506447,0.03042333573102951,0.014464309439063072
1772792408356812800,6.671812744140625,0.024933908134698868,0.03313542157411575,0.020593715831637383
1772792408366856400,6.6818564453125,0.030103370547294617,0.02506604604423046,0.014405326917767525
1772792408376900600,6.691900634765625,0.025614140555262566,0.014095443300902843,0.01858079805970192
1772792408386944500,6.701944580078125,0.023795999586582184,0.00878057349473238,0.026444314047694206
1772792408396987600,6.711987548828125,0.02217385359108448,0.008095175959169865,0.03314128518104553
1772792408407031600,6.722031494140625,0.01539797242730856,0.002687627449631691,0.039354439824819565
1772792408417075700,6.73207568359375,0.014683987945318222,0.006731321103870869,0.035364262759685516
1772792408427119600,6.74211962890625,0.017599882557988167,0.019663896411657333,0.030792683362960815
1772792408437163500,6.75216357421875,0.025492463260889053,0.03715438395738602,0.02672954462468624
1772792408447207700,6.762207763671875,0.03017083741724491,0.04882542043924332,0.020606672391295433
1772792408457251600,6.77225146484375,0.03363768383860588,0.05645785853266716,0.013973522000014782
1772792408467295700,6.782295654296875,0.03346271440386772,0.061789240688085556,0.017629243433475494
1772792408477339600,6.792339599609375,0.03222590684890747,0.06621231138706207,0.018559705466032028
1772792408487383600,6.802383544921875,0.03378971293568611,0.06352917850017548,0.026014424860477448
1772792408497427700,6.812427734375,0.034848883748054504,0.05833197757601738,0.039560601115226746
1772792408507471600,6.8224716796875,0.03631042689085007,0.04916590824723244,0.049299515783786774
1772792408517515800,6.832515869140625,0.03206297755241394,0.03639520704746246,0.05555102601647377
1772792408527559400,6.842559326171875,0.031358301639556885,0.02295050397515297,0.061303187161684036
1772792408537603600,6.852603515625,0.029169686138629913,0.009049803018569946,0.06209052354097366
1772792408547647700,6.862647705078125,0.026047928258776665,0.0027133445255458355,0.05925958231091499
1772792408557691600,6.872691650390625,0.025603754445910454,-0.01568162627518177,0.05883500725030899
1772792408567735600,6.882735595703125,0.022431928664445877,-0.027699939906597137,0.054115355014801025
1772792408577779500,6.892779541015625,0.01646646112203598,-0.028265537694096565,0.0449870303273201
1772792408587823600,6.90282373046875,0.006954981945455074,-0.01933462731540203,0.02965308353304863
1772792408597867800,6.91286767578125,-0.003761799307540059,0.0049673705361783504,0.02133958227932453
1772792408607911700,6.92291162109375,-0.009848986752331257,0.024984490126371384,0.017468677833676338
1772792408617955600,6.93295556640625,-0.015587619505822659,0.0433807373046875,0.021214816719293594
1772792408627998500,6.94299853515625,-0.01707472838461399,0.05453325808048248,0.026038067415356636
1772792408638042600,6.953042724609375,-0.010535091161727905,0.053021106868982315,0.026189368218183517
1772792408648086500,6.96308642578125,-0.007242891471832991,0.03612388297915459,0.028878629207611084
1772792408658130700,6.973130615234375,-0.00655735656619072,0.011008314788341522,0.028203831985592842
1772792408668174800,6.9831748046875,-0.006946977227926254,-0.007875095121562481,0.026901014149188995
1772792408678218500,6.993218505859375,-0.003795138094574213,-0.016864120960235596,0.015748832374811172
1772792408688262700,7.0032626953125,-0.0033903378061950207,-0.01541589293628931,0.0034269187599420547
1772792408698306600,7.013306640625,-0.00019772385712713003,-0.01196347177028656,-0.005831480026245117
1772792408708350700,7.023350830078125,0.004651093855500221,-0.003071177052333951,-0.011232636868953705
1772792408718394600,7.03339453125,0.0056519173085689545,0.010704772546887398,-0.013888833113014698
1772792408728438500,7.0434384765625,0.006225562188774347,0.016477439552545547,-0.011691192165017128
1772792408738482700,7.053482666015625,0.0008374551543965936,0.01281745731830597,-0.0023970268666744232
1772792408748526600,7.063526611328125,-0.0071224672719836235,-0.0006722528487443924,0.0059413304552435875
1772792408758570800,7.07357080078125,-0.00506171677261591,-0.0008499934338033199,0.013579655438661575
1772792408768614700,7.08361474609375,0.0017160277348011732,0.007348282262682915,0.020541690289974213
1772792408778658600,7.093658447265625,0.00942055694758892,0.012911733239889145,0.02091069333255291
1772792408788702700,7.10370263671875,0.010298867709934711,0.013145292177796364,0.016013938933610916
1772792408798746600,7.11374658203125,0.015075737610459328,0.010101818479597569,0.0059664286673069
1772792408808790800,7.123790771484375,0.019889667630195618,0.011957508511841297,0.0009402447612956166
1772792408818834400,7.13383447265625,0.024240782484412193,0.02100241743028164,-0.002459611278027296
1772792408828878600,7.143878662109375,0.02283756248652935,0.039023760706186295,-0.0031355214305222034
1772792408838922500,7.153922607421875,0.02179012820124626,0.059956151992082596,0.0048178150318562984
1772792408848966400,7.16396630859375,0.02298801764845848,0.07729519158601761,0.009298050776124
1772792408859010600,7.174010498046875,0.03104250878095627,0.09461064636707306,0.015577640384435654
1772792408869054500,7.184054443359375,0.03869536891579628,0.11351163685321808,0.025873154401779175
1772792408879097300,7.194097412109375,0.043272294104099274,0.1189279779791832,0.0410534106194973
1772792408889141500,7.2041416015625,0.05053367093205452,0.11825552582740784,0.04863063618540764
1772792408899185400,7.214185302734375,0.05551987886428833,0.10844528675079346,0.04940107837319374
1772792408909229600,7.2242294921875,0.05497260019183159,0.08526193350553513,0.05109405145049095
1772792408919273500,7.2342734375,0.05310043692588806,0.05085965618491173,0.04818219691514969
1772792408929317400,7.2443173828125,0.04563905671238899,0.025562824681401253,0.04079991579055786
1772792408939361500,7.254361572265625,0.043495405465364456,0.007600260898470879,0.03775475546717644
1772792408949405400,7.264405517578125,0.040904682129621506,-0.008961938321590424,0.028187884017825127
1772792408959449600,7.27444970703125,0.04030178487300873,-0.02145710214972496,0.01959208957850933
1772792408969493500,7.284493408203125,0.03392218425869942,-0.028654560446739197,0.01107689831405878
1772792408979537400,7.294537353515625,0.03342815861105919,-0.022799819707870483,0.010965537279844284
1772792408989581300,7.304581298828125,0.03628600016236305,-0.010578039102256298,0.014945898205041885
1772792408999625500,7.31462548828125,0.03576292097568512,-0.011192494072020054,0.020440369844436646
1772792409009669600,7.324669677734375,0.038251910358667374,-0.010531230829656124,0.02160363830626011
1772792409019713300,7.33471337890625,0.03840988501906395,-0.013245295733213425,0.02509874850511551
1772792409029757400,7.34475732421875,0.03451820835471153,-0.016679175198078156,0.03562622144818306
1772792409039801300,7.35480126953125,0.02254938706755638,-0.018571631982922554,0.04554549604654312
1772792409049845500,7.364845458984375,0.015994548797607422,-0.024149090051651,0.04789759963750839
1772792409059889700,7.3748896484375,0.009248197078704834,-0.02688954584300518,0.049427423626184464
1772792409069933300,7.384933349609375,0.004127470776438713,-0.020897168666124344,0.044992994517087936
1772792409079977500,7.3949775390625,0.004915828350931406,-0.014577733352780342,0.04003196209669113
1772792409090021400,7.405021484375,0.005133408587425947,-0.011146250180900097,0.03189893439412117
1772792409100065500,7.4150654296875,0.010402735322713852,-0.0059052566066384315,0.02448880299925804
1772792409110109400,7.425109375,0.015253682620823383,0.00945292692631483,0.022840838879346848
1772792409120153300,7.4351533203125,0.02142956852912903,0.027361784130334854,0.017417658120393753
1772792409130196500,7.445196533203125,0.028582287952303886,0.04568753018975258,0.013938238844275475
1772792409140240400,7.455240478515625,0.03252538666129112,0.057525016367435455,0.018430959433317184
1772792409150284500,7.465284423828125,0.026952719315886497,0.05869254469871521,0.021909847855567932
1772792409160328400,7.475328369140625,0.021893979981541634,0.05861785262823105,0.02085011824965477
1772792409170372600,7.48537255859375,0.02481413632631302,0.058193616569042206,0.021891413256525993
1772792409180416300,7.495416259765625,0.02137519232928753,0.052246931940317154,0.028805091977119446
1772792409190460400,7.50546044921875,0.010992592200636864,0.036126818507909775,0.028127051889896393
1772792409200504600,7.515504638671875,0.012874103151261806,0.022337179630994797,0.02738330326974392
1772792409210548500,7.525548583984375,0.015836870297789574,0.019595187157392502,0.02269108034670353
1772792409220592400,7.53559228515625,0.022061530500650406,0.02937997877597809,0.0020051063038408756
1772792409230636300,7.54563623046875,0.02111184597015381,0.04275330901145935,-0.014044167473912239
1772792409240680400,7.555680419921875,0.019717153161764145,0.06993070989847183,-0.026565397158265114
1772792409250724600,7.565724609375,0.021765923127532005,0.1064532995223999,-0.017923174425959587
1772792409260768500,7.5757685546875,0.021694263443350792,0.12138137966394424,-0.007255318574607372
1772792409270812400,7.5858125,0.03473576158285141,0.12246926873922348,-0.00020673038670793176
1772792409280856300,7.595856201171875,0.05190834403038025,0.1234268993139267,0.00456625921651721
1772792409290900500,7.605900390625,0.07900813966989517,0.11407414078712463,-0.0016884407959878445
1772792409300944600,7.615944580078125,0.1011938825249672,0.12054045498371124,0.00597222289070487
1772792409310988500,7.625988525390625,0.09300253540277481,0.09030719101428986,0.024980269372463226
1772792409321032400,7.636032470703125,0.04956767335534096,-0.03760167956352234,0.006831309758126736
1772792409331076400,7.646076416015625,0.021762672811746597,-0.08500541746616364,-0.005449857097119093
1772792409341120500,7.65612060546875,0.02323036454617977,-0.055334221571683884,-0.004655315075069666
1772792409351164700,7.66616455078125,0.021737130358815193,-0.016651276499032974,-0.011302032507956028
1772792409361208300,7.676208251953125,0.014249895699322224,0.03038802370429039,-0.03144736960530281
1772792409371252500,7.68625244140625,-0.006637009792029858,0.08127570152282715,-0.05053158104419708
1772792409381295400,7.69629541015625,-0.04020501673221588,0.10936813801527023,-0.0468914769589901
1772792409391339500,7.706339599609375,-0.0560324490070343,0.10095307976007462,-0.021430589258670807
1772792409401383400,7.716383544921875,-0.056609056890010834,0.058996137231588364,0.00905376672744751
1772792409411427600,7.726427490234375,-0.049946628510951996,-0.016809944063425064,0.041648995131254196
