time,seconds_elapsed,z,y,x
1772793934249224200,0.06722412109375,-0.03868365865945816,-0.0504068296790123,-0.2576068339608609
1772793934259269000,0.07726904296875,-0.03331891675591469,-0.018344634985923765,-0.2980889203444123
1772793934269315000,0.087315185546875,-0.05377250671982765,0.041674657168984414,-0.2530588883329183
1772793934279360000,0.097360107421875,-0.12380582788884639,0.043104397711157795,-0.20403363093910737
1772793934289405200,0.1074052734375,-0.14187515306472778,0.06614098990559578,-0.1964555786339566
1772793934299450000,0.1174501953125,-0.07007657578885555,0.10053250432908535,-0.20349789836090057
1772793934309495300,0.127495361328125,0.0399497330725193,0.12410685666203498,-0.2231128820762038
1772793934319540000,0.1375400390625,0.1392903972685337,0.13604104008376597,-0.2139196861919947
1772793934329585200,0.147585205078125,0.25225275958180426,0.14140578198730944,-0.16357976600304244
1772793934339630000,0.157630126953125,0.36679274647533894,0.14600655378103256,-0.07803104192465543
1772793934349675300,0.16767529296875,0.43206922850608825,0.11884615965485572,-0.022684362956974655
1772793934359721200,0.17772119140625,0.4333522540539503,0.06662672759592533,-0.044337373572215434
1772793934369766000,0.187765869140625,0.4836942018032074,0.03688566932678222,-0.10186626455034128
1772793934379811000,0.19781103515625,0.5177174674361944,0.02485036361813545,-0.16245711864866316
1772793934389856000,0.20785595703125,0.497544447979331,-0.0017845453292131422,-0.16188344694655388
1772793934399901200,0.217901123046875,0.4151338757961988,-0.02583820561170578,-0.1582634480847977
1772793934409946000,0.227946044921875,0.37131811494529243,-0.020956863310933112,-0.15943857454508542
1772793934419991000,0.237990966796875,0.39770577113330363,0.00035538930892944334,-0.164339644459635
1772793934430036000,0.248035888671875,0.4747866727262735,0.028593641799688336,-0.13859238680070265
1772793934440081200,0.2580810546875,0.5395780015885829,-0.008234159860014915,-0.11118261189018376
1772793934450127000,0.268127197265625,0.5321639259397983,-0.05804185460209846,-0.13412347949203102
1772793934460172300,0.27817236328125,0.4038941043794155,-0.10571370635926723,-0.22303804500801488
1772793934470217000,0.288217041015625,0.19360300221443175,-0.11842062771916388,-0.29799817332103845
1772793934480262100,0.29826220703125,0.003632219022512436,-0.1239274084419012,-0.33850901087503876
1772793934490307000,0.30830712890625,-0.12344517788290976,-0.1269856269687414,-0.37997879312168803
1772793934500352300,0.318352294921875,-0.17289105357527731,-0.16865794605016707,-0.351059828357771
1772793934510397200,0.328397216796875,-0.11679331877827644,-0.1739028609663248,-0.34272166013401
1772793934520442000,0.338442138671875,-0.022110124999284744,-0.15871055253148078,-0.3071717329230159
1772793934530488000,0.348488037109375,0.030177111598849296,-0.17944997369945048,-0.28864746705386785
1772793934540533000,0.358532958984375,-0.009202128109335898,-0.25164777942597866,-0.3226999222487211
1772793934550578200,0.368578125,-0.25603461620807644,-0.2818354124188423,-0.36298761857133355
1772793934560623000,0.378623046875,-0.48446577069759367,-0.23520810127854347,-0.36271015333682294
1772793934570668300,0.388668212890625,-0.5974433305799961,-0.1821633243113756,-0.33594895112868395
1772793934580713000,0.398712890625,-0.6133394033700227,-0.11187982777357101,-0.26716139223705976
1772793934590758100,0.408758056640625,-0.5646750334441661,-0.07859305972158909,-0.1892003833413124
1772793934600803000,0.418802978515625,-0.41889235154688353,-0.046700376376509665,-0.11877229070104658
1772793934610848300,0.42884814453125,-0.2574626031845808,-0.011411036330461501,-0.019906185214221477
1772793934620894200,0.438894287109375,-0.07344809804856776,0.012881693404912948,0.07466105403490364
1772793934630939000,0.44893896484375,0.08906301580965519,0.03463233744204044,0.15602913142777977
1772793934640984000,0.458984130859375,0.23386662354171275,0.06502981379330158,0.21468590305782853
1772793934651029000,0.469029052734375,0.3936211321681738,0.05368132130503654,0.2608138133086264
1772793934661074200,0.47907421875,0.618139497128129,0.03650222296714783,0.27086159846186636
1772793934671119000,0.489119140625,0.9738514621406793,-0.006279518660902977,0.30740283826515075
1772793934681164000,0.4991640625,1.360948745498061,-0.053091538718342775,0.3634123833220452
1772793934691209000,0.509208984375,1.7561667914688586,-0.031470658540725706,0.43940972746200857
1772793934701254100,0.519254150390625,2.145928325599432,-0.0011357260316610335,0.4802830781854689
1772793934711300000,0.529300048828125,2.4603671999812127,-0.009061842855811119,0.49442353947982187
1772793934721345300,0.53934521484375,2.6680484119087455,-0.01394727680981159,0.4914351713187992
1772793934731390000,0.549389892578125,2.5634756922781468,-0.004282207363843917,0.5816621163412928
1772793934741435100,0.55943505859375,2.313858541896939,0.036486440876126285,0.6804173818647861
1772793934751480000,0.56947998046875,2.0643331614524123,0.11125965004861355,0.6982001451842487
1772793934761525200,0.579525146484375,1.887949589586258,0.20190555113553998,0.5990113105490803
1772793934771570200,0.589570068359375,1.7623668151527643,0.18033932375460862,0.5124069399379193
1772793934781615000,0.599614990234375,1.7612918793976307,0.10665624790638685,0.4983807526730001
1772793934791660000,0.609659912109375,1.8903396995931863,0.054168228039145463,0.4655217085137963
1772793934801706000,0.6197060546875,2.172416519552469,0.09010317251235246,0.25805516225025055
1772793934811751200,0.629751220703125,2.482058222785592,0.2802776615828276,0.023940847557783126
1772793934821796000,0.639796142578125,2.6186428682267664,0.42124914380609985,0.03097147684693336
1772793934831841000,0.649841064453125,2.4321166725307704,0.42045448629707094,0.3304083046689629
1772793934841886000,0.659885986328125,2.2070301522940396,0.397496220035851,0.5865323527261614
1772793934851931100,0.66993115234375,2.155748877868056,0.5181631653770804,0.7008554819986224
1772793934861976000,0.67997607421875,2.2429653890281913,0.7065618769466877,0.6857558202832937
1772793934872021200,0.690021240234375,2.49006325006485,0.9403737015612423,0.6386945016399026
1772793934882066000,0.70006591796875,2.9085563731610775,1.1306788312740623,0.527030070182681
1772793934892112100,0.710112060546875,3.4581098253190516,1.3695529077142476,0.35807138762027024
1772793934902157000,0.720156982421875,3.924770474734902,1.5962912868112324,0.223250536981225
1772793934912202200,0.7302021484375,4.054180113980173,1.6752867898538708,0.21990151881426573
1772793934922247200,0.7402470703125,3.74808412052989,1.5516777997113764,0.3717725807145238
1772793934932292000,0.7502919921875,3.0845640974521635,1.3727772765882313,0.4735917638532817
1772793934942337000,0.7603369140625,2.2647686400353906,1.3482792335391043,0.41262203910574313
1772793934952382200,0.77038232421875,1.3385785082578658,1.365643040794134,0.36175007613301274
1772793934962427100,0.78042724609375,0.2390016483426094,1.2324205652624367,0.3537120233669877
1772793934972472000,0.79047216796875,-0.753594846278429,1.0605389809906483,0.2731451793543994
1772793934982518300,0.800518310546875,-1.5523329026192425,0.9791540985934436,0.20312296410128472
1772793934992563000,0.81056298828125,-2.220423886874318,0.8702580358710139,0.1643085186690092
1772793935002608000,0.820608154296875,-2.7149942874789237,0.6556793925799429,0.07065861346051097
1772793935012653000,0.830653076171875,-3.0453678130954502,0.4605162649093196,-0.01758855592161417
1772793935022698200,0.8406982421875,-3.3169606484413143,0.3422011799238622,-0.15960604006648063
1772793935032743200,0.8507431640625,-3.712321902275085,0.26914734188988804,-0.2668861189596355
1772793935042788000,0.8607880859375,-4.458880274045467,-0.03913140242695808,-0.043233723179250956
1772793935052833000,0.8708330078125,-5.000044668042659,-0.9166531456906348,0.7775877162843943
1772793935062878200,0.880878173828125,-4.238775049352646,-0.44329219491854305,-0.19237901337742805
1772793935072924200,0.890924072265625,-3.6618133657872676,0.18083149118572472,-1.0641136246070264
1772793935082969000,0.900968994140625,-3.051817427626252,-0.025402809869125485,-1.0257152126297353
1772793935093014000,0.911013916015625,-2.4823645122557876,-0.258748112950474,-0.3351445394106209
1772793935103059000,0.921058837890625,-2.0262813709557057,-0.5995117343518883,0.4403112794116139
1772793935113104100,0.931104248046875,-1.5516718083620071,-0.6253581963352859,0.7069315870419144
1772793935123149000,0.941149169921875,-0.8494266255706548,-0.2539872186915949,0.6766106830582023
1772793935133194200,0.9511943359375,-0.07967267165184021,0.13365662916526197,0.7261905603937804
1772793935143239000,0.961239013671875,0.6580833849817515,0.46794235978946086,0.8416311493888496
1772793935153284000,0.9712841796875,1.2662901016384362,0.6377258027382194,0.983814930011332
1772793935163330000,0.981330078125,1.9019079723119734,0.5746257514311001,1.0719348197519778
1772793935173375200,0.991375244140625,2.335067334142327,0.5229080583492294,1.1419190410822628
1772793935183420200,1.001420166015625,2.5567040061861275,0.41051991572733965,1.1235163922987879
1772793935193465600,1.011465576171875,2.6617770765542983,0.3764343619804829,0.8920296496309339
1772793935203510500,1.021510498046875,2.798956765279174,0.562250692374073,0.4903030985489487
1772793935213555500,1.031555419921875,3.0877719535827635,0.8309297956977039,-0.08601794902533293
1772793935223600600,1.0416005859375,3.4783453886181115,1.3242379943467675,-0.8855202677369117
1772793935233645600,1.0516455078125,3.588210369437933,1.6510842226199804,-1.5161961519636213
1772793935243690500,1.0616904296875,3.4508360349237917,1.5916116045624016,-1.8230606455683707
1772793935253736400,1.071736328125,3.0728578775674102,1.402580294177681,-1.8029715050026773
1772793935263781600,1.08178173828125,2.47189689425528,1.1343997514933346,-1.6720479540631175
1772793935273826600,1.09182666015625,1.7979916707634924,0.8430660044975579,-1.6300979870840906
1772793935283871700,1.101871826171875,1.312583650779724,0.6209726747274399,-1.5856144099742173
1772793935293916700,1.111916748046875,1.076606318694353,0.35783045500386507,-1.2050991353556513
1772793935303961600,1.121961669921875,0.7470499546796083,-0.24670822239825502,-0.520745290824771
1772793935314006500,1.132006591796875,0.3805050454854965,-0.7285102355130016,0.07463906139880418
1772793935324051700,1.1420517578125,-0.20631752235889433,-0.8303778609033674,0.6760214849933982
1772793935334096600,1.1520966796875,-1.334730600658059,-1.1609987854097037,1.4179507356584071
1772793935344142600,1.162142578125,-3.0149416951715944,-1.790052986718714,2.2145108634382487
1772793935354187500,1.1721875,-5.140815659257769,-2.2251794108383356,2.7292203812301157
1772793935364232400,1.182232421875,-7.582375867438316,-1.9117248713187873,2.3918625496841965
1772793935374277600,1.192277587890625,-10.08272436467409,-0.7703485588110983,1.7079093949086963
1772793935384322600,1.202322509765625,-11.98064940482974,0.6226203688692301,1.6670041146770118
1772793935394367700,1.21236767578125,-12.255156081795691,1.6518044997185468,2.0083821416497227
1772793935404412400,1.222412353515625,-11.206189465177058,2.284149047809839,2.0387214580729602
1772793935414457600,1.23245751953125,-9.001904227676986,2.6325425065025687,1.9340845871649681
1772793935424502500,1.24250244140625,-6.1282315363705155,2.5780489920318126,1.7811936806976794
1772793935434547700,1.252547607421875,-3.400137528821826,2.205680052859336,1.532303967808187
1772793935444593700,1.26259375,-1.217229425871372,1.7280862137578428,1.1405125352852046
1772793935454638600,1.272638671875,0.3446118943274021,1.2292014570854604,0.5021450736425817
1772793935464683500,1.28268359375,1.3345008835554122,0.7593179001003504,-0.25138065292239187
1772793935474728700,1.292728759765625,1.9014438619315623,0.37657241874430325,-0.9642465984493493
1772793935484773600,1.302773681640625,2.2318331696391103,0.0782359259801451,-1.5941526673473416
1772793935494818600,1.312818603515625,2.467059975618124,-0.14305742165185512,-2.085319543118775
1772793935504863500,1.322863525390625,2.6595184839725494,-0.2812342499216087,-2.3658844972103834
1772793935514908700,1.33290869140625,2.766370838972926,-0.36924108947552736,-2.5062556754529473
1772793935524953600,1.34295361328125,2.8733675708800552,-0.41181258588638153,-2.510553957168758
1772793935534999600,1.35299951171875,2.9507541774213313,-0.438553841285035,-2.397459785169363
1772793935545044700,1.363044677734375,2.9987007544666526,-0.44789198033157734,-2.2221774525433777
1772793935555089700,1.373089599609375,3.0019086105972526,-0.4747267226999625,-1.9223598087102174
1772793935565134600,1.383134521484375,2.9440473732590675,-0.44129071890302,-1.561006622940302
1772793935575179500,1.393179443359375,2.815019426807761,-0.4280854926321655,-1.2135983758926392
1772793935585224700,1.403224609375,2.578840434670448,-0.4596947559259832,-0.875868350033462
1772793935595269600,1.41326953125,2.214102867159247,-0.47519784734304993,-0.575108164653182
1772793935605314600,1.423314453125,1.8177935188204049,-0.49280901695527135,-0.3372409271679818
1772793935615359500,1.433359375,1.3621581212878227,-0.5433378290461376,-0.1109016303911805
1772793935625405400,1.443405517578125,0.6959919676154851,-0.6381855292044579,-0.00046513329371809955
1772793935635450600,1.45345068359375,-0.074374565243721,-0.6619476591944694,0.01948226071372628
1772793935645495600,1.46349560546875,-0.8065887698411941,-0.6244340672276913,-0.05486556265354156
1772793935655540700,1.473540771484375,-1.425379424354434,-0.5504103977808729,-0.14769976756498215
1772793935665585400,1.48358544921875,-1.8266665611058472,-0.5116736937599257,-0.10094298482611774
1772793935675630600,1.493630615234375,-2.1248674173921347,-0.4217941008703783,-0.012997574869543314
1772793935685675500,1.503675537109375,-2.1756331435114142,-0.2763881798636168,0.13922931473106145
1772793935695720700,1.513720703125,-2.0519588330477476,-0.17225692039020357,0.31698022942766546
1772793935705765400,1.523765380859375,-1.8448054443866013,-0.048462563743442294,0.4642658632338047
1772793935715811600,1.5338115234375,-1.66669987103343,0.04799114683941006,0.56256505555287
1772793935725856500,1.5438564453125,-1.5096096131801604,0.12477123885489999,0.5642328426346183
1772793935735901700,1.553901611328125,-1.4197691832572221,0.226713829177618,0.5841026413612067
1772793935745946600,1.563946533203125,-1.2731827837616205,0.30470497748330233,0.5096667013190687
1772793935755991800,1.57399169921875,-1.0787041677564382,0.30347894281968474,0.3649874506190419
1772793935766036500,1.584036376953125,-0.8724474356740712,0.2570353907484561,0.1951527158744633
1772793935776081700,1.59408154296875,-0.6999170321047306,0.17538279732577503,-0.0014329554125666617
1772793935786126600,1.604126708984375,-0.4853010524779558,0.11691036928668617,-0.13827464435473083
1772793935796171800,1.614171875,-0.2787649189323187,0.07400631645321845,-0.23026903744116425
1772793935806216700,1.624216796875,-0.06562485707700252,0.027363734678551552,-0.2489040336757898
1772793935816262700,1.6342626953125,0.1619867977231741,-0.027349852283671497,-0.22870617203861474
1772793935826307600,1.6443076171875,0.35616380043327805,-0.06914039091728627,-0.18191051859408616
1772793935836352500,1.6543525390625,0.5540145232200622,-0.07811272885873913,-0.14309095859527587
1772793935846397700,1.664397705078125,0.6966723510950803,-0.1022685343414545,-0.11112959392815827
1772793935856442600,1.674442626953125,0.7680816367924213,-0.14888627393580972,-0.119913350494951
1772793935866487600,1.684487548828125,0.8093406988978386,-0.17500373488031326,-0.15163798379674553
1772793935876532500,1.694532470703125,0.8049298967182635,-0.13391078658942132,-0.1658721147239208
1772793935886577700,1.70457763671875,0.7075555641591549,-0.1341097797602415,-0.10713014902845025
1772793935896622600,1.71462255859375,0.5429308191478253,-0.13025135076642036,-0.03780599904209375
1772793935906668500,1.72466845703125,0.4004518549710512,-0.1244964405015111,-0.013881225836277006
1772793935916713700,1.734713623046875,0.2705535554260015,-0.12348543682806193,0.046894876035302874
1772793935926758400,1.74475830078125,0.15735504626929758,-0.14714125689938665,0.09878478387892245
1772793935936803600,1.754803466796875,0.08981763356924057,-0.1750688360057771,0.16398747002109884
1772793935946848500,1.7648486328125,-0.0025900164932012555,-0.23666019978299735,0.1845145636126399
1772793935956893700,1.774893798828125,-0.15592355216145515,-0.26857969806976617,0.1527227102935314
1772793935966938400,1.7849384765625,-0.26440847679972646,-0.3027726942464709,0.0627967940442264
1772793935976983600,1.794983642578125,-0.285073663687706,-0.2956335630815476,0.05823343165144324
1772793935987028500,1.805028564453125,-0.29087796605229377,-0.27677937113828954,0.10721797344237566
1772793935997074700,1.81507470703125,-0.2362824525117874,-0.2210544882416725,0.1488287715949118
1772793936007119600,1.82511962890625,-0.12263386150002478,-0.18937420553825796,0.19100582532808183
1772793936017164800,1.835164794921875,-0.09103402362167835,-0.1524971579093486,0.27379633673951026
1772793936027209500,1.84520947265625,-0.08421031508147717,-0.10972915254570544,0.30833792715817687
1772793936037254700,1.855254638671875,-0.057902738392353055,-0.07215016719251871,0.2999669891759753
1772793936047299600,1.865299560546875,-0.025253683722019193,-0.015002484951168299,0.2976737636722624
1772793936057344800,1.8753447265625,-0.01865910776257515,0.04041881188899278,0.2629221837647259
1772793936067389400,1.885389404296875,-0.011927169159054755,0.09557013268135488,0.20953195436075328
1772793936077434600,1.8954345703125,-0.005920622220635414,0.08465966628417372,0.24903847371041773
1772793936087479600,1.9054794921875,0.03656593585312366,0.09723528941459954,0.2487263390213251
1772793936097525500,1.915525390625,0.1004646997898817,0.11999927521273493,0.23474267572388052
1772793936107570700,1.92557080078125,0.16710487138926983,0.1601317444410175,0.19035437568202615
1772793936117615600,1.93561572265625,0.19214169749021529,0.13136333059631286,0.22642083758041262
1772793936127660500,1.94566064453125,0.18043197047412393,0.10299319535419345,0.2546262107148766
1772793936137705500,1.95570556640625,0.097519293987751,0.11800313295945525,0.186564920271188
1772793936147750700,1.965750732421875,0.02399170096218586,0.14295987956151365,0.10572656584084034
1772793936157795600,1.975795654296875,-0.06372691450119018,0.16375073865577577,0.04266352207586169
1772793936167840800,1.9858408203125,-0.11658347541987896,0.14552366563491523,0.0739269676066935
1772793936177885400,1.995885498046875,-0.1675900245577097,0.10676613802164793,0.08515899410843848
1772793936187930600,2.0059306640625,-0.22932664202451705,0.0725355863135308,0.04836801732778549
1772793936197976000,2.01597607421875,-0.2284007593512535,0.03624064942151308,0.014595073194056748
1772793936208021200,2.026021240234375,-0.20849545091986654,-0.012582052871212362,0.006094517482817172
1772793936218066200,2.036066162109375,-0.21000176382958888,-0.07078896184191108,-0.0004642565108835697
1772793936228111400,2.046111328125,-0.233345814538002,-0.08951960047073662,-0.013336597565561532
1772793936238156300,2.05615625,-0.2198345910578966,-0.11849252391159534,-0.015576923838257789
1772793936248201200,2.066201171875,-0.14585633165538311,-0.16440759512931108,-0.013730273058265447
1772793936258246100,2.07624609375,-0.10658990467190742,-0.2086254339750856,-0.03637728141322732
1772793936268291300,2.086291259765625,-0.12926643138229846,-0.24921003088504073,-0.07174801613241434
1772793936278336300,2.096336181640625,-0.14548866738677024,-0.23989910863898692,-0.10205839872211217
1772793936288382200,2.10638232421875,-0.10706862809956073,-0.22937917592935264,-0.1191882510907948
1772793936298427400,2.116427490234375,-0.04930675948262214,-0.24582426090426743,-0.08683116510435938
1772793936308472000,2.12647216796875,-0.0025987843215465544,-0.2233572487587109,-0.04773965629637241
1772793936318517200,2.136517333984375,0.03990355584323406,-0.21157113203816114,-0.05515300129279494
1772793936328562200,2.146562255859375,0.09780746327936649,-0.1931916084019467,-0.04658201069384813
1772793936338607400,2.156607421875,0.11320552341938019,-0.1755122689243406,-0.04640606960505247
1772793936348652000,2.166652099609375,0.130466454821825,-0.15802775789909063,-0.08400631694197654
1772793936358697200,2.176697265625,0.15493687921166419,-0.14420768766552208,-0.11285291058942674
1772793936368742100,2.1867421875,0.17113690338432788,-0.14040076966322956,-0.14477394324615597
1772793936378787300,2.196787353515625,0.1702770716845989,-0.13242982731666414,-0.13697481380254029
1772793936388833300,2.206833251953125,0.19535481431782245,-0.11205872800443321,-0.14295403434261678
1772793936398878200,2.216878173828125,0.22409634015560148,-0.11049334185123443,-0.12208382640182971
1772793936408923100,2.226923095703125,0.2327835044801235,-0.0966842679357156,-0.08947598052471875
1772793936418968300,2.23696826171875,0.18400573730766773,-0.08132898749150336,-0.028791502459347248
1772793936429013200,2.24701318359375,0.10975567522644997,-0.04541804494839161,-0.013944938722252845
1772793936439058200,2.25705810546875,0.06194353821575641,-0.027219467369653284,0.014735650708526372
1772793936449103000,2.26710302734375,0.05884264959096908,-0.0871923996321857,0.024577538026124238
1772793936459148300,2.277148193359375,0.037485973307490345,-0.14674177272040395,0.034520109239220616
1772793936469193200,2.287193115234375,0.05530044693946838,-0.1015144645711407,-0.0031479426369071003
1772793936479239200,2.2972392578125,0.09151742322444915,-0.10047233510706573,0.06382730613574385
1772793936489284400,2.307284423828125,0.1042728599011898,-0.16467201821915806,0.15439064350575207
1772793936499329300,2.317329345703125,0.07692658781409263,-0.1711640105869621,0.19456921689808368
1772793936509374200,2.327374267578125,0.04533376419842243,-0.12831227246262134,0.20161723571345208
1772793936519419100,2.337419189453125,0.05594283649623394,-0.09606555151548236,0.176551768039912
1772793936529464300,2.34746435546875,0.06767828247547149,-0.06471040911320597,0.2248531498722732
1772793936539509200,2.35750927734375,0.07027239062190055,-0.028551190897449848,0.2432676352240145
1772793936549554400,2.367554443359375,0.10008534508347511,0.0054665583102032535,0.26030659443885085
1772793936559599000,2.37759912109375,0.1125865147382021,0.045699967162311075,0.27062998166307806
1772793936569644300,2.387644287109375,0.034706571722030635,0.08278353368137031,0.2700990896567702
1772793936579690200,2.397690185546875,-0.05794599301218986,0.098024941954948,0.24982553243488073
1772793936589735200,2.407735107421875,-0.1131786354124546,0.11071849237661809,0.22059446951448916
1772793936599780400,2.4177802734375,-0.13683189820051192,0.1115564410381019,0.20611235517561435
1772793936609825000,2.427824951171875,-0.15028174688220022,0.11122589390948415,0.1984564335949719
1772793936619870200,2.4378701171875,-0.12014847442507744,0.1453001590773463,0.14353110357820986
1772793936629915100,2.4479150390625,-0.07951075908839703,0.14356807458773255,0.14376608137786387
1772793936639960300,2.457960205078125,-0.05789981578290462,0.06575381721891463,0.2032815156638622
1772793936650005200,2.468005126953125,-0.07139175004065036,0.015310564519651234,0.17701120224520564
1772793936660050200,2.47805029296875,-0.06616495530307293,-0.015867577347904442,0.12121508074328302
1772793936670095000,2.48809521484375,-0.06441197415590286,-0.0585355929357931,0.07991597888842225
1772793936680141300,2.498141357421875,-0.048156420403718946,-0.11841701098997146,0.05988470598980784
1772793936690186200,2.508186279296875,-0.03566986379623413,-0.14808978979587553,0.050195378885418175
1772793936700231400,2.5182314453125,-0.06958674644529819,-0.16817871116586028,0.02544862177222967
1772793936710276000,2.528276123046875,-0.030822423765063285,-0.17754909024788065,-0.003657645724713802
1772793936720321300,2.5383212890625,-0.013255787414312362,-0.1813232019591145,-0.028266601802408694
1772793936730366200,2.5483662109375,0.010532499930262566,-0.19932052134471012,-0.06851385651677847
1772793936740411400,2.558411376953125,0.009601356559991836,-0.19181600919980554,-0.09960895974338053
1772793936750456300,2.568456298828125,0.006709726771712303,-0.1723162858946249,-0.15507380346432328
1772793936760501200,2.578501220703125,0.008112579306960105,-0.18736936852186917,-0.19852847591787576
1772793936770547200,2.588547119140625,-0.010504442879557608,-0.18169057396678254,-0.2273367833815515
1772793936780592000,2.598592041015625,-0.0021679916888475417,-0.18178928510090336,-0.24822642667517064
1772793936790637300,2.60863720703125,0.004728197565674781,-0.18883164136046543,-0.24873364554494617
1772793936800682200,2.61868212890625,0.011226911935210228,-0.19875167194819077,-0.26195304647162554
1772793936810727200,2.62872705078125,-0.055739422878623004,-0.20685776671543715,-0.3015096885733306
1772793936820772000,2.638772216796875,-0.12379764458239077,-0.19597389606423674,-0.3301319719456136
1772793936830817300,2.6488173828125,-0.13764496814906596,-0.18176946615558118,-0.3280143952697515
1772793936840862200,2.6588623046875,-0.09545651623904705,-0.2058809941051528,-0.299716667676717
1772793936850907400,2.668907470703125,-0.05187456414401531,-0.21458079871553926,-0.2900315783560276
1772793936860952000,2.6789521484375,-0.014372808745503425,-0.2007705009573139,-0.24235578107610342
1772793936870998300,2.688998291015625,0.03142915748655796,-0.21327092169336972,-0.21361951593533157
1772793936881043200,2.699043212890625,0.042057519006729126,-0.22742840718775986,-0.17875380812883376
1772793936891088100,2.709088134765625,0.04800093758106232,-0.22453738018767908,-0.15918547656685114
1772793936901133300,2.71913330078125,0.05186754988133907,-0.22092929095942526,-0.13546952380612493
1772793936911178200,2.72917822265625,0.08122107013761996,-0.21387084208158774,-0.08715192149132489
1772793936921223200,2.73922314453125,0.12660451869666575,-0.21612397303692996,-0.0410312446989119
1772793936931268000,2.74926806640625,0.11995265959203243,-0.23224779016822575,0.006912263606488704
1772793936941313300,2.759313232421875,0.10422551362812518,-0.2078500474221073,0.05406608283892274
1772793936951358200,2.769358154296875,0.1048608889222145,-0.17875159790543838,0.050151978135108945
1772793936961403100,2.779403076171875,0.1220101766437292,-0.15787565434360876,0.11144333605244755
1772793936971449000,2.789448974609375,0.0869575679630041,-0.12766529806228355,0.14368717092275618
1772793936981494300,2.799494384765625,0.06449030008912086,-0.06526729407729581,0.17691928617805242
1772793936991539200,2.809539306640625,0.082836104118824,-0.003953658112778794,0.2354851646542549
1772793937001584400,2.81958447265625,0.09335282195806503,0.036121418372460176,0.30644802175834773
1772793937011629300,2.82962939453125,0.0929354733288288,0.07928607435389422,0.3335112391203642
1772793937021674200,2.83967431640625,0.09701251350939273,0.13831325019891372,0.35074674382060766
1772793937031719200,2.84971923828125,0.10781447803080081,0.1603510862801224,0.34265374599695203
1772793937041764400,2.859764404296875,0.09373568379580974,0.19106765678422524,0.3600214987747371
1772793937051809300,2.869809326171875,0.057443888708949085,0.20134561569783835,0.34655426056683064
1772793937061854200,2.879854248046875,0.052449733683466906,0.20648948139231652,0.3423978715397417
1772793937071900200,2.889900146484375,0.051879240319132804,0.20192325118901208,0.32462913674563165
1772793937081945000,2.899945068359375,0.03253974907696247,0.20346222425932065,0.33335400273203847
1772793937091990300,2.909990234375,0.042490649726986886,0.21103760968334973,0.3465999994046986
1772793937102035200,2.92003515625,0.02830897963941097,0.18336161245154217,0.38201574230939145
1772793937112080400,2.930080322265625,0.0011199439406394957,0.1651850275089033,0.3931296953894198
1772793937122125000,2.940125,0.022122399958968163,0.14665114442803895,0.3989259605780244
1772793937132170200,2.950170166015625,0.052284313988685605,0.11469080267422832,0.3991213370196521
1772793937142215200,2.960215087890625,0.07940788323581219,0.07061328104801941,0.38763577414825556
1772793937152260400,2.97026025390625,0.09554711713194847,0.03300185472995508,0.3707999362900853
1772793937162305000,2.980304931640625,0.11290157203674316,0.02814961522608064,0.36187501768693325
1772793937172351200,2.990351318359375,0.14047931479215622,-0.016397768384602385,0.3448940722696483
1772793937182396200,3.000396240234375,0.15806816297471524,-0.013836398030573035,0.33982641361653804
1772793937192441300,3.01044140625,0.1364975516796112,-0.016876140185806434,0.3165212336137891
1772793937202486300,3.020486328125,0.15520575928092,-0.029012684629089198,0.2725730785548687
1772793937212531500,3.030531494140625,0.14817571451365946,-0.03742193391124019,0.23010960909575223
1772793937222576000,3.040576171875,0.13706629147827623,-0.016799202492076438,0.17913652383610607
1772793937232621300,3.050621337890625,0.1299491529494524,0.0041300490094348784,0.15414529044255612
1772793937242666200,3.060666259765625,0.11102525677084922,0.002427375560684595,0.13179843407794833
1772793937252711400,3.07071142578125,0.07963876938223838,0.0013160030855680815,0.11350041471272707
1772793937262757400,3.08075732421875,0.06757832923233509,0.007954374804254621,0.08517959850504994
1772793937272802000,3.090802001953125,0.06693886228501797,0.004753576318814885,0.06033244975730776
1772793937282847200,3.10084716796875,0.028534605088829993,-0.016060839464259333,0.05363616698905825
1772793937292892200,3.11089208984375,-0.03884264861345291,-0.027744084898801518,0.032370968381315465
1772793937302937300,3.120937255859375,-0.09352233330607414,-0.04433792612806428,0.010671616140007972
1772793937312982300,3.130982177734375,-0.14403262335956096,-0.07735137996426783,-0.011439970164000987
1772793937323027200,3.141027099609375,-0.16587036115825174,-0.09358821074967272,-0.023445172995328903
1772793937333072100,3.151072021484375,-0.12535948707163333,-0.11856308666346593,-0.047448856656253334
1772793937343117300,3.161117431640625,-0.0678349343419075,-0.16943017253167927,-0.05333280012831092
1772793937353162200,3.171162353515625,-0.058981181278824804,-0.19792784314360468,-0.07622530767694115
1772793937363207400,3.18120751953125,-0.02923895396590233,-0.20224930480560285,-0.10176189999356865
1772793937373253400,3.19125341796875,0.014054828837513923,-0.24887617755448443,-0.14568974291682243
1772793937383298000,3.201298095703125,0.029175825601816176,-0.282980034143012,-0.16596096205115318
1772793937393343200,3.21134326171875,0.0507376690685749,-0.30198187266234305,-0.19441826412007213
1772793937403388200,3.22138818359375,0.09858137026131153,-0.2739791276942007,-0.23061565892174837
1772793937413433300,3.231433349609375,0.106616792678833,-0.28745584611650554,-0.22616847025454043
1772793937423478000,3.24147802734375,0.11064064136743545,-0.27901555095883085,-0.28530425757318734
1772793937433523200,3.251523193359375,0.11305471677184105,-0.2613853113199584,-0.3163708653576672
1772793937443568000,3.261568115234375,0.09929331792294979,-0.2549073657438159,-0.36596126408725976
1772793937453613300,3.27161328125,0.08055705327093601,-0.25414756035245956,-0.41505175047069787
1772793937463659300,3.2816591796875,0.06997662254571914,-0.2505642402392812,-0.43581469864472744
1772793937473704400,3.291704345703125,0.05116787717938423,-0.2540367934543639,-0.42216508960723875
1772793937483749000,3.3017490234375,0.04910860656201839,-0.2735608109505847,-0.40078137918636203
1772793937493794300,3.311794189453125,-0.02527005033493042,-0.2943337873282842,-0.39702012695670125
1772793937503839200,3.321839111328125,-0.10645955629050731,-0.27061819989373903,-0.3908806012883782
1772793937513884400,3.331884521484375,-0.18280512934625148,-0.2855528620393947,-0.36274390947595236
1772793937523929000,3.34192919921875,-0.25623510721623893,-0.27957066409094256,-0.3336500630691647
1772793937533974300,3.351974365234375,-0.3107879506587982,-0.2716119053725153,-0.2883903870202601
1772793937544019200,3.362019287109375,-0.32109540966153144,-0.2454689811931923,-0.23793051197975873
1772793937554064400,3.372064453125,-0.30461539950370786,-0.22970278186053036,-0.20898162700161338
1772793937564110300,3.3821103515625,-0.2447486675620079,-0.23339345307201145,-0.19800795917510985
1772793937574155300,3.3921552734375,-0.1718903521001339,-0.2567571217963472,-0.20465616501793263
1772793937584200200,3.4022001953125,-0.10156067833304405,-0.27109507842417807,-0.2135102103419602
1772793937594245000,3.4122451171875,-0.05497603729069232,-0.2829239565742202,-0.2365823122411966
1772793937604290300,3.422290283203125,0.022665420794487,-0.2805823253515176,-0.2516407651633024
1772793937614335200,3.432335205078125,0.07696750434637069,-0.2849632986484095,-0.24288652695193885
1772793937624380200,3.442380126953125,0.08470891225337981,-0.2526237483186647,-0.23698899334594606
1772793937634425000,3.452425048828125,0.11334171701967716,-0.23013958410890772,-0.24167452081367372
1772793937644470300,3.46247021484375,0.12935118705630302,-0.20863608323326333,-0.23914368716180323
1772793937654515200,3.47251513671875,0.1481084944963455,-0.16301252404171973,-0.16629150917977092
1772793937664560400,3.482560302734375,0.1893400840729475,-0.12793218710385262,-0.09102920131608844
1772793937674606300,3.4926064453125,0.21137071409523486,-0.11036063711596653,-0.01943871383294463
1772793937684651300,3.5026513671875,0.19779168607592582,-0.06504968753755093,0.0207373753413558
1772793937694696200,3.5126962890625,0.16417933933138845,-0.03391777769820765,0.0524044332370162
1772793937704741000,3.5227412109375,0.10774258183836936,-0.010864599695149808,0.09451046756058931
1772793937714786300,3.532786376953125,0.059740475213527676,0.011941453412733971,0.12051306995376944
1772793937724831200,3.542831298828125,0.017564298263192175,0.03178410840407014,0.16481953693106768
1772793937734876200,3.552876220703125,-0.02820259665548801,0.05074247310785576,0.2017193809136748
1772793937744921000,3.562921142578125,-0.052664253216981885,0.06777682921281084,0.2311260926619172
1772793937754966300,3.57296630859375,-0.08659165726006031,0.09255586289409548,0.23997692311555147
1772793937765012200,3.58301220703125,-0.09599135376811027,0.10172458192417398,0.27298852748796343
1772793937775057400,3.593057373046875,-0.10930208624005316,0.12297966099670156,0.30589930183440445
1772793937785102000,3.60310205078125,-0.09750877259373664,0.15362711178734897,0.33203181421756744
1772793937795147300,3.613147216796875,-0.0603887099891901,0.16130199379678814,0.3587520633608103
1772793937805192200,3.623192138671875,-0.021842998495697975,0.17790917399823664,0.375077905870229
1772793937815237400,3.6332373046875,0.006078443130850791,0.17069233795460312,0.38475495801493526
1772793937825282300,3.6432822265625,0.028782442370057105,0.14358654182618483,0.3785920514710247
1772793937835327200,3.6533271484375,0.08547288236320018,0.14144814155800267,0.39769305778220293
1772793937845372200,3.6633720703125,0.09921791459918021,0.1359611615142785,0.383725907228142
1772793937855417300,3.673417236328125,0.11882745495438575,0.13235376640576868,0.36573373894169925
1772793937865463300,3.68346337890625,0.1377396606951952,0.12068289182903244,0.37592151708751914
1772793937875508200,3.69350830078125,0.1477379076182842,0.10611494410391896,0.36454905920177694
1772793937885553200,3.70355322265625,0.14223814115822314,0.09093375985128804,0.33642011230438945
1772793937895598000,3.71359814453125,0.14244330834150312,0.06087735202265903,0.315624284774065
1772793937905643300,3.723643310546875,0.11065700798034667,0.05869131322046742,0.26791180874556303
1772793937915688200,3.733688232421875,0.1213566811710596,0.059357668174710124,0.2743795434549451
1772793937925733400,3.7437333984375,0.13059212702810763,0.04083460788195953,0.2998607523225248
1772793937935778000,3.753778076171875,0.13589315604567526,0.026149280854873357,0.27454306345358487
1772793937945823200,3.7638232421875,0.1343313135564327,0.00246677370602265,0.24318346407189964
1772793937955868200,3.7738681640625,0.1183767885774374,-0.01631378674544394,0.2247391681037843
1772793937965913300,3.783913330078125,0.10362520964741706,-0.018750567172002047,0.1821044337309897
1772793937975959300,3.793959228515625,0.13215221595168114,-0.037316261030081656,0.18129194830432532
1772793937986004200,3.804004150390625,0.15367080479860304,-0.041899953824840484,0.17751432946175336
1772793937996049200,3.814049072265625,0.18122984285354612,-0.04845761357368901,0.1609701680265367
1772793938006094300,3.82409423828125,0.19277707278430462,-0.06883119710395112,0.15613602586835623
1772793938016139300,3.83413916015625,0.1941846014946699,-0.059008142350986593,0.15353241924121974
1772793938026184400,3.844184326171875,0.18393033398389816,-0.07535802332311868,0.1130186225451529
1772793938036229000,3.85422900390625,0.13499649946689604,-0.07366793307801708,0.09772299986630678
1772793938046274300,3.8642744140625,0.09816109902262687,-0.07394046640908346,0.08589724525511264
1772793938056319200,3.8743193359375,0.03282674932479858,-0.08027706728577613,0.08106281083598732
1772793938066364400,3.884364501953125,-0.030894904479384422,-0.060792742479126895,0.06562763355597853
1772793938076410400,3.894410400390625,-0.0767360336780548,-0.04131212573321536,0.05516513012200593
1772793938086455300,3.904455322265625,-0.09473404718339443,-0.03415321215558797,0.04656140629723668
1772793938096500200,3.914500244140625,-0.11825754611194134,-0.026609792772401122,0.03407908747345209
1772793938106545200,3.924545166015625,-0.13493161753714084,-0.02990686155641451,0.004537789560109377
1772793938116590300,3.93459033203125,-0.14907529370188713,-0.036599965986888854,-0.013230945234000683
1772793938126635300,3.94463525390625,-0.1633902347803116,-0.05488581999028101,-0.034060967294871805
1772793938136680200,3.95468017578125,-0.16677637008726595,-0.054491030252724885,-0.05376593084856868
1772793938146725000,3.96472509765625,-0.17066344065368175,-0.031971210207697005,-0.04726458613052964
1772793938156770300,3.974770263671875,-0.13994973796010016,-0.041800712967757135,-0.04810892800018191
1772793938166815200,3.984815185546875,-0.08551730602681637,-0.05733474751235917,-0.019554887558519838
1772793938176860400,3.9948603515625,-0.04118015165030956,-0.07683335657268762,-0.014595657715946436
1772793938186905000,4.004905029296875,0.013220131579041481,-0.12420929412320256,-0.034906332077831025
1772793938196950800,4.01495068359375,0.029922260054945943,-0.16282604329260064,-0.07181801262870431
1772793938206995500,4.024995361328125,0.05265080921351909,-0.190593810461089,-0.10663783546686172
1772793938217040600,4.03504052734375,0.09073299484848976,-0.2207269002551213,-0.10982450267896056
1772793938227085600,4.04508544921875,0.09357377123236656,-0.2395198452641256,-0.11720716027617453
1772793938237130800,4.055130859375,0.07323416303694248,-0.2330632895358838,-0.13572437535002826
1772793938247176700,4.0651767578125,0.0675163699120283,-0.23036431450918315,-0.1321440326452255
1772793938257221600,4.0752216796875,0.02773965531885624,-0.1988103981317952,-0.12220569921582937
1772793938267266600,4.0852666015625,0.02690261997282505,-0.16688339239200575,-0.10271890845745801
1772793938277311500,4.0953115234375,0.023871873974800107,-0.14550671450011432,-0.08713657779172063
1772793938287356700,4.105356689453125,0.03002045973241329,-0.10760920124966651,-0.06343041577264666
1772793938297401600,4.115401611328125,0.015877368089556695,-0.09221610954571514,-0.039158290433883663
1772793938307446800,4.12544677734375,0.03628945699930191,-0.06276460880767554,-0.0066673489347100256
1772793938317491500,4.135491455078125,0.0283382057338953,-0.043126061553694306,0.023904168809205293
1772793938327536600,4.14553662109375,0.01025602107644081,-0.03368932097088545,0.0419790469430387
1772793938337581600,4.15558154296875,-0.018618191230297086,-0.03894121361710131,0.0280506209641695
1772793938347627500,4.16562744140625,-0.025910686326026916,-0.039150143660046155,0.03057897039800882
1772793938357672700,4.175672607421875,-0.04504442586302757,-0.0522673628538847,0.0613264292307198
1772793938367717600,4.185717529296875,-0.050989013481140134,-0.07122245788834988,0.10169044219255446
1772793938377762600,4.195762451171875,-0.06552899548709393,-0.07473945303335786,0.09241042654141783
1772793938387807500,4.205807373046875,-0.08472410982251166,-0.06184362150523811,0.07777940525114536
1772793938397852700,4.215852783203125,-0.09488134669959544,-0.046776583417877556,0.06412979621365666
1772793938407897600,4.225897705078125,-0.0568856703042984,-0.04078359008077532,0.04945873517394066
1772793938417942500,4.235942626953125,0.004527122035622597,-0.06357640011459588,0.033520576807856556
1772793938427987500,4.245987548828125,0.0632686493396759,-0.08459927786644547,0.03895896846950054
1772793938438032600,4.25603271484375,0.12939093454480172,-0.09519114330112934,0.04159267797395587
1772793938448078600,4.26607861328125,0.17816577910780906,-0.10261373104993253,0.04015636156052351
1772793938458123800,4.276123779296875,0.2097393135011196,-0.12397424325831234,0.02796265041977167
1772793938468168400,4.28616845703125,0.26323358780145645,-0.12514076628703624,0.027452216679602858
1772793938478213600,4.296213623046875,0.26671909182965753,-0.11016264859214424,0.025925591634213922
1772793938488258600,4.306258544921875,0.2308089895367622,-0.12274678382258862,0.010016074840724467
1772793938498303700,4.3163037109375,0.17999533262252806,-0.12608864159639924,0.010886574064940214
1772793938508348700,4.3263486328125,0.1038461589217186,-0.12774192522875963,-0.013215017012506722
1772793938518393600,4.3363935546875,0.04298164811432361,-0.09760741066262126,-0.008324760752916336
1772793938528438500,4.3464384765625,-0.008427052083611488,-0.07674779718108475,-0.004540858300030232
1772793938538483700,4.356483642578125,-0.08871697885096072,-0.048542241383530194,-0.0054661564514040945
1772793938548530700,4.36653076171875,-0.14340133971869945,-0.0313038506064564,0.03223535930290818
1772793938558575600,4.37657568359375,-0.23536942932009697,0.0030117855692282317,0.056606853362917896
1772793938568620800,4.386620849609375,-0.26777240027487276,-0.01411901664752513,0.05666778976991772
1772793938578665500,4.39666552734375,-0.23017536780834197,-0.006790683053433895,0.0628406331859529
1772793938588710700,4.406710693359375,-0.15861585998535155,-0.03819388411482796,0.036716888631135224
1772793938598755600,4.416755615234375,-0.10393500624895095,-0.0653998526820913,0.011094079335778951
1772793938608800800,4.42680078125,-0.07717793222665786,-0.08840354725392535,-0.025267858377844093
1772793938618845700,4.436845703125,-0.04524491687119007,-0.10587985670641065,-0.06855901083275676
1772793938628891600,4.4468916015625,-0.043593058010935784,-0.09433174999281764,-0.08697291166260838
1772793938638936600,4.4569365234375,-0.009683189624547959,-0.08444985945839434,-0.08566840493530034
1772793938648981500,4.4669814453125,0.04068096995651722,-0.06972089421898126,-0.06662818890064955
1772793938659026700,4.477026611328125,0.11744973686039448,-0.09128105718530714,-0.04467953807339072
1772793938669071600,4.487071533203125,0.15809563550353048,-0.10898070879857986,-0.012632394818961619
1772793938679116500,4.497116455078125,0.20956337241232395,-0.10098912552278488,-0.0019628245055675507
1772793938689161500,4.507161376953125,0.22301263657212256,-0.13026757124885915,0.03920402927175164
1772793938699206700,4.51720654296875,0.20982816082835196,-0.1665106683557853,0.028141075726598498
1772793938709251600,4.52725146484375,0.20577742413282393,-0.1747649211557582,0.037507746747881175
1772793938719296800,4.537296875,0.20783260309696197,-0.16689206888880578,0.05629384189099073
1772793938729342700,4.5473427734375,0.18263678704202174,-0.14181312067918478,0.10382745422124862
1772793938739387400,4.557387451171875,0.17172434788346289,-0.14335340892374515,0.130307026476413
1772793938749432600,4.5674326171875,0.1670014110147953,-0.09730020787697286,0.1570255220539868
1772793938759477500,4.5774775390625,0.15564415069818496,-0.0461517660504207,0.17705606430023907
1772793938769522700,4.587522705078125,0.15844693315923214,-0.016796638358943163,0.18536694265827536
1772793938779567600,4.597567626953125,0.109453477409482,0.035110403282567856,0.18435411235392093
1772793938789612500,4.607612548828125,0.08516483932733536,0.07452654093503952,0.17061083368360996
1772793938799657500,4.617657470703125,0.08133914355933666,0.10919256145097314,0.163191789598763
1772793938809702700,4.62770263671875,0.05885843168199062,0.1098220915261656,0.14539470549300312
1772793938819747600,4.63774755859375,0.0004454056799411773,0.10881185503769665,0.12473492543250321
1772793938829793800,4.647793701171875,-0.0664145461499691,0.1356044752974063,0.09167831287458539
1772793938839838500,4.65783837890625,-0.07529869435131549,0.13215977820362895,0.072146806191653
1772793938849883600,4.667883544921875,-0.06159340960383415,0.11181534770261496,0.12696969874724745
1772793938859928600,4.677928466796875,-0.010522563058137892,0.05707089067809283,0.17238251953125
1772793938869973800,4.687973876953125,0.024241876330971718,0.022420834916271268,0.17149039299711585
1772793938880018700,4.698018798828125,0.01117839661836624,-0.006705708183720707,0.20209362105354667
1772793938890063600,4.708063720703125,-0.015921791753172872,-0.045512518298812206,0.18451558652594685
1772793938900108500,4.718108642578125,-0.08732990840673446,-0.04840663230512291,0.18988003616854549
1772793938910153700,4.72815380859375,-0.08826981960535049,-0.051435734335333105,0.19957389331758021
1772793938920198700,4.73819873046875,-0.07127543018460274,-0.06154440109664574,0.21784663211107252
1772793938930243600,4.74824365234375,-0.009023264411091804,-0.04840171866798773,0.23033172741383312
1772793938940289500,4.75828955078125,0.0018429975181818007,-0.031127343262080102,0.22040537668317556
1772793938950334500,4.76833447265625,0.023578443986177443,-0.02985823664171621,0.18204072084501385
1772793938960379600,4.778379638671875,0.05114683439135551,-0.050532848945166915,0.13224398588836192
1772793938970424600,4.788424560546875,0.08233341529369353,-0.044503377788886425,0.11223916260525583
1772793938980469800,4.7984697265625,0.08961597351729869,-0.04096552251894027,0.0904632379963994
1772793938990514400,4.808514404296875,0.1133791264206171,-0.04450268366914242,0.06986980117037891
1772793939000559600,4.8185595703125,0.08925707707703114,-0.049000543077662585,0.018533581686764954
1772793939010604500,4.8286044921875,0.06597264760136604,-0.05627955763731152,-0.034975159530341624
1772793939020649700,4.838649658203125,0.04860474869310855,-0.049784752257913345,-0.06325301337912678
1772793939030694700,4.848694580078125,0.04408814805150032,-0.07555380162354558,-0.07080985849946737
1772793939040740600,4.85874072265625,-0.019824059888720512,-0.10817571255862712,-0.07279781744629145
1772793939050785500,4.86878564453125,-0.1163157643944025,-0.10728802473759277,-0.1258905252084136
1772793939060830700,4.878830810546875,-0.15753449448943138,-0.1075254319563508,-0.12074264092594385
1772793939070875600,4.888875732421875,-0.16615677688419817,-0.09569058072324842,-0.11170651703327894
1772793939080920600,4.898920654296875,-0.1297434012442827,-0.1245164055773057,-0.07943155637234449
1772793939090965500,4.908965576171875,-0.09948796371221542,-0.13767479703174904,-0.055808834853023286
1772793939101010700,4.9190107421875,-0.086073770865798,-0.13651170806912705,-0.04817804771363735
1772793939111055600,4.9290556640625,-0.05781213749945163,-0.1735491156252101,-0.032548809166252614
1772793939121100500,4.9391005859375,-0.011304653346538542,-0.18206116084484383,-0.04110840158835053
1772793939131145700,4.949145751953125,-0.0010895488023757935,-0.16444708688948304,-0.05866290910989046
1772793939141190700,4.959190673828125,0.020377602118253707,-0.16014347141142934,-0.09193667154982685
1772793939151236600,4.969236572265625,0.05214636682271957,-0.15545166033338753,-0.09157529089152812
1772793939161281500,4.979281494140625,0.06193886204063892,-0.14874850943293422,-0.09759937348663807
1772793939171326700,4.98932666015625,0.09052724314332007,-0.15549597439914942,-0.11355375233516096
1772793939181371600,4.99937158203125,0.13446341550350188,-0.13615684848316012,-0.11532310009524226
1772793939191416600,5.00941650390625,0.16479191827178,-0.13789748160541057,-0.09618760699257255
1772793939201461200,5.019461181640625,0.1862549775391817,-0.12151563459243625,-0.07801789018213748
1772793939211506400,5.02950634765625,0.18894494727551936,-0.11669986834116279,-0.04096870085671544
1772793939221551000,5.039551025390625,0.18038403967916963,-0.10617032755296676,-0.004766045358031988
1772793939231596300,5.04959619140625,0.11914075868725776,-0.11033398657105863,0.00559182865768671
1772793939241641200,5.05964111328125,0.11058744987547398,-0.10077402146738022,-0.010735621286928653
1772793939251687200,5.069687255859375,0.08805705363750457,-0.12158066265266387,0.018843086027354
1772793939261732400,5.079732421875,0.08099602921009064,-0.13377875770758837,0.038582097981125114
1772793939271777300,5.08977734375,0.056501639422774315,-0.14665270619746296,0.015385931310802698
1772793939281822200,5.099822265625,0.011027589970827102,-0.10960569056281819,0.019419278480112552
1772793939291867100,5.1098671875,-0.030449498799443243,-0.07142835572399199,0.034740181730687617
1772793939301912300,5.119912353515625,-0.040402153015136714,-0.08214921783320606,0.05261266916021704
1772793939311957200,5.129957275390625,-0.013351064482331275,-0.05864999482939019,0.06750979404076933
1772793939322002200,5.140002197265625,0.015226795226335525,-0.07312284814957529,0.047278030133992434
1772793939332047000,5.150047119140625,0.04317161772847175,-0.07927914228960871,0.0532671875461936
1772793939342092300,5.16009228515625,0.04397533532679081,-0.089443137701042,0.04996361595615744
1772793939352138200,5.17013818359375,0.019421908828616143,-0.06152430815668776,0.055957741804420945
1772793939362183400,5.180183349609375,0.012644962039589881,-0.03465480500217527,0.07032251337394117
1772793939372228400,5.190228271484375,0.002594108146429062,-0.01469904502518475,0.09925196299925446
1772793939382273300,5.200273193359375,-0.002429272973537445,-0.0025598040180280805,0.10558101989030838
1772793939392318200,5.210318115234375,-0.00725099404156208,-0.01156197084216401,0.13283011521324514
1772793939402363400,5.22036328125,0.009390928679704666,0.020898867779690772,0.1583177538216114
1772793939412408300,5.230408203125,0.027317630514502523,0.01845733811277896,0.15498597905039788
1772793939422453200,5.240453369140625,0.03853752818703651,-0.006886727306433022,0.16828297525793312
1772793939432498200,5.250498291015625,0.030529578298330307,-0.006523172957357019,0.14915098928660153
1772793939442543400,5.26054345703125,0.03618015140593052,-0.00020549597684293985,0.13272475514262913
1772793939452588300,5.27058837890625,0.031003041028976438,-0.0004604023196734488,0.13277531628608702
1772793939462634200,5.28063427734375,0.06596504881680011,-0.005348612752649933,0.15142960174307227
1772793939472679400,5.290679443359375,0.07229308279454708,0.004303944271616638,0.16356223034635184
1772793939482724000,5.30072412109375,0.06209726747274399,0.006121898680087178,0.1655985584795475
1772793939492769300,5.310769287109375,0.05075988090038299,0.02377765635270625,0.15871785905510186
1772793939502814200,5.320814208984375,0.039841596522927285,0.0015930778777226804,0.14509981419965623
1772793939512859400,5.330859375,0.05570142895579338,-0.010313687814120202,0.1115172780714929
1772793939522904000,5.340904052734375,0.0673030194222927,-0.02606821497529745,0.08355594282597303
1772793939532949200,5.35094921875,0.03271802825331688,-0.010111041381489485,0.07475099734067917
1772793939542994200,5.360994140625,-0.022997429227828978,-0.015914320832770317,0.06725625767111777
1772793939553039400,5.371039306640625,-0.02909165444970131,-0.004768639173917472,0.08356690261140465
1772793939563085300,5.381085205078125,-0.015644143855571745,-0.011091668182983993,0.05955342820882797
1772793939573130500,5.391130615234375,-0.010990765091776848,-0.05605564922094345,0.05287175848782062
1772793939583175200,5.401175048828125,-0.0042097266495227815,-0.06159803098002448,0.024186931273341178
1772793939593220400,5.411220458984375,-0.03065875763595104,-0.08975828633112833,-0.022916034554690122
1772793939603265300,5.421265380859375,-0.04702887767851353,-0.10674589895121753,-0.06649331047460437
1772793939613310500,5.431310546875,-0.023275077125430105,-0.12591144013227895,-0.0994561072692275
1772793939623355400,5.44135546875,-0.0031382980257272717,-0.13425534397708253,-0.11539470402672886
1772793939633400300,5.451400390625,0.038404841718077655,-0.13932073760787025,-0.10427928964197634
1772793939643445200,5.4614453125,0.05676233618557453,-0.14610533798038958,-0.09232435569316148
1772793939653490400,5.471490478515625,0.013138298514485358,-0.15259099193895234,-0.07457447172999382
1772793939663535400,5.481535400390625,-0.02394552373290062,-0.1335039045552723,-0.08469912151172757
1772793939673581300,5.491581298828125,-0.04504267229735851,-0.15069443760262802,-0.09383286055997013
1772793939683626200,5.501626220703125,-0.055094110712409015,-0.15374047250133008,-0.09631737085208296
1772793939693671200,5.511671142578125,-0.05697451763153076,-0.1382814576880075,-0.07097133267149329
1772793939703716400,5.52171630859375,-0.0047404725253582,-0.11968885755669324,-0.047990708447992796
1772793939713761300,5.53176123046875,0.03704173667132854,-0.11578839778574183,-0.02330313417613506
1772793939723806500,5.541806396484375,0.0706359632372856,-0.11313026622608303,-0.020745997039228678
1772793939733851100,5.55185107421875,0.08989537498056888,-0.11908413312919437,-0.013305617905408143
1772793939743896300,5.561896240234375,0.09152268392145634,-0.09721435622442513,-0.010786182430386542
1772793939753941200,5.571941162109375,0.08602642459273338,-0.08434709320366382,0.010673661966621876
1772793939763986400,5.581986328125,0.07446808874607086,-0.05826737045366317,0.028414193579554554
1772793939774032400,5.592032470703125,0.07808920185267924,-0.061231152162700885,0.03522416585534811
1772793939784077000,5.6020771484375,0.052395957669615745,-0.031168278060667215,0.04299319242164493
1772793939794122200,5.612122314453125,0.015869769304990768,-0.013409297475591301,0.03932853243425488
1772793939804167200,5.622167236328125,0.009973697003722191,0.002402823358029127,0.03835734931454062
1772793939814212400,5.63221240234375,0.003741524615883827,-0.0010100172927603125,0.05628609697595238
1772793939824257300,5.64225732421875,-0.0015969138026237486,-0.01698741169068962,0.0632294863730669
1772793939834302200,5.65230224609375,0.009383914417028426,-0.01789005961883813,0.07988631440252066
1772793939844347100,5.66234716796875,0.005029810860753059,-0.04200279314480722,0.08502776894420384
1772793939854392300,5.672392333984375,-0.01841594665646553,-0.04056238507814705,0.09442074345052241
1772793939864437200,5.682437255859375,-0.023712884020805357,-0.03782035636100918,0.10070654572173952
1772793939874482200,5.692482177734375,-0.04392155931293964,-0.04707050659684464,0.07948299429863691
1772793939884528000,5.702528076171875,-0.06592997750341892,-0.03489696146128699,0.10404635766893625
1772793939894573300,5.7125732421875,-0.03608370529413223,-0.059924818804487585,0.0919356486365199
1772793939904618200,5.7226181640625,-0.0004348842859268188,-0.05243336707055568,0.1277991353087127
1772793939914663400,5.732663330078125,0.022571897292137145,-0.04753182223197072,0.11946429155319928
1772793939924708400,5.742708251953125,0.050855157968401905,-0.030329891007766126,0.11774638171941042
1772793939934753300,5.752753173828125,0.07213175475299358,-0.039490298867225646,0.10525836380720138
1772793939944798200,5.762798095703125,0.09656652330756187,-0.01819642215427011,0.09444850824028253
1772793939954843400,5.772843505859375,0.10939619426429271,-0.02814838225021958,0.06812836433053017
1772793939964888300,5.782888427734375,0.10486731866300106,-0.02608684661053121,0.0425325891725719
1772793939974933500,5.79293359375,0.09025017976760864,-0.040490196624770755,0.04604132794588804
1772793939984978200,5.802978271484375,0.07379881118237971,-0.022708273555524645,0.038653848043084145
1772793939995024100,5.813024169921875,0.06961772610545158,-0.02900065169800073,0.04245689358785748
1772793940005069300,5.8230693359375,0.0684627108514309,-0.03854629601538181,0.0468828933365643
1772793940015114200,5.8331142578125,0.07400631645321845,-0.04718154748957604,0.04843786769360304
1772793940025159400,5.843159423828125,0.05141922159194946,-0.06557586683612317,0.048429684387147426
1772793940035204000,5.8532041015625,0.04420680599510669,-0.0920565350698307,0.018939386008679865
1772793940045249300,5.863249267578125,-0.0018570260435342787,-0.09768153534475714,0.005002776723355054
1772793940055294200,5.873294189453125,-0.04139408666193485,-0.08197714920192957,-0.02785246804356575
1772793940065339400,5.88333935546875,-0.07973755358159541,-0.06722706810925155,-0.04168094077929854
1772793940075384300,5.89338427734375,-0.07595394338965415,-0.10386289086081087,-0.02708221432343125
1772793940085429200,5.90342919921875,-0.0257850141197443,-0.09350234996397047,-0.02106163885965943
1772793940095475200,5.91347509765625,0.011322773525118826,-0.10717007918003946,-0.018915420611202716
1772793940105520000,5.92352001953125,0.01709142005443573,-0.11631335324160753,-0.03525821425542235
1772793940115565300,5.9335654296875,0.011080196940898894,-0.11615337690692394,-0.07051628238037227
1772793940125610200,5.9436103515625,0.027855975174903867,-0.13155790332034228,-0.11291486990973353
1772793940135655200,5.9536552734375,0.0129360539406538,-0.1446222232831642,-0.12948708839565515
1772793940145700000,5.9637001953125,0.041806759116053575,-0.16617756394390015,-0.14698928120806812
1772793940155745300,5.973745361328125,0.06874795753359794,-0.16062884377557785,-0.19321707163676619
1772793940165790200,5.983790283203125,0.11014379776120185,-0.17498229023348538,-0.09429740933179855
1772793940175835400,5.99383544921875,0.1259673898369074,-0.1433975403264165,-0.02558715346008539
1772793940185880000,6.003880126953125,0.12468202620148658,-0.0850976923752576,-0.017532003428786993
1772793940195925200,6.01392529296875,0.13171207096874712,-0.06302537863571196,0.029843203469365833
1772793940205971200,6.02397119140625,0.1132265662074089,-0.05175261826477945,0.04412307323440909
1772793940216016400,6.034016357421875,0.06902677447497844,-0.04469331087041646,0.05457242492586374
1772793940226061300,6.044061279296875,0.042399464312195774,-0.07907806675955653,0.016503975555300712
1772793940236106500,6.0541064453125,0.016547814697027204,-0.0863019901311025,-0.01119885488450527
1772793940246151400,6.0641513671875,-0.006201192727684974,-0.1348091602012515,-0.03615720892176032
1772793940256196400,6.0741962890625,-0.014866145220398901,-0.12573303309176118,-0.05622077665477991
1772793940266241300,6.0842412109375,-0.053935588327050206,-0.1108468314640224,-0.0377820336446166
1772793940276286500,6.094286376953125,-0.08531038527786731,-0.07639620726443827,-0.0004966974757611751
1772793940286331400,6.104331298828125,-0.1229600247144699,-0.0432374129736796,0.033399726907163856
1772793940296376600,6.11437646484375,-0.12222235808968543,-0.021381774192117155,0.07056582061052322
1772793940306421200,6.124421142578125,-0.1095838257908821,-0.01568845792133361,0.06502382244393229
1772793940316467200,6.13446728515625,-0.10031973836123943,-0.005153400707803666,0.08674202551618218
1772793940326512400,6.144512451171875,-0.08454524612426757,0.002314670150540769,0.059491176627576345
1772793940336557300,6.154557373046875,-0.06026712943613529,-0.023630649097450076,0.043004736728966236
1772793940346602500,6.1646025390625,-0.0456400536686182,-0.033959150888212025,0.030995442244410514
1772793940356647200,6.174647216796875,-0.023581366595625874,-0.03539283695314079,0.011158084482699632
1772793940366692400,6.1846923828125,0.0026367782443761823,-0.05173705536946654,0.013974457077682018
1772793940376737300,6.1947373046875,0.049509004056453705,-0.05193955567162484,0.01887318890467286
1772793940386782500,6.204782470703125,0.07667816601097584,-0.043996962636709214,0.0663524406991899
1772793940396827400,6.214827392578125,0.09580021511018276,-0.04751757451090961,0.08154767174348235
1772793940406872300,6.224872314453125,0.10174363368451594,-0.037958997646719214,0.0916669146977365
1772793940416917200,6.234917236328125,0.07743570638000964,-0.023575338713638483,0.09629165188893675
1772793940426963500,6.24496337890625,0.08518354402780533,-0.026411183194071052,0.11998130116462707
1772793940437008400,6.25500830078125,0.1110176579862833,-0.0223920106805861,0.10994242997020483
1772793940447053300,6.26505322265625,0.09935936889648436,-0.039503487142361696,0.133369336656481
1772793940457098200,6.27509814453125,0.07090951948165893,-0.042991584986448284,0.1089316454924643
1772793940467143400,6.285143310546875,0.020336685585975647,-0.023488792941346762,0.08175283892676234
1772793940477188400,6.295188232421875,-0.04252338295280933,-0.028535993328317997,0.06674100162535905
1772793940487233300,6.3052333984375,-0.069786652931571,-0.023459566846862435,0.06980141210928559
1772793940497278500,6.315278564453125,-0.09323065688312053,-0.025031163545139134,0.07253025255128741
1772793940507323400,6.325323486328125,-0.08876315608024597,-0.007766980739682913,0.08494125970453023
1772793940517368300,6.335368408203125,-0.10200199235975742,-0.015004603843018412,0.07179346270933747
1772793940527414300,6.345414306640625,-0.0914238997220993,-0.012992058444209396,0.07252119246199727
1772793940537459500,6.35545947265625,-0.06658639558553696,0.0020740663276985287,0.09877908479049802
1772793940547504400,6.36550439453125,-0.05026595990359783,-0.003331738238595426,0.11208382591307163
1772793940557549300,6.37554931640625,-0.07489186711609364,-0.00672010203525424,0.10315993022322655
1772793940567594200,6.38559423828125,-0.1086386538952589,-0.012611315498314797,0.06217997732013464
1772793940577639400,6.395639404296875,-0.14896598810851572,-0.039287323641031976,0.007932984956353903
1772793940587684400,6.405684326171875,-0.10537877531647681,-0.03431395567525178,-0.04658478717282414
1772793940597729500,6.4157294921875,-0.02792027258276939,-0.035043146732635796,-0.03787628779932856
1772793940607774200,6.425774169921875,0.0568552751660347,-0.04371551534682512,0.005425532180070877
1772793940617819400,6.4358193359375,0.09183481861054897,-0.07056253267489374,0.03227656809613109
1772793940627864300,6.4458642578125,0.09334230056405067,-0.0806913471750915,0.0033845278717577454
1772793940637910300,6.45591015625,0.1021335097849369,-0.10871204792503267,-0.09283201295435428
1772793940647955500,6.46595556640625,0.14509528415501116,-0.1267957669524476,-0.20168504025265574
1772793940658000400,6.47600048828125,0.13448153568208218,-0.15208382786810398,-0.18434037608951329
1772793940668045300,6.48604541015625,0.06234861188530921,-0.17883670063931495,-0.12584303280487655
1772793940678090200,6.49609033203125,-0.032362054422497746,-0.13301771020721642,-0.12632833210378885
1772793940688135400,6.506135498046875,-0.11366437310278416,-0.07314126058910042,-0.1039677394747734
1772793940698180400,6.516180419921875,-0.1968248868703842,-0.05881853806301951,-0.13624693791940806
1772793940708225300,6.526225341796875,-0.18187749310731888,-0.06263312791511416,-0.17523922413662074
1772793940718270200,6.536270263671875,-0.14476152215600013,-0.11084328780006616,-0.1881403528943658
1772793940728315400,6.5463154296875,-0.05539689305126667,-0.14783442679531872,-0.20803864706307648
1772793940738360300,6.5563603515625,0.009683189624547959,-0.1699266142791137,-0.1881742551639676
1772793940748406500,6.566406494140625,0.01549625981748104,-0.18375125108994542,-0.14106091407239435
1772793940758451500,6.576451416015625,0.022438626301288605,-0.1468344559725374,-0.09152560653090476
1772793940768496400,6.586496337890625,0.0644669192135334,-0.11862747540287673,-0.03047054158747196
1772793940778541300,6.596541259765625,0.13647183271646499,-0.09176964441984892,-0.016063830572366714
1772793940788586500,6.60658642578125,0.19172259529531002,-0.08099354499205946,0.04532864963188767
1772793940798631400,6.61663134765625,0.22864567402303218,-0.1088567536253482,0.007688216415047645
1772793940808676400,6.62667626953125,0.23273206655383108,-0.11887231700941919,-0.012660013478249311
1772793940818721300,6.63672119140625,0.17956103285849093,-0.10462773775346576,-0.07118424476981162
1772793940828766500,6.646766357421875,0.1626180813640356,-0.09622947337292134,-0.08436930503547191
1772793940838811400,6.656811279296875,0.17290742018818855,-0.07371478616073728,-0.014589666366577148
1772793940848856600,6.666856689453125,0.22067337996959685,-0.02633987152352929,0.04865896309837699
1772793940858902500,6.676902587890625,0.22898761932849881,0.011229323088005184,0.11789572706222534
1772793940868947200,6.686947265625,0.22164485535025596,0.04580430431962013,0.16195479514971375
1772793940878992400,6.696992431640625,0.1791395925760269,0.06971526819579303,0.1765228342063725
1772793940889037300,6.707037353515625,0.14824994879364967,0.06133797353804111,0.18861103914603589
1772793940899082500,6.71708251953125,0.11524433577060698,0.07400339384377003,0.20799027787670493
1772793940909127200,6.727127197265625,0.060578095081448555,0.06292728855609893,0.19635668483674526
1772793940919172400,6.73717236328125,0.07660217816531657,0.052301886177994306,0.20691183499023316
1772793940929217300,6.74721728515625,0.04144260197877884,0.04058182043097913,0.19928908502683043
1772793940939262500,6.757262451171875,-0.02501344522535801,0.03546929972283542,0.21383198964223266
1772793940949307400,6.767307373046875,-0.04824468320906162,0.038489414728991686,0.2234030971944332
1772793940959352300,6.777352294921875,-0.08697802622914313,0.07185151303950697,0.2260501045718789
1772793940969398300,6.787398193359375,-0.10494155294299125,0.07614888143986463,0.22920184660106896
1772793940979443200,6.797443115234375,-0.07845160542428493,0.06815547153316438,0.24377412344142793
1772793940989488400,6.80748828125,-0.07778641951382159,0.0825471676422283,0.2197055578507483
1772793940999533300,6.817533203125,-0.056091305056214326,0.08568933812547475,0.17750146998018027
1772793941009578500,6.82757861328125,0.010120996519923209,0.08378248159084468,0.1456456115141511
1772793941019623200,6.837623046875,0.05208265393674373,0.05114460590165108,0.14143822295218705
1772793941029668400,6.84766845703125,0.040376434051990505,0.017180924968793986,0.07694339281842112
1772793941039713300,6.85771337890625,0.03318272315561771,-0.0014737988796085118,0.03638429567590356
1772793941049758500,6.867758544921875,0.05288754057884216,-0.01752294333949685,0.006127689100056886
1772793941059803100,6.87780322265625,0.07009878762066364,-0.05033909820504486,-0.0035480478703975677
1772793941069848300,6.887848388671875,0.035703181543946264,-0.06211367061827332,0.001683861433714628
1772793941079894300,6.897894287109375,0.016947627669572828,-0.08415361645817757,0.0002529518477618694
1772793941089939500,6.907939453125,-0.009207973328232765,-0.09742686646394431,-0.011546791539341211
1772793941099984400,6.917984375,0.03129004127681255,-0.100203491570428,-0.016810557286441326
1772793941110029600,6.928029541015625,0.07725216650664805,-0.11720891384184359,-0.004415916746109724
1772793941120074200,6.93807421875,0.12082476625144481,-0.13938713564127683,-0.035364304978400464
1772793941130119400,6.948119384765625,0.11704466319084167,-0.14552863407097755,-0.04257321344390511
1772793941140164400,6.958164306640625,0.06993102983832358,-0.15460465158261358,-0.08972790945917368
1772793941150209500,6.96820947265625,0.06360065777301788,-0.15425086970888077,-0.11253916846513748
1772793941160254200,6.978254150390625,0.04249707946777344,-0.13650610031224786,-0.10310527742654084
1772793941170299400,6.98829931640625,0.013948445853590964,-0.12061221947930753,-0.08674611716940998
1772793941180344300,6.99834423828125,0.03016951281428337,-0.11535612558200954,-0.07168254968076944
1772793941190390300,7.008390380859375,0.04046703494489193,-0.11647413329388946,-0.07003565925657748
1772793941200436000,7.01843603515625,0.0214192201256752,-0.12133143713194876,-0.0745101743221283
1772793941210480600,7.028480712890625,0.0033411271214485168,-0.1200368307441473,-0.0638033407382667
1772793941220525800,7.03852587890625,-0.005974398234486579,-0.09573138765767217,-0.03139744717404246
1772793941230570800,7.04857080078125,-0.003587795358896255,-0.08404880437683314,-0.008407470600306987
1772793941240616000,7.058615966796875,-0.015301614028215407,-0.07939279526453465,0.010095715948194264
1772793941250660600,7.06866064453125,-0.012874679142236709,-0.08317742836978285,0.00525178304836154
1772793941260705800,7.078705810546875,0.021346154889464376,-0.06535659806225448,-0.005397621259838343
1772793941270750700,7.088750732421875,0.05329787494540214,-0.05429631139822304,0.034291122788935896
1772793941280796000,7.0987958984375,0.08885141888558865,-0.03535893468353897,0.08872107050418854
1772793941290840800,7.1088408203125,0.07285889998376369,-0.004996018189005553,0.11703019627407192
1772793941300886800,7.11888671875,0.06859773540794849,0.0030825492504984136,0.10758782966807484
1772793941310931700,7.128931640625,0.031949966490268704,0.010719254674017428,0.08713964653164148
1772793941320976600,7.1389765625,0.028864275434613226,-0.0005177402637898922,0.03220920194834471
1772793941331021800,7.149021728515625,0.08252104682028293,-0.010460676803067327,0.014722937357425688
1772793941341066800,7.159066650390625,0.1319569856405258,-0.035858591301366684,0.0300374108672142
1772793941351112000,7.16911181640625,0.1787918020516634,-0.058345002267137167,0.08038228122591971
1772793941361156600,7.179156494140625,0.19461071795225143,-0.05960128593854606,0.11053615807965397
1772793941371201800,7.189201904296875,0.18344634985923766,-0.07480345818027853,0.12309066535681486
1772793941381246700,7.199246826171875,0.13155775718986987,-0.07656988333091139,0.10239435267820954
1772793941391292000,7.2092919921875,0.15461188504099846,-0.07537139426134526,0.07431026783585548
1772793941401336600,7.219336669921875,0.11990531331896781,-0.052586804066598415,0.06785889973938465
