time,seconds_elapsed,z,y,x
1772793934249224200,0.06722412109375,0.12047246843576431,0.41598746180534363,-0.5065791010856628
1772793934259269000,0.07726904296875,0.10371372103691101,0.4274773895740509,-0.49445655941963196
1772793934269315000,0.087315185546875,0.09216971695423126,0.42107221484184265,-0.4695062041282654
1772793934279360000,0.097360107421875,0.08036606758832932,0.41475746035575867,-0.4436713755130768
1772793934289405200,0.1074052734375,0.06260784715414047,0.4130629003047943,-0.4253261685371399
1772793934299450000,0.1174501953125,0.046917855739593506,0.4108164310455322,-0.4234776794910431
1772793934309495300,0.127495361328125,0.03973690792918205,0.42205339670181274,-0.4409536123275757
1772793934319540000,0.1375400390625,0.04130600765347481,0.4448288679122925,-0.4704497456550598
1772793934329585200,0.147585205078125,0.058926548808813095,0.4548407793045044,-0.5102056264877319
1772793934339630000,0.157630126953125,0.07033661007881165,0.44400566816329956,-0.554861307144165
1772793934349675300,0.16767529296875,0.07367648184299469,0.4345240294933319,-0.6058981418609619
1772793934359721200,0.17772119140625,0.07137393206357956,0.42903822660446167,-0.6507517099380493
1772793934369766000,0.187765869140625,0.06638582795858383,0.4221148192882538,-0.702324390411377
1772793934379811000,0.19781103515625,0.058775562793016434,0.4032496213912964,-0.7472407817840576
1772793934389856000,0.20785595703125,0.04816073551774025,0.3962242007255554,-0.7791368961334229
1772793934399901200,0.217901123046875,0.04094485938549042,0.4103741943836212,-0.8072018027305603
1772793934409946000,0.227946044921875,0.03766917064785957,0.44318220019340515,-0.836593508720398
1772793934419991000,0.237990966796875,0.03931581974029541,0.4796905219554901,-0.8842786550521851
1772793934430036000,0.248035888671875,0.053430307656526566,0.5032200813293457,-0.9450730681419373
1772793934440081200,0.2580810546875,0.05297359451651573,0.49521327018737793,-1.0030604600906372
1772793934450127000,0.268127197265625,0.03481296822428703,0.45054298639297485,-1.038955807685852
1772793934460172300,0.27817236328125,0.009373650886118412,0.40906789898872375,-1.0375323295593262
1772793934470217000,0.288217041015625,-0.013181991875171661,0.3869319558143616,-1.0077335834503174
1772793934480262100,0.29826220703125,-0.03583138808608055,0.3822137117385864,-0.9661646485328674
1772793934490307000,0.30830712890625,-0.05693880096077919,0.3936269283294678,-0.9258846044540405
1772793934500352300,0.318352294921875,-0.0721510648727417,0.4090557396411896,-0.9042360186576843
1772793934510397200,0.328397216796875,-0.0811256468296051,0.4072522222995758,-0.9064491391181946
1772793934520442000,0.338442138671875,-0.08918381482362747,0.38378196954727173,-0.9154247641563416
1772793934530488000,0.348488037109375,-0.11168326437473297,0.34459224343299866,-0.9141677618026733
1772793934540533000,0.358532958984375,-0.15686936676502228,0.3086358606815338,-0.8743240237236023
1772793934550578200,0.368578125,-0.19690467417240143,0.28483280539512634,-0.7975820899009705
1772793934560623000,0.378623046875,-0.23141475021839142,0.2639763057231903,-0.7014528512954712
1772793934570668300,0.388668212890625,-0.2611393630504608,0.24227018654346466,-0.6119743585586548
1772793934580713000,0.398712890625,-0.2813654839992523,0.22598619759082794,-0.5382689833641052
1772793934590758100,0.408758056640625,-0.2877376079559326,0.22453103959560394,-0.4863099455833435
1772793934600803000,0.418802978515625,-0.2881467044353485,0.23607172071933746,-0.4648832678794861
1772793934610848300,0.42884814453125,-0.2784821093082428,0.25600865483283997,-0.4769020974636078
1772793934620894200,0.438894287109375,-0.2579139769077301,0.28185513615608215,-0.5049397945404053
1772793934630939000,0.44893896484375,-0.22723384201526642,0.3322591781616211,-0.5617063641548157
1772793934640984000,0.458984130859375,-0.19430702924728394,0.41928884387016296,-0.6459416151046753
1772793934651029000,0.469029052734375,-0.15480436384677887,0.5490289330482483,-0.7716113924980164
1772793934661074200,0.47907421875,-0.10953095555305481,0.7298703789710999,-0.9579399824142456
1772793934671119000,0.489119140625,-0.05230095610022545,0.9663295149803162,-1.2011511325836182
1772793934681164000,0.4991640625,0.027271684259176254,1.2278642654418945,-1.4813997745513916
1772793934691209000,0.509208984375,0.11715257167816162,1.475592851638794,-1.7782835960388184
1772793934701254100,0.519254150390625,0.19034050405025482,1.7039108276367188,-2.0739076137542725
1772793934711300000,0.529300048828125,0.22532406449317932,1.81866455078125,-2.3494832515716553
1772793934721345300,0.53934521484375,0.22161345183849335,1.7682878971099854,-2.5484304428100586
1772793934731390000,0.549389892578125,0.20924413204193115,1.6440125703811646,-2.6422061920166016
1772793934741435100,0.55943505859375,0.18876470625400543,1.5044071674346924,-2.6435232162475586
1772793934751480000,0.56947998046875,0.16064918041229248,1.3825074434280396,-2.6111931800842285
1772793934761525200,0.579525146484375,0.14071592688560486,1.284204125404358,-2.5268936157226562
1772793934771570200,0.589570068359375,0.12536387145519257,1.2347756624221802,-2.446779489517212
1772793934781615000,0.599614990234375,0.090887650847435,1.193009376525879,-2.3796257972717285
1772793934791660000,0.609659912109375,0.028157690539956093,1.1282202005386353,-2.3398549556732178
1772793934801706000,0.6197060546875,-0.06310885399580002,0.9839222431182861,-2.3352677822113037
1772793934811751200,0.629751220703125,-0.1501939445734024,0.7719184160232544,-2.346585988998413
1772793934821796000,0.639796142578125,-0.20385265350341797,0.6071365475654602,-2.328409433364868
1772793934831841000,0.649841064453125,-0.2226649522781372,0.5133599638938904,-2.2550904750823975
1772793934841886000,0.659885986328125,-0.2272055745124817,0.45760005712509155,-2.147735834121704
1772793934851931100,0.66993115234375,-0.2290002703666687,0.40736937522888184,-2.001445770263672
1772793934861976000,0.67997607421875,-0.24306659400463104,0.3625921308994293,-1.8558969497680664
1772793934872021200,0.690021240234375,-0.22945384681224823,0.2608061134815216,-1.7176892757415771
1772793934882066000,0.70006591796875,-0.21551857888698578,0.064474917948246,-1.6850759983062744
1772793934892112100,0.710112060546875,-0.2084161937236786,-0.23182810842990875,-1.7851130962371826
1772793934902157000,0.720156982421875,-0.185153529047966,-0.5729250311851501,-1.9925743341445923
1772793934912202200,0.7302021484375,-0.13589756190776825,-0.8740106225013733,-2.2370705604553223
1772793934922247200,0.7402470703125,-0.06318976730108261,-1.065950632095337,-2.453566789627075
1772793934932292000,0.7502919921875,0.021373318508267403,-1.1732394695281982,-2.6000170707702637
1772793934942337000,0.7603369140625,0.10081642121076584,-1.233826994895935,-2.670849323272705
1772793934952382200,0.77038232421875,0.18097011744976044,-1.218677043914795,-2.6317477226257324
1772793934962427100,0.78042724609375,0.24255280196666718,-1.1249927282333374,-2.535066843032837
1772793934972472000,0.79047216796875,0.33336421847343445,-0.9761382937431335,-2.382634401321411
1772793934982518300,0.800518310546875,0.42390313744544983,-0.7628288865089417,-2.2191338539123535
1772793934992563000,0.81056298828125,0.5045830607414246,-0.5244410634040833,-2.0557405948638916
1772793935002608000,0.820608154296875,0.5628701448440552,-0.3225129544734955,-1.9014043807983398
1772793935012653000,0.830653076171875,0.5779337882995605,-0.19155652821063995,-1.7397390604019165
1772793935022698200,0.8406982421875,0.5698351263999939,-0.14041030406951904,-1.5142171382904053
1772793935032743200,0.8507431640625,0.56272953748703,-0.06195143982768059,-1.1914939880371094
1772793935042788000,0.8607880859375,0.6062729358673096,0.12435358017683029,-0.7499640583992004
1772793935052833000,0.8708330078125,0.5948991179466248,0.06840641796588898,-0.3216630518436432
1772793935062878200,0.880878173828125,0.47093459963798523,0.02346055954694748,0.039900150150060654
1772793935072924200,0.890924072265625,0.34661582112312317,0.05963507294654846,0.33323776721954346
1772793935082969000,0.900968994140625,0.28601378202438354,0.09255807846784592,0.5573683381080627
1772793935093014000,0.911013916015625,0.30243057012557983,0.09378446638584137,0.7460184097290039
1772793935103059000,0.921058837890625,0.34228208661079407,0.09240368753671646,0.9533487558364868
1772793935113104100,0.931104248046875,0.3545888066291809,0.0618167519569397,1.1114463806152344
1772793935123149000,0.941149169921875,0.39268240332603455,0.00012612110003829002,1.2721091508865356
1772793935133194200,0.9511943359375,0.47271570563316345,-0.07866909354925156,1.410362958908081
1772793935143239000,0.961239013671875,0.5687535405158997,-0.11833757162094116,1.438583493232727
1772793935153284000,0.9712841796875,0.6671804785728455,-0.08950059860944748,1.320675015449524
1772793935163330000,0.981330078125,0.790846049785614,0.02416406199336052,1.105735182762146
1772793935173375200,0.991375244140625,0.9534514546394348,0.26135823130607605,0.8533617258071899
1772793935183420200,1.001420166015625,1.1438634395599365,0.6238226890563965,0.6309582591056824
1772793935193465600,1.011465576171875,1.3163378238677979,1.0356196165084839,0.464361310005188
1772793935203510500,1.021510498046875,1.4481555223464966,1.3578839302062988,0.3488447070121765
1772793935213555500,1.031555419921875,1.5083394050598145,1.4790641069412231,0.21961908042430878
1772793935223600600,1.0416005859375,1.4826247692108154,1.4236993789672852,0.030837872996926308
1772793935233645600,1.0516455078125,1.3783388137817383,1.2589846849441528,-0.2033541202545166
1772793935243690500,1.0616904296875,1.2486472129821777,1.1025046110153198,-0.4285834729671478
1772793935253736400,1.071736328125,1.1155633926391602,1.0124245882034302,-0.5947353839874268
1772793935263781600,1.08178173828125,0.9644625186920166,1.0182639360427856,-0.6906182169914246
1772793935273826600,1.09182666015625,0.7794183492660522,1.0733641386032104,-0.769568920135498
1772793935283871700,1.101871826171875,0.594587504863739,1.0792239904403687,-0.905895471572876
1772793935293916700,1.111916748046875,0.4411601722240448,0.9298822283744812,-1.0984251499176025
1772793935303961600,1.121961669921875,0.30477699637413025,0.5307355523109436,-1.353747844696045
1772793935314006500,1.132006591796875,0.16593867540359497,-0.08445465564727783,-1.6182010173797607
1772793935324051700,1.1420517578125,0.026223940774798393,-0.8134138584136963,-1.8340591192245483
1772793935334096600,1.1520966796875,-0.11587434262037277,-1.6411049365997314,-1.9774143695831299
1772793935344142600,1.162142578125,-0.3073364496231079,-2.5284440517425537,-2.010392189025879
1772793935354187500,1.1721875,-0.6186253428459167,-3.17441987991333,-1.8689640760421753
1772793935364232400,1.182232421875,-0.8822968602180481,-3.219252586364746,-1.4053372144699097
1772793935374277600,1.192277587890625,-0.9330649971961975,-2.7191884517669678,-0.6491613984107971
1772793935384322600,1.202322509765625,-0.7500755190849304,-2.0086045265197754,0.19666916131973267
1772793935394367700,1.21236767578125,-0.4261637330055237,-1.1579539775848389,0.9597920775413513
1772793935404412400,1.222412353515625,-0.04770989343523979,-0.292967289686203,1.4644004106521606
1772793935414457600,1.23245751953125,0.34126153588294983,0.41452062129974365,1.6260290145874023
1772793935424502500,1.24250244140625,0.7071364521980286,0.9065114855766296,1.5223171710968018
1772793935434547700,1.252547607421875,1.0403313636779785,1.2074670791625977,1.283931851387024
1772793935444593700,1.26259375,1.2850884199142456,1.3737874031066895,0.9806839227676392
1772793935454638600,1.272638671875,1.4086508750915527,1.438159465789795,0.6871833205223083
1772793935464683500,1.28268359375,1.4252488613128662,1.4394333362579346,0.44810858368873596
1772793935474728700,1.292728759765625,1.356765627861023,1.3902722597122192,0.28159576654434204
1772793935484773600,1.302773681640625,1.2267295122146606,1.2840958833694458,0.1723092645406723
1772793935494818600,1.312818603515625,1.0487709045410156,1.1078859567642212,0.10565593093633652
1772793935504863500,1.322863525390625,0.8367876410484314,0.8864827752113342,0.07380322366952896
1772793935514908700,1.33290869140625,0.6167095899581909,0.647620439529419,0.060832034796476364
1772793935524953600,1.34295361328125,0.4003291428089142,0.4036845266819,0.04822135344147682
1772793935534999600,1.35299951171875,0.20048977434635162,0.1696605682373047,0.017970772460103035
1772793935545044700,1.363044677734375,0.037354130297899246,-0.03842192515730858,-0.04708458483219147
1772793935555089700,1.373089599609375,-0.06803993880748749,-0.20004624128341675,-0.14426173269748688
1772793935565134600,1.383134521484375,-0.12838663160800934,-0.3237363398075104,-0.272514671087265
1772793935575179500,1.393179443359375,-0.1607789397239685,-0.4314151108264923,-0.428379088640213
1772793935585224700,1.403224609375,-0.175748810172081,-0.5227362513542175,-0.5817157030105591
1772793935595269600,1.41326953125,-0.18462273478507996,-0.6139767169952393,-0.7204581499099731
1772793935605314600,1.423314453125,-0.19547538459300995,-0.7259855270385742,-0.8390012979507446
1772793935615359500,1.433359375,-0.2139902114868164,-0.8224644064903259,-0.913463294506073
1772793935625405400,1.443405517578125,-0.23380047082901,-0.8793114423751831,-0.9141050577163696
1772793935635450600,1.45345068359375,-0.27726832032203674,-0.88506680727005,-0.8501055836677551
1772793935645495600,1.46349560546875,-0.33870816230773926,-0.8428297638893127,-0.7511972188949585
1772793935655540700,1.473540771484375,-0.3866293430328369,-0.7680535316467285,-0.6370996832847595
1772793935665585400,1.48358544921875,-0.40101632475852966,-0.6611080765724182,-0.4939320385456085
1772793935675630600,1.493630615234375,-0.3931637406349182,-0.5320382714271545,-0.36457696557044983
1772793935685675500,1.503675537109375,-0.3642905354499817,-0.4253190755844116,-0.27671900391578674
1772793935695720700,1.513720703125,-0.31046298146247864,-0.3417479991912842,-0.21833664178848267
1772793935705765400,1.523765380859375,-0.24970965087413788,-0.2734152674674988,-0.18729159235954285
1772793935715811600,1.5338115234375,-0.1815340518951416,-0.20960727334022522,-0.1627202033996582
1772793935725856500,1.5438564453125,-0.09313837438821793,-0.11994308978319168,-0.12507449090480804
1772793935735901700,1.553901611328125,-0.00026675761910155416,-0.030886182561516762,-0.0831984207034111
1772793935745946600,1.563946533203125,0.07693961262702942,0.03145069628953934,-0.03879047557711601
1772793935755991800,1.57399169921875,0.128187358379364,0.08303932100534439,0.004023302346467972
1772793935766036500,1.584036376953125,0.1467956155538559,0.12494568526744843,0.04458770528435707
1772793935776081700,1.59408154296875,0.14219526946544647,0.1584296077489853,0.08014064282178879
1772793935786126600,1.604126708984375,0.1267271190881729,0.16204117238521576,0.10779029875993729
1772793935796171800,1.614171875,0.10495391488075256,0.15679579973220825,0.13069774210453033
1772793935806216700,1.624216796875,0.08137591183185577,0.13276873528957367,0.14453890919685364
1772793935816262700,1.6342626953125,0.0587875172495842,0.09629487991333008,0.14464011788368225
1772793935826307600,1.6443076171875,0.045059964060783386,0.061698202043771744,0.13497112691402435
1772793935836352500,1.6543525390625,0.032345231622457504,0.024437911808490753,0.11283546686172485
1772793935846397700,1.664397705078125,0.013174735009670258,-0.013711070641875267,0.08030148595571518
1772793935856442600,1.674442626953125,-0.006902037188410759,-0.05096150189638138,0.04276716336607933
1772793935866487600,1.684487548828125,-0.034376539289951324,-0.08559431880712509,-0.0058570983819663525
1772793935876532500,1.694532470703125,-0.048998892307281494,-0.11415272951126099,-0.04643302038311958
1772793935886577700,1.70457763671875,-0.055690351873636246,-0.12166427075862885,-0.07132334262132645
1772793935896622600,1.71462255859375,-0.0513419434428215,-0.12676769495010376,-0.08898942172527313
1772793935906668500,1.72466845703125,-0.051470354199409485,-0.13203953206539154,-0.09879197180271149
1772793935916713700,1.734713623046875,-0.048275358974933624,-0.13906574249267578,-0.10306049138307571
1772793935926758400,1.74475830078125,-0.044055238366127014,-0.1454649120569229,-0.10371602326631546
1772793935936803600,1.754803466796875,-0.04024239256978035,-0.15941482782363892,-0.09837798029184341
1772793935946848500,1.7648486328125,-0.04454557225108147,-0.15387491881847382,-0.08810654282569885
1772793935956893700,1.774893798828125,-0.056920215487480164,-0.1183725893497467,-0.07766775041818619
1772793935966938400,1.7849384765625,-0.06637337803840637,-0.06857195496559143,-0.06614535301923752
1772793935976983600,1.794983642578125,-0.06884452700614929,-0.024905432015657425,-0.061982035636901855
1772793935987028500,1.805028564453125,-0.07104217261075974,0.014476818963885307,-0.07296057045459747
1772793935997074700,1.81507470703125,-0.0645001232624054,0.040936924517154694,-0.0950232595205307
1772793936007119600,1.82511962890625,-0.04397353157401085,0.05144313722848892,-0.09342145174741745
1772793936017164800,1.835164794921875,-0.02569039911031723,0.06309552490711212,-0.09247016906738281
1772793936027209500,1.84520947265625,-0.01703217439353466,0.061781611293554306,-0.089761883020401
1772793936037254700,1.855254638671875,-0.008409925736486912,0.06279308348894119,-0.08361291140317917
1772793936047299600,1.865299560546875,0.00561824906617403,0.06543544679880142,-0.06921814382076263
1772793936057344800,1.8753447265625,0.018970005214214325,0.08397424221038818,-0.03692678362131119
1772793936067389400,1.885389404296875,0.027646059170365334,0.08811938762664795,-0.014676036313176155
1772793936077434600,1.8954345703125,0.04078449681401253,0.07801828533411026,0.0029612805228680372
1772793936087479600,1.9054794921875,0.045450665056705475,0.05513472110033035,0.006183658726513386
1772793936097525500,1.915525390625,0.04608183354139328,0.03549603745341301,0.00224564247764647
1772793936107570700,1.92557080078125,0.05323505774140358,0.010303305462002754,-0.0027849487960338593
1772793936117615600,1.93561572265625,0.06892719864845276,-0.02262694761157036,-0.009992795065045357
1772793936127660500,1.94566064453125,0.08156495541334152,-0.05129864439368248,-0.007971073500812054
1772793936137705500,1.95570556640625,0.0903821513056755,-0.07318583130836487,0.004495448898524046
1772793936147750700,1.965750732421875,0.0915108248591423,-0.08832618594169617,0.0199529267847538
1772793936157795600,1.975795654296875,0.09230684489011765,-0.09928908944129944,0.03741927072405815
1772793936167840800,1.9858408203125,0.09817427396774292,-0.10778048634529114,0.049660004675388336
1772793936177885400,1.995885498046875,0.1073073148727417,-0.09800268709659576,0.06037736311554909
1772793936187930600,2.0059306640625,0.11090900748968124,-0.07314088195562363,0.06374789029359818
1772793936197976000,2.01597607421875,0.11434661597013474,-0.05357544124126434,0.06578094512224197
1772793936208021200,2.026021240234375,0.11761108040809631,-0.03407185152173042,0.06957721710205078
1772793936218066200,2.036066162109375,0.11594580858945847,-0.011801700107753277,0.07741356641054153
1772793936228111400,2.046111328125,0.11756263673305511,0.007857679389417171,0.0881037563085556
1772793936238156300,2.05615625,0.11515939980745316,0.012973345816135406,0.09807223826646805
1772793936248201200,2.066201171875,0.10625192523002625,0.006042897701263428,0.10166122764348984
1772793936258246100,2.07624609375,0.09423094242811203,0.0026537589728832245,0.11058547347784042
1772793936268291300,2.086291259765625,0.08131358027458191,0.010942548513412476,0.12836919724941254
1772793936278336300,2.096336181640625,0.06743770837783813,0.0088634192943573,0.14157608151435852
1772793936288382200,2.10638232421875,0.05735629424452782,-0.00027647335082292557,0.1537027657032013
1772793936298427400,2.116427490234375,0.04973193258047104,-0.008233998902142048,0.1614357829093933
1772793936308472000,2.12647216796875,0.048834726214408875,-0.02220921963453293,0.1724013239145279
1772793936318517200,2.136517333984375,0.04265459626913071,-0.04171953722834587,0.17337177693843842
1772793936328562200,2.146562255859375,0.038578856736421585,-0.05742666497826576,0.17477652430534363
1772793936338607400,2.156607421875,0.0332685150206089,-0.06618740409612656,0.17154212296009064
1772793936348652000,2.166652099609375,0.021288860589265823,-0.07181517779827118,0.1669812947511673
1772793936358697200,2.176697265625,0.01079494133591652,-0.07616385817527771,0.15606527030467987
1772793936368742100,2.1867421875,-0.0008934331708587706,-0.07625230401754379,0.1507779359817505
1772793936378787300,2.196787353515625,-0.011963128112256527,-0.07015392929315567,0.13580644130706787
1772793936388833300,2.206833251953125,-0.01872066594660282,-0.07487035542726517,0.12056393176317215
1772793936398878200,2.216878173828125,-0.025125036016106606,-0.09302006661891937,0.10293859988451004
1772793936408923100,2.226923095703125,-0.029288021847605705,-0.10037337988615036,0.09049587696790695
1772793936418968300,2.23696826171875,-0.02227858267724514,-0.0991286188364029,0.089055635035038
1772793936429013200,2.24701318359375,-0.015163698233664036,-0.09654773771762848,0.09668803215026855
1772793936439058200,2.25705810546875,-0.010129791684448719,-0.09313222765922546,0.09831415861845016
1772793936449103000,2.26710302734375,-0.010415841825306416,-0.09049013257026672,0.10225655883550644
1772793936459148300,2.277148193359375,-0.021052774041891098,-0.0770784541964531,0.10001790523529053
1772793936469193200,2.287193115234375,-0.0246906578540802,-0.056363530457019806,0.08640885353088379
1772793936479239200,2.2972392578125,-0.02542036399245262,-0.04676203429698944,0.06577254831790924
1772793936489284400,2.307284423828125,-0.027468888089060783,-0.02946915477514267,0.03891072794795036
1772793936499329300,2.317329345703125,-0.02485499531030655,-0.002769100945442915,0.021710701286792755
1772793936509374200,2.327374267578125,-0.02498762123286724,0.028133422136306763,-0.006872205995023251
1772793936519419100,2.337419189453125,-0.01859337091445923,0.04443170130252838,-0.023665567860007286
1772793936529464300,2.34746435546875,-0.0138414790853858,0.047403402626514435,-0.03804629668593407
1772793936539509200,2.35750927734375,-0.005353718064725399,0.03997504711151123,-0.04847496747970581
1772793936549554400,2.367554443359375,0.007613529451191425,0.027321789413690567,-0.05560624226927757
1772793936559599000,2.37759912109375,0.01674497500061989,0.015206802636384964,-0.0431961789727211
1772793936569644300,2.387644287109375,0.030596023425459862,0.013643207028508186,-0.02279905416071415
1772793936579690200,2.397690185546875,0.03430181369185448,0.0006238105706870556,-0.0012346392031759024
1772793936589735200,2.407735107421875,0.04427511245012283,-0.01382514275610447,0.02330387383699417
1772793936599780400,2.4177802734375,0.051800139248371124,-0.026852261275053024,0.04087301343679428
1772793936609825000,2.427824951171875,0.056131262332201004,-0.029087956994771957,0.05547899752855301
1772793936619870200,2.4378701171875,0.06494872272014618,-0.028297530487179756,0.0625411719083786
1772793936629915100,2.4479150390625,0.07731908559799194,-0.02979431301355362,0.06159350648522377
1772793936639960300,2.457960205078125,0.09381470829248428,-0.02908484824001789,0.06064595654606819
1772793936650005200,2.468005126953125,0.09843398630619049,-0.02115243300795555,0.055539071559906006
1772793936660050200,2.47805029296875,0.10177917778491974,-0.011471576057374477,0.05584826320409775
1772793936670095000,2.48809521484375,0.10186811536550522,-0.015887614339590073,0.06630335003137589
1772793936680141300,2.498141357421875,0.0985247790813446,-0.02404274418950081,0.07425288110971451
1772793936690186200,2.508186279296875,0.09416412562131882,-0.027700863778591156,0.08678199350833893
1772793936700231400,2.5182314453125,0.09333162009716034,-0.035388343036174774,0.09913186728954315
1772793936710276000,2.528276123046875,0.09314703196287155,-0.045408349484205246,0.11376084387302399
1772793936720321300,2.5383212890625,0.0866670310497284,-0.059197135269641876,0.12098440527915955
1772793936730366200,2.5483662109375,0.08108688145875931,-0.07538418471813202,0.12930427491664886
1772793936740411400,2.558411376953125,0.0744612067937851,-0.09485135972499847,0.13829031586647034
1772793936750456300,2.568456298828125,0.06409115344285965,-0.11623065173625946,0.14452891051769257
1772793936760501200,2.578501220703125,0.05035855993628502,-0.13122931122779846,0.1517159789800644
1772793936770547200,2.588547119140625,0.0380030982196331,-0.1490456461906433,0.150441974401474
1772793936780592000,2.598592041015625,0.026052961125969887,-0.15944476425647736,0.14925819635391235
1772793936790637300,2.60863720703125,0.013218339532613754,-0.16001223027706146,0.14525718986988068
1772793936800682200,2.61868212890625,-0.0018298521172255278,-0.15284034609794617,0.14542897045612335
1772793936810727200,2.62872705078125,-0.01241237297654152,-0.12633079290390015,0.15918929874897003
1772793936820772000,2.638772216796875,-0.02620301954448223,-0.10574960708618164,0.1617555320262909
1772793936830817300,2.6488173828125,-0.042342863976955414,-0.09220219403505325,0.16163583099842072
1772793936840862200,2.6588623046875,-0.05884194374084473,-0.07873858511447906,0.151412233710289
1772793936850907400,2.668907470703125,-0.06713049858808517,-0.061788998544216156,0.14488308131694794
1772793936860952000,2.6789521484375,-0.07676634937524796,-0.04743269458413124,0.12416607141494751
1772793936870998300,2.688998291015625,-0.08542539179325104,-0.030601058155298233,0.1057467833161354
1772793936881043200,2.699043212890625,-0.09029151499271393,-0.004042683634907007,0.0923694595694542
1772793936891088100,2.709088134765625,-0.09599332511425018,0.017839472740888596,0.0870446190237999
1772793936901133300,2.71913330078125,-0.10225708037614822,0.03334439545869827,0.07884075492620468
1772793936911178200,2.72917822265625,-0.10740551352500916,0.03549331799149513,0.07165638357400894
1772793936921223200,2.73922314453125,-0.11378032714128494,0.03042638674378395,0.06526292860507965
1772793936931268000,2.74926806640625,-0.12275197356939316,0.026508448645472527,0.06361459195613861
1772793936941313300,2.759313232421875,-0.12778589129447937,0.021919820457696915,0.05767866596579552
1772793936951358200,2.769358154296875,-0.13588401675224304,0.015207367949187756,0.05311073362827301
1772793936961403100,2.779403076171875,-0.14013788104057312,0.017954152077436447,0.04945021867752075
1772793936971449000,2.789448974609375,-0.13566669821739197,0.031328871846199036,0.048171333968639374
1772793936981494300,2.799494384765625,-0.12951160967350006,0.03711698576807976,0.052214544266462326
1772793936991539200,2.809539306640625,-0.12242839485406876,0.038137082010507584,0.04347260296344757
1772793937001584400,2.81958447265625,-0.10941911488771439,0.041387736797332764,0.035914815962314606
1772793937011629300,2.82962939453125,-0.09754433482885361,0.04210714250802994,0.03126771003007889
1772793937021674200,2.83967431640625,-0.07719352096319199,0.04199422150850296,0.02038203924894333
1772793937031719200,2.84971923828125,-0.06108357757329941,0.03870074078440666,0.012004926800727844
1772793937041764400,2.859764404296875,-0.04562685638666153,0.047507014125585556,0.005518531892448664
1772793937051809300,2.869809326171875,-0.029512014240026474,0.04928606376051903,0.006885025184601545
1772793937061854200,2.879854248046875,-0.018074803054332733,0.04455761983990669,0.008957231417298317
1772793937071900200,2.889900146484375,-0.006215009838342667,0.03805514797568321,0.011443344876170158
1772793937081945000,2.899945068359375,0.006126078311353922,0.03112666681408882,0.019853074103593826
1772793937091990300,2.909990234375,0.01856572926044464,0.02017151564359665,0.02137361839413643
1772793937102035200,2.92003515625,0.031840790063142776,0.01740928553044796,0.030485888943076134
1772793937112080400,2.930080322265625,0.04869862645864487,0.01694379188120365,0.03474682942032814
1772793937122125000,2.940125,0.06616656482219696,0.013767706230282784,0.03493884205818176
1772793937132170200,2.950170166015625,0.07535283267498016,0.015004199929535389,0.030234798789024353
1772793937142215200,2.960215087890625,0.08474686741828918,0.02021041512489319,0.026227539405226707
1772793937152260400,2.97026025390625,0.09272702783346176,0.021316159516572952,0.019893476739525795
1772793937162305000,2.980304931640625,0.1035381332039833,0.020351562649011612,0.011023552156984806
1772793937172351200,2.990351318359375,0.11250928789377213,0.016086047515273094,0.0017840485088527203
1772793937182396200,3.000396240234375,0.11979835480451584,0.012610090896487236,-0.003675697837024927
1772793937192441300,3.01044140625,0.12537233531475067,0.01022401638329029,-0.011492415331304073
1772793937202486300,3.020486328125,0.12601229548454285,0.010055705904960632,-0.01835538074374199
1772793937212531500,3.030531494140625,0.1281534731388092,0.01414781529456377,-0.022806473076343536
1772793937222576000,3.040576171875,0.1295766681432724,0.008683540858328342,-0.029854794964194298
1772793937232621300,3.050621337890625,0.1331157386302948,0.004346953239291906,-0.029777146875858307
1772793937242666200,3.060666259765625,0.13380470871925354,0.006327013950794935,-0.03224216774106026
1772793937252711400,3.07071142578125,0.1359853297472,0.00796547718346119,-0.03077838569879532
1772793937262757400,3.08075732421875,0.14043228328227997,0.0063675809651613235,-0.03710978478193283
1772793937272802000,3.090802001953125,0.14082027971744537,0.0006173430010676384,-0.040057938545942307
1772793937282847200,3.10084716796875,0.14455483853816986,-0.0068163382820785046,-0.03994715213775635
1772793937292892200,3.11089208984375,0.1467534899711609,-0.007884914055466652,-0.02808036282658577
1772793937302937300,3.120937255859375,0.14601287245750427,-0.006530164275318384,-0.016739023849368095
1772793937312982300,3.130982177734375,0.14673514664173126,-0.0034709626343101263,0.002075555268675089
1772793937323027200,3.141027099609375,0.1442624032497406,0.00008275965228676796,0.012803034856915474
1772793937333072100,3.151072021484375,0.14342853426933289,0.0032247286289930344,0.023172171786427498
1772793937343117300,3.161117431640625,0.14206792414188385,0.0055288951843976974,0.0245711300522089
1772793937353162200,3.171162353515625,0.1377779245376587,0.010832518339157104,0.02595314383506775
1772793937363207400,3.18120751953125,0.1298867017030716,0.015727408230304718,0.025735562667250633
1772793937373253400,3.19125341796875,0.12112141400575638,0.018211783841252327,0.02652747742831707
1772793937383298000,3.201298095703125,0.10583753138780594,0.021373754367232323,0.022466156631708145
1772793937393343200,3.21134326171875,0.09646401554346085,0.016102928668260574,0.018496867269277573
1772793937403388200,3.22138818359375,0.08559352159500122,0.010294307954609394,0.018693674355745316
1772793937413433300,3.231433349609375,0.07735952734947205,-0.0035836580209434032,0.014723517931997776
1772793937423478000,3.24147802734375,0.06334836781024933,-0.01741931214928627,0.015092632733285427
1772793937433523200,3.251523193359375,0.050381749868392944,-0.029150154441595078,0.020510023459792137
1772793937443568000,3.261568115234375,0.03356602042913437,-0.03698304295539856,0.023856552317738533
1772793937453613300,3.27161328125,0.017767321318387985,-0.04768482223153114,0.02737642079591751
1772793937463659300,3.2816591796875,-0.0024082555901259184,-0.06653254479169846,0.020128628239035606
1772793937473704400,3.291704345703125,-0.01726788841187954,-0.09112689644098282,0.02114705741405487
1772793937483749000,3.3017490234375,-0.03563251718878746,-0.10695965588092804,0.01885221153497696
1772793937493794300,3.311794189453125,-0.05291881412267685,-0.10821066051721573,0.018837369978427887
1772793937503839200,3.321839111328125,-0.07082351297140121,-0.09891623258590698,0.02193036675453186
1772793937513884400,3.331884521484375,-0.08139152079820633,-0.07449956983327866,0.02519826963543892
1772793937523929000,3.34192919921875,-0.09120287746191025,-0.043152566999197006,0.031092645600438118
1772793937533974300,3.351974365234375,-0.09338396787643433,-0.017121320590376854,0.03940245881676674
1772793937544019200,3.362019287109375,-0.08912929892539978,0.007306524086743593,0.052792832255363464
1772793937554064400,3.372064453125,-0.08873838186264038,0.02378007024526596,0.06146203726530075
1772793937564110300,3.3821103515625,-0.09133043885231018,0.02984781563282013,0.06513560563325882
1772793937574155300,3.3921552734375,-0.09778432548046112,0.026842691004276276,0.0756760910153389
1772793937584200200,3.4022001953125,-0.10876347124576569,0.02494758740067482,0.0849875658750534
1772793937594245000,3.4122451171875,-0.12733101844787598,0.0199184138327837,0.09550042450428009
1772793937604290300,3.422290283203125,-0.1444852352142334,0.008902246132493019,0.10536504536867142
1772793937614335200,3.432335205078125,-0.16675353050231934,-0.004570907913148403,0.11426045000553131
1772793937624380200,3.442380126953125,-0.1839010864496231,-0.01529332622885704,0.12625160813331604
1772793937634425000,3.452425048828125,-0.20201165974140167,-0.02193709835410118,0.1333300620317459
1772793937644470300,3.46247021484375,-0.21576769649982452,-0.032963383942842484,0.1325438916683197
1772793937654515200,3.47251513671875,-0.22654470801353455,-0.050663866102695465,0.12845148146152496
1772793937664560400,3.482560302734375,-0.2281082421541214,-0.05947519838809967,0.11281128227710724
1772793937674606300,3.4926064453125,-0.2277737557888031,-0.06296873092651367,0.08967427164316177
1772793937684651300,3.5026513671875,-0.22254224121570587,-0.0514225959777832,0.05769183859229088
1772793937694696200,3.5126962890625,-0.21678179502487183,-0.033795759081840515,0.029438845813274384
1772793937704741000,3.5227412109375,-0.20879870653152466,-0.012089131399989128,0.008322641253471375
1772793937714786300,3.532786376953125,-0.20051337778568268,0.006292630918323994,-0.008856830187141895
1772793937724831200,3.542831298828125,-0.19060854613780975,0.0170627199113369,-0.019762475043535233
1772793937734876200,3.552876220703125,-0.18126164376735687,0.027914835140109062,-0.018682029098272324
1772793937744921000,3.562921142578125,-0.17701683938503265,0.029087157920002937,-0.014462783932685852
1772793937754966300,3.57296630859375,-0.1685977727174759,0.0318470224738121,-0.007799942046403885
1772793937765012200,3.58301220703125,-0.1571246087551117,0.029132725670933723,0.002058014739304781
1772793937775057400,3.593057373046875,-0.14840887486934662,0.032042499631643295,0.01839863881468773
1772793937785102000,3.60310205078125,-0.13111165165901184,0.031109323725104332,0.032028429210186005
1772793937795147300,3.613147216796875,-0.11771489679813385,0.023217862471938133,0.03976442292332649
1772793937805192200,3.623192138671875,-0.10597807168960571,0.019800495356321335,0.04644469544291496
1772793937815237400,3.6332373046875,-0.08975598961114883,0.01967945508658886,0.04845055937767029
1772793937825282300,3.6432822265625,-0.07800851762294769,0.01775958202779293,0.045475274324417114
1772793937835327200,3.6533271484375,-0.06472119688987732,0.018409866839647293,0.042270462960004807
1772793937845372200,3.6633720703125,-0.05169115588068962,0.01783915050327778,0.03776119649410248
1772793937855417300,3.673417236328125,-0.0358746238052845,0.012304389849305153,0.03445765748620033
1772793937865463300,3.68346337890625,-0.0246235653758049,0.010431390255689621,0.031514063477516174
1772793937875508200,3.69350830078125,-0.013113935478031635,0.006825115066021681,0.025724243372678757
1772793937885553200,3.70355322265625,-0.006546313874423504,0.00432094419375062,0.025042207911610603
1772793937895598000,3.71359814453125,-0.0028431627433747053,0.0031822058372199535,0.029939109459519386
1772793937905643300,3.723643310546875,0.006308257579803467,-0.0030767552088946104,0.03501642122864723
1772793937915688200,3.733688232421875,0.01297256164252758,-0.020447446033358574,0.040027618408203125
1772793937925733400,3.7437333984375,0.02192823961377144,-0.029596202075481415,0.04054693132638931
1772793937935778000,3.753778076171875,0.02937704510986805,-0.03547938913106918,0.0444185771048069
1772793937945823200,3.7638232421875,0.030725670978426933,-0.035440243780612946,0.04815206304192543
1772793937955868200,3.7738681640625,0.03209643438458443,-0.03525550663471222,0.050282806158065796
1772793937965913300,3.783913330078125,0.03126206621527672,-0.03648482263088226,0.04758475720882416
1772793937975959300,3.793959228515625,0.03458516299724579,-0.0368032343685627,0.03998344764113426
1772793937986004200,3.804004150390625,0.03896819427609444,-0.038826435804367065,0.029478076845407486
1772793937996049200,3.814049072265625,0.04398314654827118,-0.040202878415584564,0.016557497903704643
1772793938006094300,3.82409423828125,0.04765991121530533,-0.03279156610369682,0.0005761352367699146
1772793938016139300,3.83413916015625,0.04883040487766266,-0.040846116840839386,-0.0164369847625494
1772793938026184400,3.844184326171875,0.046883631497621536,-0.048864901065826416,-0.03106413036584854
1772793938036229000,3.85422900390625,0.04360528662800789,-0.0484437495470047,-0.043349940329790115
1772793938046274300,3.8642744140625,0.0422675795853138,-0.043966975063085556,-0.04478085786104202
1772793938056319200,3.8743193359375,0.04163165017962456,-0.04097627475857735,-0.04318544268608093
1772793938066364400,3.884364501953125,0.0480879507958889,-0.03661375120282173,-0.039226654917001724
1772793938076410400,3.894410400390625,0.04962191358208656,-0.036550454795360565,-0.026181800290942192
1772793938086455300,3.904455322265625,0.04986026510596275,-0.03994385898113251,-0.024768460541963577
1772793938096500200,3.914500244140625,0.04748709872364998,-0.04145389795303345,-0.01793706603348255
1772793938106545200,3.924545166015625,0.04718722403049469,-0.03483114764094353,-0.012944970279932022
1772793938116590300,3.93459033203125,0.04350117966532707,-0.018712559714913368,-0.0060587674379348755
1772793938126635300,3.94463525390625,0.04587352275848389,-0.010514549911022186,0.008522039279341698
1772793938136680200,3.95468017578125,0.046661242842674255,-0.004730710759758949,0.020427066832780838
1772793938146725000,3.96472509765625,0.04806765913963318,-0.008555276319384575,0.03878796100616455
1772793938156770300,3.974770263671875,0.05086318403482437,-0.01446712389588356,0.05553247034549713
1772793938166815200,3.984815185546875,0.05382887274026871,-0.02525979094207287,0.06336665898561478
1772793938176860400,3.9948603515625,0.056273121386766434,-0.031919024884700775,0.07276788353919983
1772793938186905000,4.004905029296875,0.05054251104593277,-0.033427897840738297,0.07742895931005478
1772793938196950800,4.01495068359375,0.04627159982919693,-0.035169072449207306,0.07777649909257889
1772793938206995500,4.024995361328125,0.035891443490982056,-0.040867216885089874,0.07265590876340866
1772793938217040600,4.03504052734375,0.020860562101006508,-0.04892114922404289,0.07051073014736176
1772793938227085600,4.04508544921875,0.008203651756048203,-0.05156393721699715,0.06340491771697998
1772793938237130800,4.055130859375,-0.0023200951982289553,-0.04719635471701622,0.05417093634605408
1772793938247176700,4.0651767578125,-0.013721393421292305,-0.040387094020843506,0.046952489763498306
1772793938257221600,4.0752216796875,-0.020110582932829857,-0.03461335971951485,0.04172390326857567
1772793938267266600,4.0852666015625,-0.027169296517968178,-0.021993912756443024,0.03966045379638672
1772793938277311500,4.0953115234375,-0.03055896796286106,-0.0144497100263834,0.03630140423774719
1772793938287356700,4.105356689453125,-0.032089728862047195,-0.004872687626630068,0.030831417068839073
1772793938297401600,4.115401611328125,-0.032256174832582474,-0.0001977747306227684,0.02510828524827957
1772793938307446800,4.12544677734375,-0.029775485396385193,-0.0009947093203663826,0.023240089416503906
1772793938317491500,4.135491455078125,-0.025139721110463142,-0.005914366338402033,0.02374529093503952
1772793938327536600,4.14553662109375,-0.022861897945404053,-0.007694764528423548,0.028492368757724762
1772793938337581600,4.15558154296875,-0.024503469467163086,-0.009427417069673538,0.035490091890096664
1772793938347627500,4.16562744140625,-0.019594427198171616,-0.019663633778691292,0.03900488093495369
1772793938357672700,4.175672607421875,-0.018940353766083717,-0.030099496245384216,0.043786853551864624
1772793938367717600,4.185717529296875,-0.022007830440998077,-0.02664959244430065,0.04908454045653343
1772793938377762600,4.195762451171875,-0.018809638917446136,-0.018947729840874672,0.05260816961526871
1772793938387807500,4.205807373046875,-0.018771804869174957,-0.000691139604896307,0.05734151601791382
1772793938397852700,4.215852783203125,-0.0146036921069026,0.013663831166923046,0.060446761548519135
1772793938407897600,4.225897705078125,-0.016395246610045433,0.02550295926630497,0.06122639775276184
1772793938417942500,4.235942626953125,-0.01896785944700241,0.026998324319720268,0.05608383193612099
1772793938427987500,4.245987548828125,-0.02107921801507473,0.024189118295907974,0.04555460810661316
1772793938438032600,4.25603271484375,-0.02276206947863102,0.02633775770664215,0.029827043414115906
1772793938448078600,4.26607861328125,-0.02613760717213154,0.03475157171487808,0.007280563935637474
1772793938458123800,4.276123779296875,-0.024538645520806313,0.03933247551321983,-0.023762840777635574
1772793938468168400,4.28616845703125,-0.022596653550863266,0.04581698775291443,-0.0546446330845356
1772793938478213600,4.296213623046875,-0.020677313208580017,0.0565418004989624,-0.0828605517745018
1772793938488258600,4.306258544921875,-0.02021070383489132,0.06705375760793686,-0.10304092615842819
1772793938498303700,4.3163037109375,-0.027588460594415665,0.07483604550361633,-0.11845956742763519
1772793938508348700,4.3263486328125,-0.03306099772453308,0.07515142858028412,-0.12212944030761719
1772793938518393600,4.3363935546875,-0.03545411303639412,0.0691119134426117,-0.1189432293176651
1772793938528438500,4.3464384765625,-0.03166553005576134,0.06568605452775955,-0.10496075451374054
1772793938538483700,4.356483642578125,-0.027495818212628365,0.05846462398767471,-0.08517772704362869
1772793938548530700,4.36653076171875,-0.020893055945634842,0.05031679943203926,-0.054643064737319946
1772793938558575600,4.37657568359375,-0.014549938961863518,0.045703403651714325,-0.018868019804358482
1772793938568620800,4.386620849609375,-0.007161268033087254,0.03294169902801514,0.012045268900692463
1772793938578665500,4.39666552734375,-0.0025342917069792747,0.017524927854537964,0.03582516685128212
1772793938588710700,4.406710693359375,-0.006184935104101896,0.0011966424062848091,0.05671484395861626
1772793938598755600,4.416755615234375,-0.012743501923978329,-0.012757256627082825,0.06948789209127426
1772793938608800800,4.42680078125,-0.018164895474910736,-0.01626906357705593,0.07499333471059799
1772793938618845700,4.436845703125,-0.026990611106157303,-0.006336270831525326,0.07659522444009781
1772793938628891600,4.4468916015625,-0.03421656787395477,0.011800549924373627,0.07934878021478653
1772793938638936600,4.4569365234375,-0.03872210532426834,0.02716885507106781,0.0753985121846199
1772793938648981500,4.4669814453125,-0.041345320641994476,0.036031220108270645,0.0657380148768425
1772793938659026700,4.477026611328125,-0.04167741909623146,0.04447983205318451,0.05775385722517967
1772793938669071600,4.487071533203125,-0.040468599647283554,0.049029458314180374,0.0418601855635643
1772793938679116500,4.497116455078125,-0.03971279412508011,0.04332709684967995,0.02820536121726036
1772793938689161500,4.507161376953125,-0.04575362429022789,0.03441864252090454,0.019657254219055176
1772793938699206700,4.51720654296875,-0.05357026681303978,0.024043768644332886,0.01264035701751709
1772793938709251600,4.52725146484375,-0.05863959342241287,0.01782022789120674,0.00897238589823246
1772793938719296800,4.537296875,-0.06342102587223053,0.006962252780795097,0.004051396623253822
1772793938729342700,4.5473427734375,-0.06721048802137375,0.0011138333939015865,-0.004959129728376865
1772793938739387400,4.557387451171875,-0.0651252344250679,0.0004850607365369797,-0.008429495617747307
1772793938749432600,4.5674326171875,-0.05722840875387192,-0.002641667379066348,-0.018781626597046852
1772793938759477500,4.5774775390625,-0.05041470751166344,-0.009401835501194,-0.028502430766820908
1772793938769522700,4.587522705078125,-0.04160654544830322,-0.011738095432519913,-0.03231391683220863
1772793938779567600,4.597567626953125,-0.029753614217042923,-0.007731102406978607,-0.03567322716116905
1772793938789612500,4.607612548828125,-0.018951846286654472,-0.013140499591827393,-0.03482843190431595
1772793938799657500,4.617657470703125,-0.013470262289047241,-0.02252041921019554,-0.03650728613138199
1772793938809702700,4.62770263671875,-0.006595064420253038,-0.01888875477015972,-0.034652769565582275
1772793938819747600,4.63774755859375,-0.003598742187023163,-0.0028847544454038143,-0.028112847357988358
1772793938829793800,4.647793701171875,0.0008895079372450709,0.006440065801143646,-0.01663900539278984
1772793938839838500,4.65783837890625,0.008292295970022678,0.008396957069635391,-0.010100411251187325
1772793938849883600,4.667883544921875,0.01575310528278351,0.0020185094326734543,-0.005402812734246254
1772793938859928600,4.677928466796875,0.021732700988650322,-0.007822936400771141,-0.008802337571978569
1772793938869973800,4.687973876953125,0.024778317660093307,-0.016728516668081284,-0.013879509642720222
1772793938880018700,4.698018798828125,0.029618345201015472,-0.014637136831879616,-0.014655021950602531
1772793938890063600,4.708063720703125,0.03133872523903847,0.0005130241625010967,-0.015857582911849022
1772793938900108500,4.718108642578125,0.03658914566040039,0.012305234558880329,-0.012383490800857544
1772793938910153700,4.72815380859375,0.042413488030433655,0.01955200731754303,-0.010757176205515862
1772793938920198700,4.73819873046875,0.051014963537454605,0.014748463407158852,-0.007941417396068573
1772793938930243600,4.74824365234375,0.05949128419160843,0.008493112400174141,-0.010338456369936466
1772793938940289500,4.75828955078125,0.06525703519582748,0.006118105258792639,-0.01611458510160446
1772793938950334500,4.76833447265625,0.06648184359073639,0.013332800008356571,-0.0193167757242918
1772793938960379600,4.778379638671875,0.06936205178499222,0.013915766961872578,-0.030668500810861588
1772793938970424600,4.788424560546875,0.07471924275159836,0.012944689020514488,-0.0409337654709816
1772793938980469800,4.7984697265625,0.0817827433347702,0.013327650725841522,-0.05171850323677063
1772793938990514400,4.808514404296875,0.08667071908712387,0.014300016686320305,-0.058095782995224
1772793939000559600,4.8185595703125,0.0913219302892685,0.016281673684716225,-0.05785902962088585
1772793939010604500,4.8286044921875,0.08922575414180756,0.019621072337031364,-0.06181040033698082
1772793939020649700,4.838649658203125,0.08413805067539215,0.008489590138196945,-0.057460393756628036
1772793939030694700,4.848694580078125,0.07739069312810898,-0.0033746594563126564,-0.04657735303044319
1772793939040740600,4.85874072265625,0.06900306791067123,-0.0003074971027672291,-0.02652827836573124
1772793939050785500,4.86878564453125,0.05941484123468399,0.004566133487969637,-0.005527793895453215
1772793939060830700,4.878830810546875,0.05075078085064888,0.0033232360146939754,0.013122323900461197
1772793939070875600,4.888875732421875,0.049693480134010315,0.0025953641161322594,0.028509657829999924
1772793939080920600,4.898920654296875,0.04592324420809746,0.00039665866643190384,0.03864884376525879
1772793939090965500,4.908965576171875,0.04440499097108841,-0.0041720084846019745,0.047958411276340485
1772793939101010700,4.9190107421875,0.03937214985489845,-0.009689279831945896,0.04626064747571945
1772793939111055600,4.9290556640625,0.037283699959516525,-0.008605373091995716,0.046874772757291794
1772793939121100500,4.9391005859375,0.03211663290858269,-0.0059528648853302,0.041641127318143845
1772793939131145700,4.949145751953125,0.027908289805054665,0.004485409706830978,0.03179626539349556
1772793939141190700,4.959190673828125,0.02384297363460064,0.01671517640352249,0.02234949916601181
1772793939151236600,4.969236572265625,0.015852153301239014,0.03215251863002777,0.02063252218067646
1772793939161281500,4.979281494140625,0.013709641993045807,0.03802398964762688,0.018068430945277214
1772793939171326700,4.98932666015625,0.003886911552399397,0.03783685714006424,0.012785155326128006
1772793939181371600,4.99937158203125,-0.00499792629852891,0.031602662056684494,0.006299026310443878
1772793939191416600,5.00941650390625,-0.013255340047180653,0.01692812889814377,-0.00039691769052296877
1772793939201461200,5.019461181640625,-0.014014340937137604,-0.0036338730715215206,-0.007934994995594025
1772793939211506400,5.02950634765625,-0.01778138242661953,-0.012679032981395721,-0.009062843397259712
1772793939221551000,5.039551025390625,-0.021403813734650612,-0.014907034114003181,-0.010155272670090199
1772793939231596300,5.04959619140625,-0.023321298882365227,-0.013993080705404282,-0.014887364581227303
1772793939241641200,5.05964111328125,-0.02696290612220764,-0.011324860155582428,-0.025311242789030075
1772793939251687200,5.069687255859375,-0.026857959106564522,-0.004915875382721424,-0.03258662298321724
1772793939261732400,5.079732421875,-0.029964270070195198,0.0043252939358353615,-0.044231295585632324
1772793939271777300,5.08977734375,-0.031832270324230194,0.010171526111662388,-0.04984107241034508
1772793939281822200,5.099822265625,-0.02825591340661049,0.011156895197927952,-0.052343644201755524
1772793939291867100,5.1098671875,-0.028068404644727707,0.014214130118489265,-0.04848127067089081
1772793939301912300,5.119912353515625,-0.02898266725242138,0.01358509249985218,-0.04951324313879013
1772793939311957200,5.129957275390625,-0.032730765640735626,0.00995271559804678,-0.04830475151538849
1772793939322002200,5.140002197265625,-0.0349222794175148,0.010403322987258434,-0.05415891110897064
1772793939332047000,5.150047119140625,-0.0344269834458828,0.015265827998518944,-0.0502314567565918
1772793939342092300,5.16009228515625,-0.032541465014219284,0.017556944862008095,-0.04680423438549042
1772793939352138200,5.17013818359375,-0.03395235538482666,0.02159871906042099,-0.034376684576272964
1772793939362183400,5.180183349609375,-0.031576283276081085,0.017370950430631638,-0.025103027001023293
1772793939372228400,5.190228271484375,-0.026044629514217377,0.00982711836695671,-0.009163057431578636
1772793939382273300,5.200273193359375,-0.019406434148550034,0.002131648361682892,0.003287753090262413
1772793939392318200,5.210318115234375,-0.013132592663168907,-0.0012812651693820953,0.01182551495730877
1772793939402363400,5.22036328125,-0.004860015120357275,-0.011824985966086388,0.016307082027196884
1772793939412408300,5.230408203125,0.00045112683437764645,-0.015598950907588005,0.015379770658910275
1772793939422453200,5.240453369140625,0.005883176811039448,-0.01129821315407753,0.013002099469304085
1772793939432498200,5.250498291015625,0.008747709915041924,-0.005416978150606155,0.013967180624604225
1772793939442543400,5.26054345703125,0.014536356553435326,0.0026481389068067074,0.014436963014304638
1772793939452588300,5.27058837890625,0.01885196752846241,0.003133352380245924,0.00868576392531395
1772793939462634200,5.28063427734375,0.02330743707716465,-0.0020571481436491013,0.00445852754637599
1772793939472679400,5.290679443359375,0.033215221017599106,-0.011043423786759377,0.006297052837908268
1772793939482724000,5.30072412109375,0.03788667172193527,-0.01569756492972374,0.008552483282983303
1772793939492769300,5.310769287109375,0.04547213017940521,-0.024760758504271507,0.014107311144471169
1772793939502814200,5.320814208984375,0.04659012705087662,-0.036173999309539795,0.015211191959679127
1772793939512859400,5.330859375,0.043413255363702774,-0.046933189034461975,0.01064382866024971
1772793939522904000,5.340904052734375,0.04097087308764458,-0.04436483606696129,0.009524235501885414
1772793939532949200,5.35094921875,0.04683779180049896,-0.02733597531914711,0.007726607844233513
1772793939542994200,5.360994140625,0.05192869156599045,-0.017865508794784546,0.00797854270786047
1772793939553039400,5.371039306640625,0.05652610585093498,-0.020571015775203705,0.009191079996526241
1772793939563085300,5.381085205078125,0.0579434409737587,-0.02678683213889599,0.007952176965773106
1772793939573130500,5.391130615234375,0.058093372732400894,-0.028088528662919998,0.009830468334257603
1772793939583175200,5.401175048828125,0.05673995614051819,-0.030878186225891113,0.012234770692884922
1772793939593220400,5.411220458984375,0.054138604551553726,-0.02631659246981144,0.015111280605196953
1772793939603265300,5.421265380859375,0.04536056146025658,-0.016915367916226387,0.02110525779426098
1772793939613310500,5.431310546875,0.03935085982084274,-0.010029381141066551,0.01576235145330429
1772793939623355400,5.44135546875,0.033398162573575974,-0.009910071268677711,0.009757455438375473
1772793939633400300,5.451400390625,0.02781246230006218,-0.009497561492025852,0.0039983270689845085
1772793939643445200,5.4614453125,0.02577860653400421,-0.007425888441503048,0.0037232227623462677
1772793939653490400,5.471490478515625,0.022807303816080093,-0.00661537004634738,0.00939674861729145
1772793939663535400,5.481535400390625,0.016131293028593063,-0.00436180317774415,0.016990486532449722
1772793939673581300,5.491581298828125,0.008837684988975525,-0.005080635193735361,0.018266217783093452
1772793939683626200,5.501626220703125,0.009051268920302391,-0.00135833490639925,0.02740112692117691
1772793939693671200,5.511671142578125,0.00500698434188962,0.003032107837498188,0.030821772292256355
1772793939703716400,5.52171630859375,0.0015145150246098638,0.003923201933503151,0.027256064116954803
1772793939713761300,5.53176123046875,-0.005187616683542728,0.0033253957517445087,0.0211651548743248
1772793939723806500,5.541806396484375,-0.005967922508716583,0.00010669976472854614,0.0143772903829813
1772793939733851100,5.55185107421875,-0.004861334804445505,0.0030939229764044285,0.007123243995010853
1772793939743896300,5.561896240234375,-0.006392652168869972,-0.0001692483201622963,0.0032616606913506985
1772793939753941200,5.571941162109375,-0.008461704477667809,-0.004689283203333616,0.0018675087485462427
1772793939763986400,5.581986328125,-0.007817219011485577,-0.009462200105190277,-0.0007322691380977631
1772793939774032400,5.592032470703125,-0.005493807140737772,-0.013432723470032215,-0.0035155215300619602
1772793939784077000,5.6020771484375,-0.006177706643939018,-0.011106451973319054,-0.0017253445694223046
1772793939794122200,5.612122314453125,-0.0026346687227487564,-0.008653650060296059,0.00008489051833748817
1772793939804167200,5.622167236328125,-0.002790996339172125,-0.007203825283795595,-0.00048689008690416813
1772793939814212400,5.63221240234375,-0.0018139155581593513,-0.0049679093062877655,-0.001426519127562642
1772793939824257300,5.64225732421875,0.0012942597968503833,-0.004465903155505657,-0.0008286394877359271
1772793939834302200,5.65230224609375,0.001083881827071309,-0.0018393462523818016,-0.006710957735776901
1772793939844347100,5.66234716796875,0.00722166895866394,0.005206046625971794,-0.00694132037460804
1772793939854392300,5.672392333984375,0.007078681606799364,0.015021689236164093,-0.009663458913564682
1772793939864437200,5.682437255859375,0.007873369380831718,0.019059039652347565,-0.0042271483689546585
1772793939874482200,5.692482177734375,0.0075710611417889595,0.02363593503832817,0.0017345019150525331
1772793939884528000,5.702528076171875,0.01154982391744852,0.01586136966943741,0.010691245086491108
1772793939894573300,5.7125732421875,0.009673941880464554,0.007987525314092636,0.01584022305905819
1772793939904618200,5.7226181640625,0.013056955300271511,0.0015432089567184448,0.024484045803546906
1772793939914663400,5.732663330078125,0.018122540786862373,-0.006229640915989876,0.023706862702965736
1772793939924708400,5.742708251953125,0.025062207132577896,-0.00881157536059618,0.027772976085543633
1772793939934753300,5.752753173828125,0.02938692644238472,-0.009455912746489048,0.022677622735500336
1772793939944798200,5.762798095703125,0.02860342338681221,-0.010931037366390228,0.01747993193566799
1772793939954843400,5.772843505859375,0.027290992438793182,-0.012985429726541042,0.011508448049426079
1772793939964888300,5.782888427734375,0.028337880969047546,-0.007757910992950201,0.0032931282185018063
1772793939974933500,5.79293359375,0.028544561937451363,-0.0020828922279179096,-0.0004911147989332676
1772793939984978200,5.802978271484375,0.0304441936314106,0.0005608275532722473,-0.006078693084418774
1772793939995024100,5.813024169921875,0.03160344064235687,-0.0007394603453576565,-0.0016791807720437646
1772793940005069300,5.8230693359375,0.03371665999293327,-0.006586164236068726,-0.00017848960123956203
1772793940015114200,5.8331142578125,0.034803517162799835,-0.019344747066497803,0.00024958921130746603
1772793940025159400,5.843159423828125,0.03363438695669174,-0.03262167051434517,0.004359379410743713
1772793940035204000,5.8532041015625,0.03056797944009304,-0.03224681690335274,0.005490437150001526
1772793940045249300,5.863249267578125,0.025676820427179337,-0.019481219351291656,0.0113493911921978
1772793940055294200,5.873294189453125,0.023410513997077942,-0.007837391458451748,0.014489661902189255
1772793940065339400,5.88333935546875,0.02298680506646633,0.001038392074406147,0.01740182936191559
1772793940075384300,5.89338427734375,0.02098272182047367,0.002789952326565981,0.02250385284423828
1772793940085429200,5.90342919921875,0.01743565872311592,0.001163559965789318,0.014909851364791393
1772793940095475200,5.91347509765625,0.014334737323224545,-0.007768637500703335,0.010408556088805199
1772793940105520000,5.92352001953125,0.011225496418774128,-0.011914379894733429,0.004746675491333008
1772793940115565300,5.9335654296875,0.00008675351273268461,-0.01232459582388401,0.008057083934545517
1772793940125610200,5.9436103515625,-0.014807507395744324,-0.016381923109292984,0.010793748311698437
1772793940135655200,5.9536552734375,-0.028780508786439896,-0.017774667590856552,0.015599856153130531
1772793940145700000,5.9637001953125,-0.05306454375386238,-0.03436056524515152,0.02064761146903038
1772793940155745300,5.973745361328125,-0.06078104302287102,-0.04718087986111641,0.022905245423316956
1772793940165790200,5.983790283203125,-0.06331237405538559,-0.047559045255184174,0.018927015364170074
1772793940175835400,5.99383544921875,-0.053318846970796585,-0.04154687002301216,0.01092778705060482
1772793940185880000,6.003880126953125,-0.04023873060941696,-0.03881686553359032,0.00539027713239193
1772793940195925200,6.01392529296875,-0.024036377668380737,-0.028702443465590477,-0.006687485612928867
1772793940205971200,6.02397119140625,-0.009801783598959446,-0.021598195657134056,-0.012760025449097157
1772793940216016400,6.034016357421875,-0.0051587969064712524,-0.01119325589388609,-0.013051992282271385
1772793940226061300,6.044061279296875,-0.005855480208992958,-0.00671648234128952,-0.014594228938221931
1772793940236106500,6.0541064453125,-0.015221070498228073,-0.014800669625401497,-0.011130963452160358
1772793940246151400,6.0641513671875,-0.02626786381006241,-0.024013344198465347,-0.004310341086238623
1772793940256196400,6.0741962890625,-0.03496117889881134,-0.022421453148126602,0.000018614227883517742
1772793940266241300,6.0842412109375,-0.03866829723119736,-0.02277245745062828,0.006932712625712156
1772793940276286500,6.094286376953125,-0.03659157082438469,-0.013825508765876293,0.015954134985804558
1772793940286331400,6.104331298828125,-0.03285568952560425,-0.008616631850600243,0.02023623138666153
1772793940296376600,6.11437646484375,-0.025550128892064095,-0.004450678825378418,0.02144702523946762
1772793940306421200,6.124421142578125,-0.015610944479703903,0.0033816779032349586,0.027549924328923225
1772793940316467200,6.13446728515625,-0.011064109392464161,0.008367307484149933,0.02395625039935112
1772793940326512400,6.144512451171875,-0.007818249054253101,0.012591879814863205,0.026646841317415237
1772793940336557300,6.154557373046875,-0.010396505706012249,0.01371796801686287,0.03252692520618439
1772793940346602500,6.1646025390625,-0.014657563529908657,0.018099401146173477,0.035709403455257416
1772793940356647200,6.174647216796875,-0.02057667262852192,0.02123614400625229,0.034712646156549454
1772793940366692400,6.1846923828125,-0.02618316002190113,0.022944029420614243,0.03427988290786743
1772793940376737300,6.1947373046875,-0.026301637291908264,0.020025545731186867,0.03118402697145939
1772793940386782500,6.204782470703125,-0.025923732668161392,0.01949983835220337,0.027002597227692604
1772793940396827400,6.214827392578125,-0.020522359758615494,0.018257945775985718,0.022628067061305046
1772793940406872300,6.224872314453125,-0.01870075799524784,0.02229449898004532,0.0202352162450552
1772793940416917200,6.234917236328125,-0.01685944013297558,0.025210604071617126,0.01857716776430607
1772793940426963500,6.24496337890625,-0.014503076672554016,0.015473021194338799,0.014809859916567802
1772793940437008400,6.25500830078125,-0.010619902983307838,0.007731300313025713,0.009987249970436096
1772793940447053300,6.26505322265625,-0.008876863867044449,0.008685510605573654,0.006461224984377623
1772793940457098200,6.27509814453125,-0.01093762181699276,0.014139294624328613,0.006025114096701145
1772793940467143400,6.285143310546875,-0.010694741271436214,0.02513149380683899,0.00776868499815464
1772793940477188400,6.295188232421875,-0.006845683325082064,0.037930600345134735,0.012229559011757374
1772793940487233300,6.3052333984375,-0.0076965633779764175,0.04150190204381943,0.0245184488594532
1772793940497278500,6.315278564453125,-0.010004669427871704,0.04335705563426018,0.03509125858545303
1772793940507323400,6.325323486328125,-0.008577747270464897,0.04450780898332596,0.04741823300719261
1772793940517368300,6.335368408203125,-0.01144894864410162,0.04318825900554657,0.060452405363321304
1772793940527414300,6.345414306640625,-0.012320601381361485,0.03552580997347832,0.07225873321294785
1772793940537459500,6.35545947265625,-0.007007333915680647,0.028311897069215775,0.08177123963832855
1772793940547504400,6.36550439453125,-0.0025558602064847946,0.024838868528604507,0.09721970558166504
1772793940557549300,6.37554931640625,-0.00048365473048761487,0.03364061564207077,0.11631111055612564
1772793940567594200,6.38559423828125,0.00039225886575877666,0.05164545029401779,0.13623128831386566
1772793940577639400,6.395639404296875,-0.00746406614780426,0.05873638391494751,0.1521308869123459
1772793940587684400,6.405684326171875,-0.018984632566571236,0.04750913009047508,0.15808719396591187
1772793940597729500,6.4157294921875,-0.02030184306204319,0.024917922914028168,0.15520185232162476
1772793940607774200,6.425774169921875,-0.01993911899626255,0.012572040781378746,0.14510315656661987
1772793940617819400,6.4358193359375,-0.012439658865332603,0.027121420949697495,0.12615236639976501
1772793940627864300,6.4458642578125,-0.007482185028493404,0.05885857716202736,0.0986083522439003
1772793940637910300,6.45591015625,-0.00881137978285551,0.07514552772045135,0.05790319666266441
1772793940647955500,6.46595556640625,-0.018115665763616562,0.060443274676799774,0.03069075010716915
1772793940658000400,6.47600048828125,-0.04035410284996033,0.048478685319423676,0.023667188361287117
1772793940668045300,6.48604541015625,-0.05784707888960838,0.06005118787288666,0.03547590970993042
1772793940678090200,6.49609033203125,-0.06163997948169708,0.079704649746418,0.04696661978960037
1772793940688135400,6.506135498046875,-0.05369656905531883,0.1138162761926651,0.07585446536540985
1772793940698180400,6.516180419921875,-0.05454663187265396,0.1239815503358841,0.10744776576757431
1772793940708225300,6.526225341796875,-0.06051317974925041,0.1137361079454422,0.1337137222290039
1772793940718270200,6.536270263671875,-0.07703353464603424,0.10486038774251938,0.14527830481529236
1772793940728315400,6.5463154296875,-0.09426897764205933,0.07711211591959,0.14734411239624023
1772793940738360300,6.5563603515625,-0.11029429733753204,0.05815389007329941,0.14034482836723328
1772793940748406500,6.566406494140625,-0.11728376895189285,0.05835708975791931,0.13503529131412506
1772793940758451500,6.576451416015625,-0.1115228533744812,0.06726731359958649,0.1251305192708969
1772793940768496400,6.586496337890625,-0.09666214883327484,0.07612019777297974,0.10474535077810287
1772793940778541300,6.596541259765625,-0.08253803104162216,0.07806064188480377,0.0826943963766098
1772793940788586500,6.60658642578125,-0.07606388628482819,0.07737433910369873,0.05631179362535477
1772793940798631400,6.61663134765625,-0.07868282496929169,0.08595875650644302,0.03455984964966774
1772793940808676400,6.62667626953125,-0.08629440516233444,0.09855550527572632,0.025616688653826714
1772793940818721300,6.63672119140625,-0.1004941388964653,0.10359519720077515,0.017293179407715797
1772793940828766500,6.646766357421875,-0.11140484362840652,0.10041751712560654,0.013403898105025291
1772793940838811400,6.656811279296875,-0.11699560284614563,0.09232266247272491,-0.0037712515331804752
1772793940848856600,6.666856689453125,-0.10507556051015854,0.08476194739341736,-0.020441574975848198
1772793940858902500,6.676902587890625,-0.09027400612831116,0.07911128550767899,-0.0381922572851181
1772793940868947200,6.686947265625,-0.08005679398775101,0.0757298693060875,-0.05695289373397827
1772793940878992400,6.696992431640625,-0.06794366240501404,0.07121291756629944,-0.06820802390575409
1772793940889037300,6.707037353515625,-0.05787504464387894,0.07046803832054138,-0.07795359939336777
1772793940899082500,6.71708251953125,-0.04667459800839424,0.07783739268779755,-0.07707615941762924
1772793940909127200,6.727127197265625,-0.031196042895317078,0.08065421879291534,-0.08265893906354904
1772793940919172400,6.73717236328125,-0.020105017349123955,0.07044848054647446,-0.08701599389314651
1772793940929217300,6.74721728515625,-0.0172429196536541,0.04363603889942169,-0.07430019974708557
1772793940939262500,6.757262451171875,-0.022039547562599182,0.023152291774749756,-0.04929197579622269
1772793940949307400,6.767307373046875,-0.019599292427301407,0.009789879433810711,-0.02571873553097248
1772793940959352300,6.777352294921875,-0.009549623355269432,-0.005092841573059559,0.002061544917523861
1772793940969398300,6.787398193359375,-0.0021159411408007145,-0.021885402500629425,0.021630452945828438
1772793940979443200,6.797443115234375,0.006465831771492958,-0.03782911226153374,0.03968869894742966
1772793940989488400,6.80748828125,0.012515468522906303,-0.04008641093969345,0.05311103165149689
1772793940999533300,6.817533203125,0.020737480372190475,-0.03426323086023331,0.04880677908658981
1772793941009578500,6.82757861328125,0.03556302934885025,-0.027631424367427826,0.04226632043719292
1772793941019623200,6.837623046875,0.04235006868839264,-0.023959960788488388,0.03381885960698128
1772793941029668400,6.84766845703125,0.04048452526330948,-0.015270332805812359,0.02986806444823742
1772793941039713300,6.85771337890625,0.040025122463703156,-0.0077023692429065704,0.0232175812125206
1772793941049758500,6.867758544921875,0.03704185038805008,-0.004488200414925814,0.015084820799529552
1772793941059803100,6.87780322265625,0.041361503303050995,-0.01102142222225666,0.013225055299699306
1772793941069848300,6.887848388671875,0.034751538187265396,-0.021337974816560745,0.01659581810235977
1772793941079894300,6.897894287109375,0.030734973028302193,-0.02328992448747158,0.02622161991894245
1772793941089939500,6.907939453125,0.025625165551900864,-0.018159344792366028,0.030652321875095367
1772793941099984400,6.917984375,0.028014549985527992,-0.01566433161497116,0.02324884943664074
1772793941110029600,6.928029541015625,0.03413635864853859,-0.018260914832353592,0.007558035664260387
1772793941120074200,6.93807421875,0.0345962755382061,-0.024329503998160362,-0.00391771225258708
1772793941130119400,6.948119384765625,0.030195938423275948,-0.019651396200060844,-0.011023292317986488
1772793941140164400,6.958164306640625,0.02173697017133236,-0.01221923902630806,-0.015159381553530693
1772793941150209500,6.96820947265625,0.01265958696603775,-0.006768013816326857,-0.02002178132534027
1772793941160254200,6.978254150390625,0.012278435751795769,0.005723542999476194,-0.021155014634132385
1772793941170299400,6.98829931640625,0.011722899973392487,0.007658062968403101,-0.024946024641394615
1772793941180344300,6.99834423828125,0.01391363050788641,0.0035908683203160763,-0.02777700684964657
1772793941190390300,7.008390380859375,0.0058687543496489525,0.0025695464573800564,-0.023428065702319145
1772793941200436000,7.01843603515625,-0.003091951832175255,-0.00010339450091123581,-0.01878557726740837
1772793941210480600,7.028480712890625,-0.008311481215059757,0.0088120698928833,-0.013675238005816936
1772793941220525800,7.03852587890625,-0.008617217652499676,0.006543649360537529,-0.011160451918840408
1772793941230570800,7.04857080078125,-0.002374768489971757,0.005680784583091736,-0.015149334445595741
1772793941240616000,7.058615966796875,-0.004777518566697836,0.010304771363735199,-0.008566554635763168
1772793941250660600,7.06866064453125,-0.00830594077706337,0.010520488023757935,-0.0034836456179618835
1772793941260705800,7.078705810546875,-0.02221696823835373,0.005345757585018873,0.009175121784210205
1772793941270750700,7.088750732421875,-0.023921657353639603,-0.02558605931699276,0.019629627466201782
1772793941280796000,7.0987958984375,-0.013643711805343628,-0.04402254521846771,0.03344948962330818
1772793941290840800,7.1088408203125,-0.00887132715433836,-0.06558696180582047,0.04980209842324257
1772793941300886800,7.11888671875,-0.012609572149813175,-0.0783449187874794,0.06305553019046783
1772793941310931700,7.128931640625,-0.015477529726922512,-0.07123800367116928,0.06709634512662888
1772793941320976600,7.1389765625,-0.016178762540221214,-0.06013212352991104,0.048269521445035934
1772793941331021800,7.149021728515625,-0.012728904373943806,-0.054800212383270264,0.018658630549907684
1772793941341066800,7.159066650390625,-0.003427018178626895,-0.04611760750412941,-0.02572150155901909
1772793941351112000,7.16911181640625,0.00920195784419775,-0.022039704024791718,-0.08022921532392502
1772793941361156600,7.179156494140625,0.030536329373717308,0.01855352707207203,-0.13757900893688202
1772793941371201800,7.189201904296875,0.05005676671862602,0.06237265095114708,-0.18579819798469543
1772793941381246700,7.199246826171875,0.05878202244639397,0.08598935604095459,-0.22491240501403809
1772793941391292000,7.2092919921875,0.04716158285737038,0.07602913677692413,-0.2223760038614273
1772793941401336600,7.219336669921875,0.0454271100461483,0.046772830188274384,-0.1785513013601303
