time,seconds_elapsed,z,y,x
1772650203585034200,0.0730341796875,0.2519437074661255,0.0037790420465171337,0.6504794359207153
1772650203595079200,0.0830791015625,0.22985050082206726,0.18131621181964874,0.6745259165763855
1772650203605123300,0.093123291015625,0.19505949318408966,0.3521638512611389,0.7123774290084839
1772650203615167200,0.103167236328125,0.20536278188228607,0.4942788779735565,0.8164905905723572
1772650203625211100,0.113211181640625,0.27869582176208496,0.5598283410072327,0.8958490490913391
1772650203635256300,0.12325634765625,0.3377211391925812,0.48541751503944397,0.9197301268577576
1772650203645300200,0.13330029296875,0.3696630895137787,0.6089471578598022,0.9460011124610901
1772650203655344000,0.14334423828125,0.43895772099494934,0.8441179990768433,0.9265299439430237
1772650203665388000,0.153387939453125,0.47231197357177734,1.15689218044281,0.8931421637535095
1772650203675433200,0.16343310546875,0.4134356677532196,1.360211730003357,0.982397198677063
1772650203685477400,0.173477294921875,0.32079198956489563,1.4498456716537476,1.172256588935852
1772650203695521000,0.18352099609375,0.19345004856586456,1.5189793109893799,1.3293715715408325
1772650203705565200,0.193565185546875,0.09728408604860306,1.15725576877594,1.3179748058319092
1772650203715610400,0.2036103515625,0.06780867278575897,0.438930869102478,0.9996511340141296
1772650203725654000,0.213654052734375,0.08487313985824585,-0.06669741868972778,0.6180170178413391
1772650203735698200,0.2236982421875,0.09049049764871597,-0.22170889377593994,0.2426452487707138
1772650203745742000,0.2337421875,0.029796257615089417,-0.12586599588394165,-0.12479587644338608
1772650203755787000,0.243787109375,-0.028237350285053253,-0.02623680606484413,-0.4405386447906494
1772650203765831200,0.2538310546875,-0.009463129565119743,-0.0924440547823906,-0.609727144241333
1772650203775875000,0.263875,0.03336293250322342,-0.3368642330169678,-0.6158193349838257
1772650203785919200,0.273919189453125,0.09705615788698196,-0.6997564435005188,-0.5068070888519287
1772650203795964200,0.283964111328125,0.1491340547800064,-0.9250333309173584,-0.36717918515205383
1772650203806008000,0.294008056640625,0.21716423332691193,-1.0142384767532349,-0.20548270642757416
1772650203816052200,0.30405224609375,0.26099011301994324,-1.0461399555206299,-0.0686412900686264
1772650203826096400,0.314096435546875,0.271134614944458,-0.9931805729866028,-0.007214682176709175
1772650203836141000,0.32414111328125,0.24512062966823578,-0.9169188141822815,-0.019032124429941177
1772650203846185200,0.334185302734375,0.248597651720047,-0.808020293712616,-0.03487340733408928
1772650203856229400,0.3442294921875,0.3116322159767151,-0.6249476075172424,-0.03194752708077431
1772650203866273300,0.354273193359375,0.3834989368915558,-0.4412645995616913,0.021133001893758774
1772650203876318200,0.364318115234375,0.4097565710544586,-0.44058310985565186,0.1436702460050583
1772650203886362000,0.374362060546875,0.3737330734729767,-0.5872519016265869,0.30133017897605896
1772650203896406300,0.38440625,0.30805516242980957,-0.7635694146156311,0.43881088495254517
1772650203906450200,0.3944501953125,0.23762068152427673,-0.9691084027290344,0.5243867635726929
1772650203916495000,0.4044951171875,0.18450705707073212,-1.086505651473999,0.5723555088043213
1772650203926539300,0.414539306640625,0.15078957378864288,-0.9938125014305115,0.5151902437210083
1772650203936583200,0.424583251953125,0.11477286368608475,-0.7615365982055664,0.34719333052635193
1772650203946627000,0.434626953125,0.06026088818907738,-0.5545740723609924,0.1497812122106552
1772650203956672300,0.44467236328125,0.005269042681902647,-0.3787432312965393,-0.044924017041921616
1772650203966716400,0.45471630859375,-0.04213043302297592,-0.2170722931623459,-0.269856721162796
1772650203976760000,0.464760009765625,-0.07160265743732452,-0.06462323665618896,-0.5071478486061096
1772650203986804200,0.47480419921875,-0.08337435126304626,0.10639804601669312,-0.6856262683868408
1772650203996849400,0.484849365234375,-0.04672998934984207,0.2745763063430786,-0.7969406843185425
1772650204006893000,0.49489306640625,0.01801678165793419,0.41446974873542786,-0.8347013592720032
1772650204016937200,0.504937255859375,0.13231442868709564,0.517693817615509,-0.7725759744644165
1772650204026981000,0.514981201171875,0.23707573115825653,0.4837729334831238,-0.6675097346305847
1772650204037026000,0.525026123046875,0.2719057500362396,0.46865740418434143,-0.5972140431404114
1772650204047070200,0.5350703125,0.26602256298065186,0.5373097062110901,-0.49741366505622864
1772650204057114000,0.545114013671875,0.22860179841518402,0.5079131722450256,-0.39922094345092773
1772650204067158300,0.555158203125,0.24424707889556885,0.44690999388694763,-0.2842557430267334
1772650204077203200,0.565203125,0.2675500214099884,0.37751132249832153,-0.17832091450691223
1772650204087247000,0.5752470703125,0.23311081528663635,0.40249496698379517,-0.12244485318660736
1772650204097291300,0.585291259765625,0.2127833515405655,0.3647964298725128,-0.11086122691631317
1772650204107335200,0.595335205078125,0.193563312292099,0.27210110425949097,-0.11554119735956192
1772650204117380000,0.605380126953125,0.19127731025218964,0.1931280791759491,-0.12870442867279053
1772650204127424300,0.61542431640625,0.1780794858932495,0.17984849214553833,-0.14245299994945526
1772650204137468200,0.62546826171875,0.1195201501250267,0.23015663027763367,-0.17409232258796692
1772650204147512300,0.63551220703125,0.10852715373039246,0.2126801759004593,-0.20641429722309113
1772650204157557200,0.64555712890625,0.1429944783449173,0.1606268584728241,-0.21388722956180573
1772650204167601200,0.65560107421875,0.18774570524692535,0.08448762446641922,-0.16550877690315247
1772650204177645300,0.665645263671875,0.16936823725700378,0.08478353917598724,-0.1229824349284172
1772650204187689200,0.675689208984375,0.1752208024263382,0.08400137722492218,-0.08329920470714569
1772650204197734400,0.685734375,0.19573119282722473,0.056348126381635666,-0.03300187364220619
1772650204207778600,0.695778564453125,0.1867121309041977,-0.0007665585726499557,-0.00880013033747673
1772650204217822200,0.705822265625,0.17162232100963593,-0.02554970048367977,-0.03555809706449509
1772650204227866400,0.715866455078125,0.19930800795555115,-0.05827249214053154,-0.06750032305717468
1772650204237911600,0.72591162109375,0.22062070667743683,-0.02720118686556816,-0.1058812364935875
1772650204247955200,0.735955078125,0.2230045050382614,0.03275136277079582,-0.13718988001346588
1772650204257999400,0.745999267578125,0.22207750380039215,0.07422882318496704,-0.1558578759431839
1772650204268043500,0.75604345703125,0.15483348071575165,0.1587226688861847,-0.17966148257255554
1772650204278088400,0.76608837890625,0.141745463013649,0.19165705144405365,-0.17592130601406097
1772650204288132400,0.77613232421875,0.15084682404994965,0.20652708411216736,-0.14173617959022522
1772650204298176300,0.78617626953125,0.15419518947601318,0.2802776098251343,-0.05682917684316635
1772650204308220400,0.796220458984375,0.14734101295471191,0.3335544168949127,0.04347212612628937
1772650204318265300,0.806265380859375,0.13784942030906677,0.3289104104042053,0.1461678445339203
1772650204328309200,0.816309326171875,0.12409552931785583,0.3327288329601288,0.23168034851551056
1772650204338353400,0.826353515625,0.10253354907035828,0.33648037910461426,0.29005929827690125
1772650204348397600,0.8363974609375,0.0749884694814682,0.3121124505996704,0.3221789002418518
1772650204358441500,0.84644140625,0.05248580873012543,0.236627995967865,0.32445013523101807
1772650204368486400,0.856486328125,0.02885504625737667,0.16110765933990479,0.3118602931499481
1772650204378530600,0.866530517578125,-0.010100457817316055,0.1496567726135254,0.2798471450805664
1772650204388574500,0.876574462890625,-0.05419867858290672,0.062380723655223846,0.2007177174091339
1772650204398618400,0.886618408203125,-0.023882050067186356,-0.08360497653484344,0.1206337958574295
1772650204408663600,0.89666357421875,0.006258275359869003,-0.11428193002939224,0.04070567712187767
1772650204418707500,0.90670751953125,-0.001959575340151787,-0.09399882704019547,-0.05456386134028435
1772650204428751400,0.91675146484375,-0.009839869104325771,-0.08272992819547653,-0.14683040976524353
1772650204438795300,0.926795166015625,-0.02392532490193844,-0.09194619208574295,-0.2169162631034851
1772650204448840400,0.93684033203125,-0.043219923973083496,-0.10184835642576218,-0.28436562418937683
1772650204458884400,0.94688427734375,-0.05273532122373581,-0.13035282492637634,-0.34216710925102234
1772650204468928300,0.95692822265625,-0.04883911460638046,-0.1468908041715622,-0.39551717042922974
1772650204478972400,0.966972412109375,-0.058994460850954056,-0.1696735918521881,-0.43882596492767334
1772650204489017600,0.977017578125,-0.0622272714972496,-0.15633568167686462,-0.4712190628051758
1772650204499061200,0.987061279296875,-0.04025140777230263,-0.12070858478546143,-0.5014893412590027
1772650204509105400,0.99710546875,-0.018675539642572403,-0.05870673060417175,-0.5092439651489258
1772650204519149300,1.0071494140625,0.0028412239626049995,0.03150303289294243,-0.47247564792633057
1772650204529194200,1.0171943359375,0.02483547292649746,0.08956154435873032,-0.41776421666145325
1772650204539238400,1.02723828125,0.01776772551238537,0.08296898752450943,-0.37147775292396545
1772650204549282300,1.0372822265625,-0.0024866792373359203,0.026266567409038544,-0.34545761346817017
1772650204559326500,1.047326416015625,-0.020426616072654724,-0.04917440563440323,-0.331530898809433
1772650204569371400,1.057371337890625,-0.03286038339138031,-0.12284436076879501,-0.3386090397834778
1772650204579415300,1.067415283203125,-0.04360675439238548,-0.16393150389194489,-0.3643816411495209
1772650204589459500,1.07745947265625,-0.03878829628229141,-0.15531112253665924,-0.400648832321167
1772650204599503600,1.087503662109375,-0.01767371967434883,-0.12743403017520905,-0.4427635669708252
1772650204609548300,1.09754833984375,0.010529421269893646,-0.11503301560878754,-0.4821448028087616
1772650204619592400,1.107592529296875,0.030687101185321808,-0.11199241131544113,-0.5043608546257019
1772650204629636400,1.11763623046875,0.04161032289266586,-0.08690809458494186,-0.4936011731624603
1772650204639680500,1.127680419921875,0.04637112095952034,-0.03706125169992447,-0.45443010330200195
1772650204649725400,1.137725341796875,0.035457488149404526,0.0211916696280241,-0.41807126998901367
1772650204659769300,1.147769287109375,0.017025051638484,0.05419581010937691,-0.40012985467910767
1772650204669813500,1.1578134765625,0.0012828403851017356,0.05112705007195473,-0.4016382694244385
1772650204679857400,1.167857421875,-0.013220284134149551,0.05129362270236015,-0.3872167766094208
1772650204689902300,1.17790234375,-0.030107654631137848,0.08572136610746384,-0.3261856436729431
1772650204699946500,1.187946533203125,-0.059973008930683136,0.10662246495485306,-0.24401485919952393
1772650204709990400,1.197990478515625,-0.10498655587434769,0.07535934448242188,-0.16813048720359802
1772650204720034300,1.208034423828125,-0.15008851885795593,-0.003001109231263399,-0.1000201553106308
1772650204730079500,1.21807958984375,-0.18777304887771606,-0.09295390546321869,-0.05934010073542595
1772650204740123400,1.228123291015625,-0.2048363983631134,-0.1787962019443512,-0.05069560930132866
1772650204750167300,1.238167236328125,-0.20839756727218628,-0.23208871483802795,-0.07245896756649017
1772650204760211500,1.24821142578125,-0.19907796382904053,-0.2376251220703125,-0.10062386095523834
1772650204770256600,1.258256591796875,-0.18795500695705414,-0.23875990509986877,-0.14870724081993103
1772650204780300300,1.26830029296875,-0.16700974106788635,-0.22587767243385315,-0.20258013904094696
1772650204790344400,1.278344482421875,-0.14448818564414978,-0.19647930562496185,-0.24805308878421783
1772650204800388400,1.288388427734375,-0.11691799759864807,-0.12271106988191605,-0.2678717374801636
1772650204810433300,1.298433349609375,-0.10392549633979797,-0.04872552677989006,-0.2677209973335266
1772650204820477400,1.3084775390625,-0.11817793548107147,0.028132503852248192,-0.2660520076751709
1772650204830521300,1.318521240234375,-0.13236619532108307,0.1071317121386528,-0.2548891007900238
1772650204840565500,1.3285654296875,-0.13269886374473572,0.14955991506576538,-0.2454133927822113
1772650204850610400,1.3386103515625,-0.10945159196853638,0.16684064269065857,-0.2105150669813156
1772650204860654300,1.348654296875,-0.08400695770978928,0.13390597701072693,-0.16760115325450897
1772650204870698500,1.358698486328125,-0.06754595786333084,0.08751984685659409,-0.1105746254324913
1772650204880742400,1.368742431640625,-0.06407687067985535,0.020882686600089073,-0.05892156809568405
1772650204890787300,1.378787353515625,-0.07926088571548462,-0.0485248863697052,-0.02508610486984253
1772650204900831500,1.38883154296875,-0.09632712602615356,-0.091965451836586,0.01835954561829567
1772650204910875400,1.39887548828125,-0.09990055114030838,-0.1257212907075882,0.05288689583539963
1772650204920919300,1.408919189453125,-0.09676443040370941,-0.14430692791938782,0.08641594648361206
1772650204930964500,1.418964599609375,-0.072847381234169,-0.14432291686534882,0.1059638112783432
1772650204941008400,1.42900830078125,-0.05530783161520958,-0.12767650187015533,0.118988998234272
1772650204951052500,1.439052490234375,-0.04597265273332596,-0.1165120005607605,0.1228034496307373
1772650204961096200,1.44909619140625,-0.03989620506763458,-0.10633766651153564,0.12011760473251343
1772650204971141400,1.459141357421875,-0.024934563785791397,-0.08040806651115417,0.11436571180820465
1772650204981185500,1.469185546875,-0.011515927501022816,-0.030110856518149376,0.10335706919431686
1772650204991229200,1.479229248046875,-0.005269217304885387,0.029530370607972145,0.08563559502363205
1772650205001273300,1.4892734375,-0.0006515285349451005,0.08558160066604614,0.06577488034963608
1772650205011318500,1.499318603515625,0.004129910841584206,0.13342636823654175,0.043553195893764496
1772650205021362400,1.509362548828125,0.01448318175971508,0.1513822376728058,0.003593726549297571
1772650205031406300,1.51940625,0.032263509929180145,0.14161403477191925,-0.0427444763481617
1772650205041450500,1.529450439453125,0.07005517929792404,0.13843581080436707,-0.07359396666288376
1772650205051495400,1.539495361328125,0.1219085231423378,0.14694035053253174,-0.08304259181022644
1772650205061539300,1.549539306640625,0.1817423403263092,0.15249603986740112,-0.08197150379419327
1772650205071583500,1.55958349609375,0.27657485008239746,0.08985849469900131,-0.04581189900636673
1772650205081627400,1.56962744140625,0.3497799038887024,0.05719069764018059,-0.007360624149441719
1772650205091672300,1.57967236328125,0.33320116996765137,-0.08438640087842941,-0.012475225143134594
1772650205101716500,1.589716552734375,0.28133946657180786,-0.06733571738004684,0.046288762241601944
1772650205111760400,1.599760498046875,0.19516701996326447,-0.07224498689174652,0.11704070121049881
1772650205121804500,1.609804443359375,0.09252910315990448,-0.13449881970882416,0.17198416590690613
1772650205131849200,1.61984912109375,0.07922101765871048,-0.06629393994808197,0.278947651386261
1772650205141893400,1.629893310546875,0.1285591423511505,-0.11075883358716965,0.3574577867984772
1772650205151937500,1.6399375,0.1758694052696228,-0.16321058571338654,0.39222562313079834
1772650205161981400,1.6499814453125,0.14079448580741882,-0.27660155296325684,0.3467121422290802
1772650205172026400,1.6600263671875,0.08907002955675125,-0.08356603980064392,0.433553546667099
1772650205182070500,1.670070556640625,0.028502894565463066,-0.05629244074225426,0.5214441418647766
1772650205192113200,1.680113037109375,-0.019479811191558838,-0.1836027204990387,0.5276972055435181
1772650205202157300,1.6901572265625,-0.04247414693236351,-0.24115246534347534,0.4912826418876648
1772650205212202200,1.7002021484375,-0.05672898143529892,-0.22039072215557098,0.3748851716518402
1772650205222246100,1.71024609375,-0.055493034422397614,-0.1826586276292801,0.1849929541349411
1772650205232290300,1.720290283203125,-0.0060120378620922565,-0.12316732853651047,-0.003100250381976366
1772650205242334500,1.73033447265625,0.029561268165707588,0.05849374458193779,-0.09242641180753708
1772650205252379100,1.740379150390625,0.04906519502401352,0.2030746191740036,-0.09082158654928207
1772650205262423300,1.75042333984375,0.09516771137714386,0.2893922030925751,-0.0034201033413410187
1772650205272467500,1.760467529296875,0.14902082085609436,0.30762979388237,0.14780323207378387
1772650205282511400,1.770511474609375,0.19894638657569885,0.2422553300857544,0.31521064043045044
1772650205292556300,1.780556396484375,0.25934073328971863,0.15177257359027863,0.4711533486843109
1772650205302600400,1.790600341796875,0.29378700256347656,0.08417747914791107,0.5715670585632324
1772650205312644400,1.800644287109375,0.3132656514644623,0.0048720031045377254,0.6042022109031677
1772650205322688300,1.810688232421875,0.36527177691459656,-0.06638713926076889,0.5691081285476685
1772650205332733400,1.8207333984375,0.4054439663887024,-0.06655731052160263,0.5552306771278381
1772650205342777300,1.83077734375,0.4515603482723236,-0.019167078658938408,0.5703047513961792
1772650205352821200,1.8408212890625,0.48353105783462524,0.09855742007493973,0.6119110584259033
1772650205362865200,1.850865234375,0.5102425813674927,0.18075114488601685,0.6156817674636841
1772650205372909300,1.860909423828125,0.5239922404289246,0.1733132004737854,0.5589274168014526
1772650205382954200,1.870954345703125,0.49693062901496887,0.0918794572353363,0.441271036863327
1772650205392998100,1.880998046875,0.400945246219635,-0.045250702649354935,0.24397820234298706
1772650205403042300,1.891042236328125,0.2596871554851532,-0.2442987859249115,-0.05023830756545067
1772650205413086200,1.901086181640625,0.1310005635023117,-0.516947865486145,-0.43753916025161743
1772650205423131100,1.911131103515625,-0.0014936706284061074,-0.803314745426178,-0.7854206562042236
1772650205433175300,1.92117529296875,-0.12846706807613373,-1.096574068069458,-0.9477499127388
1772650205443219200,1.93121923828125,-0.18897785246372223,-1.4616419076919556,-0.9475021362304688
1772650205453263400,1.941263427734375,-0.182229682803154,-1.7476153373718262,-0.7785666584968567
1772650205463308300,1.951308349609375,-0.16548766195774078,-1.9262080192565918,-0.4798091650009155
1772650205473352200,1.961352294921875,-0.1377284675836563,-1.9325569868087769,-0.13798843324184418
1772650205483396400,1.971396240234375,-0.13379928469657898,-1.6431649923324585,0.19028401374816895
1772650205493441300,1.981441162109375,-0.1694110631942749,-1.1653754711151123,0.40635743737220764
1772650205503485200,1.991485107421875,-0.17221666872501373,-0.6280717253684998,0.4369747042655945
1772650205513529300,2.001529296875,-0.10374758392572403,-0.20757485926151276,0.28213372826576233
1772650205523573200,2.0115732421875,-0.042801111936569214,0.1282619684934616,0.12686538696289062
1772650205533617200,2.0216171875,-0.016271233558654785,0.3358444571495056,0.05514806881546974
1772650205543662300,2.031662353515625,-0.014583805575966835,0.40724653005599976,0.07900090515613556
1772650205553706200,2.041706298828125,-0.021039839833974838,0.4094654619693756,0.17730644345283508
1772650205563750100,2.051750244140625,-0.013958029448986053,0.39478248357772827,0.30693939328193665
1772650205573794300,2.061794189453125,-0.019640149548649788,0.3079170882701874,0.3930569589138031
1772650205583839200,2.071839111328125,-0.051045723259449005,0.19938886165618896,0.4183337390422821
1772650205593883400,2.08188330078125,-0.09838154911994934,0.13392756879329681,0.4408521056175232
1772650205603927300,2.09192724609375,-0.12714780867099762,0.13090507686138153,0.4727218449115753
1772650205613971200,2.10197119140625,-0.1464213728904724,0.18672654032707214,0.4540634751319885
1772650205624016400,2.112016357421875,-0.1666065901517868,0.28371095657348633,0.4177238941192627
1772650205634060300,2.122060302734375,-0.19472238421440125,0.4067319333553314,0.3975280821323395
1772650205644104200,2.132104248046875,-0.2023080736398697,0.579704999923706,0.41047632694244385
1772650205654148400,2.1421484375,-0.172377347946167,0.810818076133728,0.44057536125183105
1772650205664193300,2.152193359375,-0.1347062587738037,1.0179862976074219,0.46185165643692017
1772650205674237200,2.1622373046875,-0.10171715915203094,1.175944447517395,0.47940775752067566
1772650205684281300,2.17228125,-0.08343767374753952,1.2743889093399048,0.47780266404151917
1772650205694325200,2.1823251953125,-0.07388252019882202,1.303805947303772,0.4545072019100189
1772650205704370200,2.1923701171875,-0.08228468894958496,1.2649909257888794,0.4107830822467804
1772650205714414300,2.202414306640625,-0.11403196305036545,1.1839203834533691,0.38013914227485657
1772650205724458200,2.212458251953125,-0.1391349732875824,1.0526621341705322,0.38376402854919434
1772650205734502400,2.22250244140625,-0.16861535608768463,0.9241883158683777,0.42227786779403687
1772650205744547300,2.23254736328125,-0.16391439735889435,0.7696828246116638,0.4911993443965912
1772650205754591200,2.24259130859375,-0.11241310834884644,0.6420345902442932,0.5739221572875977
1772650205764635400,2.252635498046875,-0.03291274607181549,0.5522029399871826,0.6298773288726807
1772650205774679300,2.26267919921875,0.03627964109182358,0.4614333212375641,0.6765180826187134
1772650205784724200,2.27272412109375,0.08646487444639206,0.38521549105644226,0.7607756853103638
1772650205794768400,2.282768310546875,0.1303814798593521,0.3552280366420746,0.8613802790641785
1772650205804812300,2.292812255859375,0.1740318238735199,0.3561401963233948,0.8920908570289612
1772650205814856200,2.302856201171875,0.2162431925535202,0.3751543462276459,0.7905392050743103
1772650205824901400,2.3129013671875,0.2650662362575531,0.35387006402015686,0.5695967674255371
1772650205834945300,2.3229453125,0.33137497305870056,0.3644808828830719,0.33226892352104187
1772650205844989200,2.3329892578125,0.4346242845058441,0.43158790469169617,0.1914444863796234
1772650205855033000,2.343033203125,0.5055950880050659,0.4454091787338257,0.07798903435468674
1772650205865078300,2.353078369140625,0.3992234468460083,0.3799396753311157,-0.1629282683134079
1772650205875122400,2.363122314453125,0.21246130764484406,0.27857017517089844,-0.5303550362586975
1772650205885166000,2.373166015625,0.023991432040929794,0.08850318938493729,-1.009548544883728
1772650205895210200,2.383210205078125,-0.16712073981761932,-0.13466863334178925,-1.4590133428573608
1772650205905255400,2.39325537109375,-0.31853732466697693,-0.3437301218509674,-1.661117434501648
1772650205915299000,2.403299072265625,-0.3159383535385132,-0.44242820143699646,-1.4124027490615845
1772650205925343200,2.41334326171875,-0.13264793157577515,-0.4113587737083435,-0.8239168524742126
1772650205935387400,2.423387451171875,0.13791939616203308,-0.2626148462295532,-0.1902107298374176
1772650205945432000,2.43343212890625,0.4006904363632202,-0.0982947126030922,0.12806051969528198
1772650205955476200,2.443476318359375,0.6106719374656677,0.035754699259996414,0.06333744525909424
1772650205965520400,2.453520263671875,0.7441909313201904,0.111210897564888,-0.17481842637062073
1772650205975564300,2.463564208984375,0.7625123858451843,0.17280742526054382,-0.38256576657295227
1772650205985609200,2.473609130859375,0.6605032086372375,0.1502179652452469,-0.495934396982193
1772650205995653400,2.4836533203125,0.47139930725097656,0.034409329295158386,-0.49147093296051025
1772650206005697300,2.493697265625,0.2642066776752472,-0.12262620031833649,-0.35705339908599854
1772650206015741400,2.503741455078125,0.09820998460054398,-0.2615808844566345,-0.14055302739143372
1772650206025786000,2.5137861328125,0.009724562056362629,-0.3161351680755615,0.05508164316415787
1772650206035830300,2.523830322265625,-0.003035974455997348,-0.2996717691421509,0.14472205936908722
1772650206045874400,2.53387451171875,0.013168681412935257,-0.2510908246040344,0.09221421927213669
1772650206055918300,2.54391845703125,0.02539525367319584,-0.1503620743751526,-0.08391100913286209
1772650206065962200,2.553962158203125,-0.008001088164746761,-0.05085261911153793,-0.3335299789905548
1772650206076007400,2.56400732421875,-0.07147060334682465,0.012179609388113022,-0.6117905974388123
1772650206086051300,2.57405126953125,-0.14281262457370758,0.04964672401547432,-0.8612224459648132
1772650206096095200,2.58409521484375,-0.21294724941253662,0.04726292937994003,-1.0484833717346191
1772650206106139100,2.59413916015625,-0.3007124960422516,0.012800933793187141,-1.153517723083496
1772650206116184300,2.604184326171875,-0.41875311732292175,-0.055231381207704544,-1.1866748332977295
1772650206126228200,2.614228271484375,-0.5575569868087769,-0.15539194643497467,-1.198136329650879
1772650206136272100,2.624272216796875,-0.6873948574066162,-0.3070816099643707,-1.1930729150772095
1772650206146316300,2.63431640625,-0.7757136225700378,-0.5327596068382263,-1.1500766277313232
1772650206156361200,2.644361328125,-0.811785876750946,-0.8424727320671082,-1.0560420751571655
1772650206166405000,2.654405029296875,-0.7957280278205872,-1.1856954097747803,-0.8724547624588013
1772650206176449300,2.66444921875,-0.7726770043373108,-1.4844025373458862,-0.6055729985237122
1772650206186493200,2.6744931640625,-0.7631725072860718,-1.6350808143615723,-0.2910848557949066
1772650206196538600,2.68453857421875,-0.7530117630958557,-1.6233372688293457,-0.012868131510913372
1772650206206582800,2.694582763671875,-0.7284148931503296,-1.4607685804367065,0.17577561736106873
1772650206216627000,2.704626953125,-0.700818657875061,-1.1743525266647339,0.2556486129760742
1772650206226670800,2.7146708984375,-0.6743407249450684,-0.8183751702308655,0.24647247791290283
1772650206236715800,2.7247158203125,-0.6447676420211792,-0.453905314207077,0.18604668974876404
1772650206246760000,2.734760009765625,-0.6199279427528381,-0.14285112917423248,0.0875874012708664
1772650206256803800,2.744803955078125,-0.5996240377426147,0.10025286674499512,-0.018533170223236084
1772650206266847700,2.75484765625,-0.564248263835907,0.2680235803127289,-0.09658762812614441
1772650206276892700,2.764892578125,-0.5086027979850769,0.3693835139274597,-0.12090735137462616
1772650206286936800,2.774936767578125,-0.43284502625465393,0.4318005442619324,-0.08529548346996307
1772650206296980700,2.784980712890625,-0.3463471531867981,0.4730294644832611,0.015254826284945011
1772650206307024600,2.795024658203125,-0.26643210649490356,0.4958410859107971,0.1441335380077362
1772650206317069800,2.80506982421875,-0.1978277564048767,0.5153210759162903,0.2793038487434387
1772650206327114000,2.815114013671875,-0.14042682945728302,0.4980807602405548,0.3681780993938446
1772650206337157600,2.82515771484375,-0.10117342323064804,0.4456425905227661,0.3889307975769043
1772650206347201800,2.835201904296875,-0.07713218778371811,0.377738356590271,0.33053091168403625
1772650206357247000,2.8452470703125,-0.0675426796078682,0.29364320635795593,0.22883383929729462
1772650206367290600,2.85529052734375,-0.07552653551101685,0.20567093789577484,0.13825634121894836
1772650206377334800,2.865334716796875,-0.11022938787937164,0.10120232403278351,0.09573017805814743
1772650206387378700,2.875378662109375,-0.1543630063533783,-0.002445266582071781,0.1314755529165268
1772650206397423900,2.885423828125,-0.16771024465560913,-0.0818769782781601,0.2610175609588623
1772650206407467800,2.8954677734375,-0.1442142128944397,-0.12653782963752747,0.451811283826828
1772650206417511700,2.90551171875,-0.0704084187746048,-0.105361707508564,0.6195297241210938
1772650206427555800,2.915555908203125,0.07524541765451431,0.025351081043481827,0.6912813186645508
1772650206437600800,2.925600830078125,0.2605406939983368,0.20878560841083527,0.6149513721466064
1772650206447644700,2.935644775390625,0.41948217153549194,0.4388997256755829,0.3580845296382904
1772650206457688800,2.945688720703125,0.4889978766441345,0.6318010091781616,-0.04111478105187416
1772650206467732700,2.955732666015625,0.44194525480270386,0.7806177139282227,-0.45930102467536926
1772650206477777700,2.965777587890625,0.26726534962654114,0.730305016040802,-0.7868951559066772
1772650206487821800,2.97582177734375,0.014579439535737038,0.38485008478164673,-0.822604775428772
1772650206497865700,2.98586572265625,-0.1479460895061493,-0.2432013303041458,-0.4009592533111572
1772650206507910000,2.995909912109375,-0.26104339957237244,-0.9994694590568542,0.32508090138435364
1772650206517954800,3.005954833984375,-0.4069066047668457,-1.5928512811660767,1.0194766521453857
1772650206527998700,3.015998779296875,-0.47470957040786743,-1.9642056226730347,1.370606780052185
1772650206538043000,3.02604296875,-0.3970627188682556,-2.14764666557312,1.2430869340896606
1772650206548086800,3.036086669921875,-0.19934043288230896,-2.125070095062256,0.860491931438446
1772650206558131700,3.046131591796875,-0.03895021229982376,-1.867416262626648,0.5298077464103699
1772650206568175900,3.05617578125,0.04203331470489502,-1.4156595468521118,0.3876423239707947
1772650206578219800,3.0662197265625,0.08688654750585556,-0.7280492186546326,0.39978286623954773
1772650206588263700,3.076263671875,0.20475630462169647,-0.16021497547626495,0.4634878933429718
1772650206598308900,3.086308837890625,0.28599095344543457,0.37384095788002014,0.5600515007972717
1772650206608352800,3.096352783203125,0.35283657908439636,0.8703140020370483,0.5503333210945129
1772650206618396700,3.106396728515625,0.4027135968208313,1.2623547315597534,0.42434877157211304
1772650206628440800,3.11644091796875,0.42816388607025146,1.4356831312179565,0.28420352935791016
1772650206638484700,3.126484619140625,0.43390005826950073,1.4405134916305542,0.22673968970775604
1772650206648529700,3.13652978515625,0.4381715953350067,1.3597840070724487,0.2611907422542572
1772650206658573800,3.14657373046875,0.47662845253944397,1.1507394313812256,0.3151775598526001
1772650206668617700,3.15661767578125,0.5168038606643677,0.869012176990509,0.340183287858963
1772650206678662000,3.166661865234375,0.5260040163993835,0.5495215654373169,0.3153996169567108
1772650206688706800,3.176706787109375,0.45138052105903625,0.20047041773796082,0.25991442799568176
1772650206698750700,3.186750732421875,0.32748255133628845,-0.13248570263385773,0.2217462658882141
1772650206708795000,3.196794921875,0.19418206810951233,-0.5107546448707581,0.13253965973854065
1772650206718838800,3.2068388671875,0.013694852590560913,-0.8762181401252747,-0.0034855566918849945
1772650206728883700,3.2168837890625,-0.17883150279521942,-1.1723308563232422,-0.10568859428167343
1772650206738927900,3.226927978515625,-0.33690717816352844,-1.4113048315048218,-0.1813226342201233
1772650206748971800,3.2369716796875,-0.4745616018772125,-1.5966289043426514,-0.2303454428911209
1772650206759015700,3.247015625,-0.5978156328201294,-1.6698964834213257,-0.25209492444992065
1772650206769060900,3.257060791015625,-0.6865648031234741,-1.5567002296447754,-0.2568519711494446
1772650206779104800,3.267104736328125,-0.7315458655357361,-1.1992281675338745,-0.24806779623031616
1772650206789149000,3.27714892578125,-0.719055712223053,-0.6144382953643799,-0.22056227922439575
1772650206799192600,3.287192626953125,-0.6788251996040344,0.05549049749970436,-0.2009291797876358
1772650206809237800,3.29723779296875,-0.6528656482696533,0.6339569091796875,-0.19350765645503998
1772650206819282000,3.307281982421875,-0.6172884702682495,1.0839346647262573,-0.1929105818271637
1772650206829325600,3.31732568359375,-0.5725277066230774,1.3284430503845215,-0.22900374233722687
1772650206839369700,3.32736962890625,-0.5109644532203674,1.3287458419799805,-0.2825929522514343
1772650206849415000,3.337414794921875,-0.42936208844184875,1.090932846069336,-0.3340846598148346
1772650206859458600,3.34745849609375,-0.36738553643226624,0.7174456715583801,-0.3828253149986267
1772650206869502700,3.357502685546875,-0.32856157422065735,0.3666447103023529,-0.3928211033344269
1772650206879547000,3.367546875,-0.3058887720108032,0.13449802994728088,-0.3724239468574524
1772650206889591800,3.377591796875,-0.2807568311691284,0.021082090213894844,-0.31634005904197693
1772650206899635700,3.3876357421875,-0.23957958817481995,-0.046427711844444275,-0.2368984967470169
1772650206909679900,3.397679931640625,-0.16712161898612976,-0.09972105920314789,-0.15458989143371582
1772650206919723800,3.407723876953125,-0.06150491163134575,-0.11172498762607574,-0.05362386628985405
1772650206929768700,3.417768798828125,0.055395275354385376,-0.12177246063947678,0.0418175645172596
1772650206939812600,3.4278125,0.14258131384849548,-0.12859147787094116,0.10824425518512726
1772650206949856800,3.437856689453125,0.21240577101707458,-0.11831116676330566,0.13784605264663696
1772650206959901000,3.44790087890625,0.2604691684246063,-0.0837627723813057,0.12247002124786377
1772650206969945600,3.457945556640625,0.273959755897522,-0.01815779134631157,0.08392797410488129
1772650206979989800,3.46798974609375,0.2666594982147217,0.06582152843475342,0.06451353430747986
1772650206990034000,3.478033935546875,0.25461408495903015,0.14207695424556732,0.06455612182617188
1772650207000077800,3.488077880859375,0.2459670603275299,0.24194522202014923,0.08736982196569443
1772650207010122800,3.498122802734375,0.25134408473968506,0.34223663806915283,0.12702500820159912
1772650207020167000,3.5081669921875,0.2604171931743622,0.4128623604774475,0.1856750100851059
1772650207030210800,3.5182109375,0.2791098952293396,0.4457279443740845,0.2458924651145935
1772650207040254700,3.528254638671875,0.3065505623817444,0.3975819945335388,0.2939894199371338
1772650207050300000,3.5382998046875,0.3342912495136261,0.2731212377548218,0.3008328080177307
1772650207060343800,3.54834375,0.3454520106315613,0.07596822082996368,0.2658021152019501
1772650207070388000,3.558387939453125,0.36163800954818726,-0.16233648359775543,0.22819884121418
1772650207080431600,3.568431640625,0.41065773367881775,-0.4529552757740021,0.20601125061511993
1772650207090476800,3.578476806640625,0.48769816756248474,-0.79754239320755,0.17965973913669586
1772650207100521000,3.58852099609375,0.5385591983795166,-1.1926034688949585,0.12399673461914062
1772650207110564600,3.598564697265625,0.4981400668621063,-1.5760008096694946,0.04678714647889137
1772650207120608800,3.60860888671875,0.35015806555747986,-1.8362267017364502,-0.05099507048726082
1772650207130654000,3.618654052734375,0.07959181070327759,-1.888411283493042,-0.22650273144245148
1772650207140697600,3.628697509765625,-0.23141799867153168,-1.6521705389022827,-0.47686782479286194
1772650207150741800,3.63874169921875,-0.5198494791984558,-1.1916903257369995,-0.716404378414154
1772650207160785700,3.64878564453125,-0.7233560085296631,-0.6923207640647888,-0.8493198156356812
1772650207170829800,3.658829833984375,-0.8195685148239136,-0.19222646951675415,-0.807997465133667
1772650207180874800,3.668874755859375,-0.795615553855896,0.32820072770118713,-0.606555163860321
1772650207190918700,3.678918701171875,-0.6855538487434387,0.7798817753791809,-0.35683897137641907
1772650207200963000,3.688963134765625,-0.5074222087860107,1.0992610454559326,-0.1448660045862198
1772650207211007200,3.69900732421875,-0.30592116713523865,1.2175792455673218,-0.014080006629228592
1772650207221052000,3.709052001953125,-0.13906346261501312,1.1494261026382446,0.023489737883210182
1772650207231096000,3.719095947265625,-0.03067074716091156,0.9158498644828796,-0.00603127246722579
1772650207241140200,3.72914013671875,0.013231196440756321,0.5856919288635254,-0.05067623779177666
1772650207251183900,3.739183837890625,-0.0010309284552931786,0.1971956044435501,-0.08787546306848526
1772650207261229000,3.74922900390625,-0.03609916567802429,-0.08728326112031937,-0.06244334205985069
1772650207271273200,3.759273193359375,-0.053856246173381805,-0.2945060729980469,-0.02552870847284794
1772650207281317000,3.769317138671875,-0.10240167379379272,-0.413115531206131,-0.010143893770873547
1772650207291361000,3.779361083984375,-0.14168734848499298,-0.4950149953365326,-0.001420564134605229
1772650207301406200,3.78940625,-0.13251090049743652,-0.554200291633606,-0.018235228955745697
1772650207311450000,3.7994501953125,-0.054972026497125626,-0.5916042327880859,-0.0326765775680542
1772650207321494000,3.809493896484375,0.05782962590456009,-0.5845596194267273,-0.0427531823515892
1772650207331538000,3.819537841796875,0.18699467182159424,-0.47713640332221985,-0.03170241788029671
1772650207341583000,3.8295830078125,0.2872525751590729,-0.32586830854415894,-0.03795871511101723
1772650207351627000,3.839626953125,0.31490761041641235,-0.2049621045589447,-0.10369686782360077
1772650207361671000,3.8496708984375,0.2521808445453644,-0.10504670441150665,-0.20615240931510925
1772650207371715000,3.859715087890625,0.1350921392440796,-0.010547650046646595,-0.3124128580093384
1772650207381760000,3.869760009765625,-0.002248144242912531,0.0831034779548645,-0.3911582827568054
1772650207391804000,3.879803955078125,-0.12737667560577393,0.1884208470582962,-0.44750940799713135
1772650207401848000,3.88984814453125,-0.21308359503746033,0.3088069260120392,-0.4752989709377289
1772650207411892000,3.89989208984375,-0.24997441470623016,0.4621213674545288,-0.4810199439525604
1772650207421937000,3.90993701171875,-0.23950552940368652,0.6332688927650452,-0.46706336736679077
1772650207431981000,3.91998095703125,-0.18027162551879883,0.791172444820404,-0.42888402938842773
1772650207442025000,3.93002490234375,-0.11481326818466187,0.8825974464416504,-0.38514453172683716
1772650207452069000,3.940069091796875,-0.09961003065109253,0.8510869741439819,-0.3798944056034088
1772650207462114000,3.950114013671875,-0.0542614571750164,0.8198174834251404,-0.35172349214553833
1772650207472158000,3.960157958984375,0.05638144910335541,0.7673833966255188,-0.30811405181884766
1772650207482202000,3.9702021484375,0.18069620430469513,0.6738558411598206,-0.2414167821407318
1772650207492246000,3.98024609375,0.23710502684116364,0.5834728479385376,-0.16451534628868103
1772650207502291000,3.990291015625,0.23160240054130554,0.5184794664382935,-0.05369270220398903
1772650207512335000,4.000335205078125,0.20412124693393707,0.49143704771995544,0.10582762211561203
1772650207522379000,4.01037890625,0.19919706881046295,0.48763060569763184,0.31542956829071045
1772650207532423000,4.0204228515625,0.22594204545021057,0.4915854036808014,0.5288509726524353
1772650207542468000,4.030468017578125,0.26922348141670227,0.46101921796798706,0.6794639229774475
1772650207552512000,4.040511962890625,0.3173324465751648,0.3869432508945465,0.7549269199371338
1772650207562556000,4.050555908203125,0.34257760643959045,0.2902478575706482,0.7397146821022034
1772650207572600000,4.06060009765625,0.3612557649612427,0.17980961501598358,0.6560370326042175
1772650207582645000,4.07064501953125,0.3662124574184418,0.057628050446510315,0.5191149115562439
1772650207592689200,4.080689208984375,0.33941152691841125,-0.059475500136613846,0.33613693714141846
1772650207602733000,4.090733154296875,0.2815713882446289,-0.12076602876186371,0.18510159850120544
1772650207612777000,4.10077685546875,0.23092138767242432,-0.09523564577102661,0.1378306746482849
1772650207622821000,4.110821044921875,0.20029184222221375,-0.04933340474963188,0.17280490696430206
1772650207632866000,4.120865966796875,0.17344482243061066,0.0049764979630708694,0.2725306749343872
1772650207642910000,4.130909912109375,0.18387269973754883,0.09082083404064178,0.4412296712398529
1772650207652954000,4.1409541015625,0.23059748113155365,0.17621217668056488,0.6356543898582458
1772650207662999000,4.1509990234375,0.3063249886035919,0.23211432993412018,0.777014970779419
1772650207673043000,4.16104296875,0.37928760051727295,0.2459714561700821,0.7788612246513367
1772650207683087000,4.171087158203125,0.43611225485801697,0.1875142753124237,0.6042947769165039
1772650207693131000,4.181131103515625,0.46245938539505005,0.06343075633049011,0.3062490224838257
1772650207703175200,4.191175048828125,0.42294952273368835,-0.11708761751651764,0.02745465189218521
1772650207713220000,4.20122021484375,0.36168771982192993,-0.3212028443813324,-0.12287160754203796
1772650207723264000,4.211263916015625,0.3383280634880066,-0.5924170613288879,-0.17114539444446564
1772650207733308200,4.22130810546875,0.2756080627441406,-0.8052642345428467,-0.17549769580364227
1772650207743352000,4.23135205078125,0.13120295107364655,-0.8963482975959778,-0.21860602498054504
1772650207753397000,4.24139697265625,-0.05328509584069252,-0.7969488501548767,-0.3702354431152344
1772650207763441200,4.251441162109375,-0.1927175670862198,-0.6057267189025879,-0.6060807108879089
1772650207773485000,4.261485107421875,-0.307828426361084,-0.47377902269363403,-0.8495170474052429
1772650207783529000,4.271529052734375,-0.37783947587013245,-0.44302162528038025,-0.9416709542274475
1772650207793574100,4.28157421875,-0.3731709122657776,-0.3997358977794647,-0.8031144142150879
1772650207803618000,4.2916181640625,-0.29553017020225525,-0.2242514193058014,-0.4787454307079315
1772650207813662000,4.301661865234375,-0.21713951230049133,0.11570817232131958,-0.11790911108255386
1772650207823705900,4.311705810546875,-0.26006487011909485,0.3870832026004791,-0.03503020852804184
1772650207833751000,4.3217509765625,-0.21520324051380157,0.8111286759376526,-0.14851291477680206
1772650207843795000,4.331794921875,-0.09271461516618729,1.266723394393921,-0.3996945321559906
1772650207853838800,4.3418388671875,-0.12228287756443024,1.4501316547393799,-0.7547520399093628
1772650207863883000,4.351883056640625,-0.22648704051971436,1.5903977155685425,-1.003085970878601
1772650207873928200,4.36192822265625,-0.41683512926101685,1.375064730644226,-1.235611915588379
1772650207883971800,4.371971923828125,-0.5103443264961243,1.255815863609314,-1.2277206182479858
1772650207894016000,4.38201611328125,-0.3905985951423645,0.9770267605781555,-1.0664470195770264
1772650207904060200,4.39206005859375,-0.3705553710460663,0.5497204065322876,-0.9300470352172852
1772650207914104800,4.402104736328125,-0.47185608744621277,0.2435293197631836,-0.7750712633132935
1772650207924149000,4.41214892578125,-0.5342172384262085,-0.06468071043491364,-0.6288594603538513
1772650207934193200,4.422193115234375,-0.552486777305603,-0.24576681852340698,-0.517970860004425
1772650207944237000,4.432237060546875,-0.5842825174331665,-0.46088045835494995,-0.4783472418785095
1772650207954282000,4.442281982421875,-0.7295029163360596,-0.522705078125,-0.5243077874183655
1772650207964326100,4.452326171875,-0.8016168475151062,-0.3599606156349182,-0.5775350332260132
1772650207974370000,4.4623701171875,-0.7053748369216919,-0.26058757305145264,-0.6049324870109558
1772650207984414200,4.472414306640625,-0.6106416583061218,-0.28406253457069397,-0.5569378137588501
1772650207994459000,4.482458984375,-0.6456536650657654,-0.33856379985809326,-0.4763023853302002
1772650208004503000,4.4925029296875,-0.6528998613357544,-0.28044164180755615,-0.3429592549800873
1772650208014547200,4.502547119140625,-0.5622568726539612,-0.16322273015975952,-0.10072106122970581
1772650208024590800,4.5125908203125,-0.4333518147468567,-0.05675540491938591,0.21404246985912323
1772650208034636000,4.522635986328125,-0.27389177680015564,0.014898412860929966,0.5443527698516846
1772650208044680200,4.53268017578125,-0.18628337979316711,0.05776572227478027,0.7897002100944519
1772650208054724000,4.54272412109375,-0.06853748857975006,0.18457454442977905,0.9716807007789612
1772650208064768000,4.55276806640625,0.09271318465471268,0.24150386452674866,1.048048496246338
1772650208074812000,4.56281201171875,0.20572659373283386,0.2180671989917755,1.0374714136123657
1772650208084857000,4.572857177734375,0.22922419011592865,0.18702751398086548,0.9389201998710632
1772650208094901000,4.58290087890625,0.2136116772890091,0.20407281816005707,0.7597349882125854
1772650208104945000,4.59294482421875,0.21587562561035156,0.2692640721797943,0.5603779554367065
1772650208114989000,4.602989013671875,0.22472789883613586,0.4488818645477295,0.3809414505958557
1772650208125034000,4.613033935546875,0.20623944699764252,0.5894358158111572,0.2770443558692932
1772650208135078000,4.623077880859375,0.2187023013830185,0.7078672051429749,0.2958928346633911
1772650208145122000,4.6331220703125,0.27572697401046753,0.8286548256874084,0.3874723017215729
1772650208155166000,4.643166015625,0.3461401164531708,0.8849684596061707,0.4901799261569977
1772650208165211000,4.6532109375,0.40050002932548523,0.8233336210250854,0.5695991516113281
1772650208175255000,4.663255126953125,0.44324520230293274,0.6512670516967773,0.5914861559867859
1772650208185299000,4.673298828125,0.45945560932159424,0.44801029562950134,0.575404942035675
1772650208195342600,4.683342529296875,0.44830450415611267,0.28414785861968994,0.5243362188339233
1772650208205387500,4.693387451171875,0.4107922911643982,0.16051487624645233,0.44576016068458557
1772650208215431400,4.703431396484375,0.36717331409454346,0.07649707794189453,0.3323447108268738
1772650208225475600,4.7134755859375,0.3262306749820709,0.08729193359613419,0.20788908004760742
1772650208235519700,4.723519775390625,0.2822812497615814,0.17723460495471954,0.142331063747406
1772650208245564400,4.733564453125,0.26763811707496643,0.2685149610042572,0.1499098837375641
1772650208255608600,4.743608642578125,0.2851482629776001,0.32380935549736023,0.21108679473400116
1772650208265652700,4.75365283203125,0.3079278767108917,0.32727307081222534,0.30839473009109497
1772650208275696600,4.763696533203125,0.3113923668861389,0.2993708550930023,0.41923680901527405
1772650208285741600,4.773741455078125,0.27460721135139465,0.2983575165271759,0.502975344657898
1772650208295785700,4.78378564453125,0.19293074309825897,0.2608093023300171,0.5452023148536682
1772650208305829600,4.79382958984375,0.092903733253479,0.2689511179924011,0.4324933588504791
1772650208315873500,4.80387353515625,0.024386180564761162,0.2849578261375427,0.25945672392845154
1772650208325918700,4.813918701171875,-0.08206409960985184,0.1140633076429367,0.10773085057735443
1772650208335962600,4.823962646484375,-0.24219714105129242,-0.27868062257766724,-0.07713108509778976
1772650208346006500,4.834006591796875,-0.43844467401504517,-0.7567326426506042,-0.3075501620769501
1772650208356050400,4.844050537109375,-0.6567254662513733,-1.127487301826477,-0.5665321350097656
1772650208366095600,4.854095703125,-0.8209245204925537,-1.2763277292251587,-0.8392097353935242
1772650208376139500,4.864139404296875,-0.8621864318847656,-1.2587134838104248,-1.1897708177566528
1772650208386183400,4.874183349609375,-0.7885260581970215,-1.1404739618301392,-1.4872384071350098
1772650208396227600,4.8842275390625,-0.6951536536216736,-0.9325851798057556,-1.6008285284042358
1772650208406272800,4.894272705078125,-0.624975323677063,-0.634583592414856,-1.4920074939727783
1772650208416316400,4.90431640625,-0.5087011456489563,-0.29872751235961914,-1.3286014795303345
1772650208426360600,4.914360595703125,-0.39826464653015137,0.06383391469717026,-1.060295820236206
1772650208436404500,4.924404541015625,-0.3543300926685333,0.33781227469444275,-0.8118425011634827
1772650208446449400,4.934449462890625,-0.32293063402175903,0.5454754829406738,-0.6105781197547913
1772650208456493600,4.94449365234375,-0.2963188886642456,0.6603260040283203,-0.48941314220428467
1772650208466535700,4.95453564453125,-0.2509487271308899,0.6733654141426086,-0.4178633391857147
1772650208476580600,4.96458056640625,-0.1756981909275055,0.621849775314331,-0.35893556475639343
1772650208486624500,4.97462451171875,-0.0861978679895401,0.5098073482513428,-0.29899659752845764
1772650208496668700,4.984668701171875,0.01103369053453207,0.32506200671195984,-0.2709798514842987
1772650208506712600,4.994712646484375,0.07495461404323578,0.09921661764383316,-0.28620725870132446
1772650208516757500,5.004757568359375,0.06957629323005676,-0.08563488721847534,-0.2849453091621399
1772650208526801700,5.0148017578125,0.05416618287563324,-0.22504204511642456,-0.23708219826221466
1772650208536845600,5.024845458984375,0.05569098889827728,-0.3818734288215637,-0.14591990411281586
1772650208546889500,5.034889404296875,0.07385534048080444,-0.5813878774642944,-0.013598082587122917
1772650208556934700,5.0449345703125,0.08873751014471054,-0.7951428294181824,0.1646445393562317
1772650208566978600,5.054978515625,0.05911862850189209,-0.9890068769454956,0.39527666568756104
1772650208577022500,5.0650224609375,-0.023154241964221,-1.1066784858703613,0.626883327960968
1772650208587066600,5.075066650390625,-0.119046151638031,-1.1660076379776,0.8054373860359192
1772650208597111600,5.085111572265625,-0.22060808539390564,-1.1011743545532227,0.8441969752311707
1772650208607155500,5.095155517578125,-0.2807726562023163,-0.9074882864952087,0.689437985420227
1772650208617199600,5.10519970703125,-0.2924080491065979,-0.4108741581439972,0.42633378505706787
1772650208627243500,5.115243408203125,-0.16516035795211792,0.14099830389022827,0.17846833169460297
1772650208637288400,5.125288330078125,-0.0672488659620285,0.5404454469680786,-0.16276735067367554
1772650208647332600,5.13533251953125,0.06686100363731384,0.831513524055481,-0.4325748682022095
1772650208657376500,5.14537646484375,0.18594011664390564,0.8519821763038635,-0.6347327828407288
1772650208667420700,5.155420654296875,0.22020861506462097,0.764820396900177,-0.77608722448349
1772650208677465600,5.165465576171875,0.17290109395980835,0.5835833549499512,-0.8467873930931091
1772650208687509500,5.175509521484375,0.06994593888521194,0.35802510380744934,-0.8491847515106201
1772650208697553700,5.1855537109375,-0.012887172400951385,0.1399134397506714,-0.7986253499984741
1772650208707597600,5.19559765625,-0.06605105847120285,-0.11243997514247894,-0.697398841381073
1772650208717642500,5.205642578125,-0.07028711587190628,-0.3391106128692627,-0.4716768264770508
1772650208727686700,5.215686767578125,-0.015362881124019623,-0.5025496482849121,-0.15204690396785736
1772650208737730600,5.22573046875,0.0841122642159462,-0.5903058648109436,0.1387665867805481
1772650208747774700,5.235774658203125,0.18910498917102814,-0.6068747043609619,0.3219721019268036
1772650208757819600,5.245819580078125,0.2802218198776245,-0.5840163826942444,0.3983711004257202
1772650208767863600,5.255863525390625,0.33060935139656067,-0.5534662008285522,0.379893034696579
1772650208777907700,5.26590771484375,0.3412790894508362,-0.5213006138801575,0.27182653546333313
1772650208787951400,5.275951416015625,0.3607710301876068,-0.4779089093208313,0.10869114845991135
1772650208797996500,5.28599658203125,0.3006783723831177,-0.4730278551578522,-0.06393954902887344
1772650208808040700,5.296040771484375,0.215772807598114,-0.3429532051086426,-0.15778161585330963
1772650208818085600,5.306085693359375,0.20949687063694,-0.21581973135471344,-0.18284139037132263
1772650208828129500,5.316129638671875,0.2237919270992279,-0.1436920166015625,-0.08601605147123337
1772650208838173700,5.326173583984375,0.2535752058029175,-0.06132575869560242,0.08635495603084564
1772650208848217600,5.336217529296875,0.28797632455825806,0.011087989434599876,0.279110848903656
1772650208858262500,5.346262451171875,0.3158198893070221,0.07645201683044434,0.43214356899261475
1772650208868306700,5.356306640625,0.35956868529319763,0.1629704087972641,0.47778746485710144
1772650208878350600,5.3663505859375,0.398873507976532,0.19521500170230865,0.3751464784145355
1772650208888394500,5.37639453125,0.3626880943775177,0.060672372579574585,0.18614539504051208
1772650208898439700,5.386439697265625,0.3264244794845581,-0.25592881441116333,0.05908197909593582
1772650208908483600,5.396483642578125,0.25668853521347046,-0.737428605556488,0.021488532423973083
1772650208918527500,5.406527587890625,0.11620897799730301,-1.259110927581787,0.03132621943950653
1772650208928571400,5.4165712890625,-0.06656377017498016,-1.6164144277572632,0.07318605482578278
1772650208938616600,5.426616455078125,-0.1487143635749817,-1.7296626567840576,0.1753583550453186
1772650208948660700,5.43666064453125,-0.30158567428588867,-1.627550721168518,0.2480221688747406
1772650208958704400,5.446704345703125,-0.37507423758506775,-1.3542073965072632,0.21845653653144836
1772650208968748500,5.45674853515625,-0.35377267003059387,-1.0377525091171265,0.07135628908872604
1772650208978793700,5.466793701171875,-0.2728371024131775,-0.692278265953064,-0.15672345459461212
1772650208988837400,5.47683740234375,-0.16206026077270508,-0.33635982871055603,-0.3693702220916748
1772650208998881500,5.486881591796875,-0.11807717382907867,0.06430686265230179,-0.44101300835609436
1772650209008925700,5.49692578125,-0.14969129860401154,0.3558543026447296,-0.3836205303668976
1772650209018970400,5.506970458984375,-0.19818270206451416,0.4425112307071686,-0.2712087333202362
1772650209029014500,5.5170146484375,-0.2335132658481598,0.41036343574523926,-0.17236313223838806
1772650209039058700,5.52705859375,-0.2653404474258423,0.3446912169456482,-0.12630589306354523
1772650209049102600,5.5371025390625,-0.2688409984111786,0.33834487199783325,-0.12520869076251984
1772650209059146800,5.547146728515625,-0.24518561363220215,0.4420287609100342,-0.10805720090866089
1772650209069191400,5.55719140625,-0.19399593770503998,0.6118484139442444,-0.05298649147152901
1772650209079235600,5.567235595703125,-0.12435280531644821,0.7419721484184265,0.032670099288225174
1772650209089279700,5.57727978515625,-0.054524198174476624,0.7654513716697693,0.10759786516427994
1772650209099323400,5.587323486328125,-0.025668349117040634,0.6855828166007996,0.12641647458076477
1772650209109368600,5.59736865234375,-0.06738436967134476,0.4898631274700165,0.05061039328575134
1772650209119412700,5.607412841796875,-0.2001429945230484,0.23122473061084747,-0.10362040251493454
1772650209129456600,5.61745654296875,-0.4096216559410095,-0.06454408168792725,-0.30108076333999634
1772650209139500500,5.62750048828125,-0.6884685754776001,-0.40046170353889465,-0.4229810833930969
1772650209149545700,5.637545654296875,-0.9853183627128601,-0.7629573345184326,-0.41417694091796875
1772650209159589600,5.647589599609375,-1.2158095836639404,-1.0407092571258545,-0.3310040533542633
1772650209169633500,5.657633544921875,-1.3041768074035645,-1.1092480421066284,-0.2810860276222229
1772650209179677400,5.667677490234375,-1.2289133071899414,-0.9255737066268921,-0.30711910128593445
1772650209189722600,5.67772265625,-1.0024274587631226,-0.6377882957458496,-0.37246960401535034
1772650209199766500,5.6877666015625,-0.6824106574058533,-0.2189951241016388,-0.3960166871547699
1772650209209810700,5.697810791015625,-0.3628481328487396,0.31518810987472534,-0.35503914952278137
1772650209219854600,5.7078544921875,-0.12139152735471725,0.8306562900543213,-0.2981199622154236
1772650209229899500,5.7178994140625,0.03417356684803963,1.1610571146011353,-0.27632173895835876
1772650209239943700,5.727943603515625,0.11409414559602737,1.2557928562164307,-0.26287466287612915
1772650209249987600,5.737987548828125,0.11742816120386124,1.1477563381195068,-0.24603044986724854
1772650209260031700,5.74803173828125,0.07266078889369965,0.9228840470314026,-0.18574267625808716
1772650209270076700,5.75807666015625,-0.013122828677296638,0.7309591174125671,-0.09686180204153061
1772650209280120600,5.76812060546875,-0.1073821485042572,0.6059854030609131,0.007482848130166531
1772650209290164700,5.778164794921875,-0.1702743023633957,0.5287697315216064,0.1300915777683258
1772650209300209000,5.788208984375,-0.20458418130874634,0.46340814232826233,0.2523331344127655
1772650209310253600,5.798253662109375,-0.21031901240348816,0.3978712260723114,0.3479134440422058
1772650209320297700,5.808297607421875,-0.17184147238731384,0.3644161820411682,0.4353470206260681
1772650209330341600,5.818341552734375,-0.08249401301145554,0.3433050215244293,0.5146679878234863
1772650209340385800,5.8283857421875,0.029188359156250954,0.3309626579284668,0.58246910572052
1772650209350430700,5.8384306640625,0.12497027963399887,0.29082801938056946,0.6257129907608032
1772650209360474600,5.848474609375,0.21984750032424927,0.22301636636257172,0.5728737711906433
1772650209370518800,5.858518798828125,0.24325323104858398,0.15986962616443634,0.43834662437438965
1772650209380562700,5.868562744140625,0.23959483206272125,0.14914044737815857,0.3064717650413513
1772650209390607600,5.878607666015625,0.3686327040195465,0.14196854829788208,0.14573481678962708
1772650209400651800,5.88865185546875,0.4897649586200714,0.08847512304782867,0.08194262534379959
1772650209410695700,5.89869580078125,0.5052733421325684,0.0832689106464386,0.12883584201335907
1772650209420739600,5.908739501953125,0.47415468096733093,0.0670548751950264,0.20791156589984894
1772650209430784800,5.91878466796875,0.5819041132926941,0.04162009060382843,0.277115136384964
1772650209440829000,5.928828857421875,0.6994338035583496,0.06980562210083008,0.32856249809265137
1772650209450872600,5.93887255859375,0.8029431700706482,0.23942874372005463,0.3500986695289612
1772650209460916700,5.948916748046875,0.842199444770813,0.5567803978919983,0.38732677698135376
1772650209470962000,5.9589619140625,0.8061639666557312,0.7371722459793091,0.3353528082370758
1772650209481005600,5.969005615234375,0.6442354917526245,0.6950508952140808,0.27752751111984253
1772650209491049700,5.9790498046875,0.5766835808753967,0.45555490255355835,0.26822802424430847
1772650209501093600,5.98909375,0.5589377284049988,0.10141782462596893,0.343136191368103
1772650209511138600,5.999138671875,0.5291833281517029,-0.2579651176929474,0.4685966372489929
1772650209521182700,6.0091826171875,0.42412248253822327,-0.49198850989341736,0.6021462678909302
1772650209531226600,6.0192265625,0.32771632075309753,-0.5894529819488525,0.6911547183990479
1772650209541270800,6.029270751953125,0.22254064679145813,-0.6048385500907898,0.6308085322380066
1772650209551315700,6.039315673828125,0.12033200263977051,-0.6682755947113037,0.35367679595947266
1772650209561359600,6.049359619140625,0.03216768428683281,-0.7520776391029358,-0.03421735018491745
1772650209571403800,6.05940380859375,-0.03173087164759636,-0.773568868637085,-0.47456225752830505
1772650209581447700,6.06944775390625,-0.08851435780525208,-0.6793707013130188,-0.8713768720626831
1772650209591492600,6.07949267578125,-0.14495019614696503,-0.4413517117500305,-1.0480235815048218
1772650209601536800,6.089536865234375,-0.1042431965470314,-0.10381224006414413,-0.9956823587417603
1772650209611580700,6.09958056640625,-0.06553149223327637,0.20189733803272247,-0.730609655380249
1772650209621624800,6.109624755859375,-0.0217712614685297,0.3701942563056946,-0.35676613450050354
1772650209631669800,6.119669677734375,0.0947505533695221,0.46709468960762024,-0.02945936657488346
1772650209641713700,6.129713623046875,0.10004816949367523,0.5175859332084656,0.15650035440921783
1772650209651757800,6.1397578125,0.06002058833837509,0.5689231753349304,0.21122032403945923
1772650209661801500,6.149801513671875,0.017312990501523018,0.5804722309112549,0.16380509734153748
1772650209671845600,6.159845703125,-0.00010434992145746946,0.6731853485107422,0.1479307860136032
1772650209681890800,6.169890869140625,0.02715585008263588,0.8103687763214111,0.1919289231300354
1772650209691934500,6.1799345703125,0.08657097071409225,0.9315170645713806,0.2607833445072174
1772650209701978600,6.189978515625,0.1586887538433075,0.9849151968955994,0.3178453743457794
1772650209712022800,6.200022705078125,0.22957304120063782,0.8736507296562195,0.31854283809661865
1772650209722067700,6.210067626953125,0.23679405450820923,0.6559358835220337,0.25688067078590393
1772650209732111600,6.220111572265625,0.10816735774278641,0.3752799928188324,0.1474524289369583
1772650209742155800,6.23015576171875,-0.1571839153766632,0.15781083703041077,0.007200445979833603
1772650209752199700,6.24019970703125,-0.45067304372787476,0.06356796622276306,-0.111363485455513
1772650209762244600,6.25024462890625,-0.6001942157745361,-0.00863686390221119,-0.16627442836761475
1772650209772288800,6.260288818359375,-0.6062347888946533,-0.13867449760437012,-0.14003083109855652
1772650209782332700,6.270332763671875,-0.5855143666267395,-0.2583407461643219,-0.04876161739230156
1772650209792376800,6.280376953125,-0.5869261026382446,-0.28183916211128235,0.09453295916318893
1772650209802421800,6.290421875,-0.6138372421264648,-0.24117617309093475,0.24825826287269592
1772650209812465700,6.300465576171875,-0.6727313995361328,-0.20619022846221924,0.3510877192020416
1772650209822509800,6.310509765625,-0.7123755812644958,-0.1951131820678711,0.38478928804397583
1772650209832553700,6.3205537109375,-0.6759762763977051,-0.18266211450099945,0.3559874892234802
1772650209842598700,6.3305986328125,-0.5690698623657227,-0.18332764506340027,0.2857455313205719
1772650209852642800,6.340642822265625,-0.4213528335094452,-0.16672176122665405,0.18218983709812164
1772650209862686700,6.350686767578125,-0.2609192430973053,-0.12842293083667755,0.07373334467411041
1772650209872730600,6.360730712890625,-0.14329250156879425,-0.07534319907426834,-0.03183862939476967
1772650209882775800,6.37077587890625,-0.06194053590297699,0.0019402280449867249,-0.1519034206867218
1772650209892819700,6.38081982421875,0.01264262106269598,0.08891107887029648,-0.2901547849178314
1772650209902863600,6.390863525390625,0.05962011590600014,0.1563037633895874,-0.4209583103656769
1772650209912907500,6.400907470703125,0.07744758576154709,0.20185686647891998,-0.4265488088130951
1772650209922952700,6.41095263671875,0.09482061117887497,0.3074018359184265,-0.22897790372371674
1772650209932996900,6.420996826171875,0.11711739748716354,0.39455243945121765,0.07807498425245285
1772650209943040500,6.43104052734375,0.18015170097351074,0.39801251888275146,0.3887818455696106
1772650209953084700,6.441084716796875,0.25052064657211304,0.30775079131126404,0.5945715308189392
1772650209963129900,6.4511298828125,0.30927571654319763,0.1309974044561386,0.654875636100769
1772650209973173500,6.461173583984375,0.33255735039711,-0.059138454496860504,0.6037783622741699
1772650209983217700,6.4712177734375,0.31279003620147705,-0.2187863290309906,0.46198219060897827
1772650209993261600,6.481261474609375,0.25350621342658997,-0.28136131167411804,0.29466512799263
1772650210003306800,6.491306640625,0.1838715672492981,-0.2653442323207855,0.17254483699798584
1772650210013350700,6.5013505859375,0.1284959316253662,-0.2193192094564438,0.12648068368434906
1772650210023394600,6.51139453125,0.11012136191129684,-0.14740508794784546,0.14394111931324005
1772650210033438700,6.521438720703125,0.13561579585075378,-0.08889491111040115,0.19113047420978546
1772650210043483600,6.531483642578125,0.19449695944786072,-0.0480838306248188,0.23789717257022858
1772650210053527600,6.541527587890625,0.281416118144989,0.012332375161349773,0.2636166512966156
1772650210063571700,6.55157177734375,0.39373835921287537,0.07082018256187439,0.2457904815673828
1772650210073616000,6.561615966796875,0.5151318907737732,0.04703974351286888,0.17106804251670837
1772650210083660500,6.57166064453125,0.6124540567398071,-0.09969796240329742,0.021567242220044136
1772650210093704700,6.58170458984375,0.6602092981338501,-0.32270440459251404,-0.15497104823589325
1772650210103748900,6.591748779296875,0.6447709798812866,-0.5875482559204102,-0.2938062250614166
1772650210113792800,6.601792724609375,0.5548727512359619,-0.8059471845626831,-0.32468265295028687
1772650210123837700,6.611837646484375,0.4513506591320038,-0.9263891577720642,-0.2375352531671524
1772650210133881900,6.6218818359375,0.3584180474281311,-0.9230561852455139,0.024853482842445374
1772650210143925800,6.63192578125,0.21466699242591858,-0.9753311276435852,0.2359282523393631
1772650210153969700,6.6419697265625,0.025638479739427567,-0.870374858379364,0.3494260609149933
1772650210164014600,6.6520146484375,-0.2067752480506897,-0.6968740820884705,0.2314406782388687
1772650210174058800,6.662058837890625,-0.3387303650379181,-0.5708117485046387,-0.1425749957561493
1772650210184102700,6.6721025390625,-0.37849414348602295,-0.5981469750404358,-0.7001869082450867
1772650210194146600,6.682146484375,-0.38426467776298523,-0.6217377781867981,-1.2629135847091675
1772650210204192300,6.692192138671875,-0.3499962091445923,-0.5426192879676819,-1.632466435432434
1772650210214236200,6.702236083984375,-0.2072952687740326,-0.542086124420166,-1.7662899494171143
1772650210224280000,6.712280029296875,-0.0795489251613617,-0.3773083984851837,-1.5906572341918945
1772650210234324200,6.72232421875,0.07462333142757416,0.026024144142866135,-1.1420198678970337
1772650210244369200,6.732369140625,0.19242069125175476,0.3351456820964813,-0.6747133731842041
1772650210254413000,6.7424130859375,0.2110407054424286,0.4337710738182068,-0.2993243336677551
1772650210264457200,6.752457275390625,0.21536442637443542,0.4203725755214691,-0.12660542130470276
1772650210274501000,6.762501220703125,0.21647895872592926,0.45076218247413635,-0.09286130219697952
1772650210284546000,6.772546142578125,0.22126871347427368,0.49032363295555115,-0.13239285349845886
1772650210294590200,6.782590087890625,0.23943467438220978,0.5837608575820923,-0.19212329387664795
1772650210304634000,6.792634033203125,0.2439514845609665,0.7604626417160034,-0.2931399941444397
1772650210314678300,6.80267822265625,0.2644953727722168,0.9538467526435852,-0.3282090425491333
1772650210324723200,6.81272314453125,0.3827155828475952,0.6322415471076965,-0.3184334635734558
1772650210334767000,6.82276708984375,0.532984733581543,0.5664742588996887,-0.23384667932987213
1772650210344811300,6.832811279296875,0.5631521344184875,0.48064014315605164,-0.1565140187740326
1772650210354855200,6.842855224609375,0.4984285831451416,0.2916339933872223,-0.15212619304656982
1772650210364899000,6.852899169921875,0.3793465197086334,0.03510720282793045,-0.13112902641296387
1772650210374944300,6.8629443359375,0.2394978106021881,-0.23850835859775543,-0.085859015583992
1772650210384988200,6.87298828125,0.10892915725708008,-0.3880145251750946,-0.020665746182203293
1772650210395032000,6.883031982421875,-0.010829998180270195,-0.3809313178062439,0.07642138749361038
1772650210405076200,6.893076171875,-0.07377968728542328,-0.39698508381843567,0.18836481869220734
